MS,Accel X (m/s²),Accel Y (m/s²),Accel Z (m/s²),Gyro X (°/s),Gyro Y (°/s),Gyro Z (°/s),Temp (°C)
2320,8.944737,-0.569820,-4.050989,-0.579834,1.434326,-0.122070,38.453125
2360,8.944737,-0.569820,-4.046201,-0.854492,1.007080,0.091553,38.462891
2400,8.954314,-0.569820,-4.007894,-0.823975,1.403809,0.152588,38.462891
2440,8.978256,-0.588974,-3.993528,-0.732422,1.770020,-0.030518,38.449219
2480,8.992621,-0.579397,-3.988740,-0.701904,2.258301,0.030518,38.441406
2520,8.949526,-0.550666,-3.983952,-0.183105,1.678467,-0.091553,38.451172
2560,8.939949,-0.574608,-3.979163,-0.122070,1.251221,0.030518,38.439453
2600,8.963891,-0.560243,-3.955221,-0.274658,0.915527,-0.091553,38.449219
2640,8.949526,-0.574608,-3.940856,0.030518,1.037598,-0.030518,38.445312
2680,8.954314,-0.579397,-3.945644,0.183105,0.305176,0.152588,38.460938
2720,8.992621,-0.588974,-3.926491,0.335693,0.335693,0.274658,38.449219
2760,8.954314,-0.584185,-3.940856,0.213623,-0.274658,0.457764,38.462891
2800,8.944737,-0.579397,-3.955221,0.610352,-0.885010,0.335693,38.458984
2840,8.959103,-0.584185,-3.955221,0.518799,-1.007080,0.152588,38.439453
2880,8.978256,-0.588974,-3.960010,0.610352,-1.098633,0.061035,38.457031
2920,8.978256,-0.593762,-3.964798,0.640869,-0.976562,0.061035,38.472656
2960,8.963891,-0.593762,-3.964798,0.549316,-1.068115,0.091553,38.476562
3000,8.959103,-0.593762,-3.969586,0.366211,-1.159668,0.000000,38.451172
3040,8.963891,-0.603339,-3.974375,0.122070,-1.098633,0.091553,38.447266
3080,8.973468,-0.593762,-3.969586,0.061035,-0.549316,0.091553,38.441406
3120,8.963891,-0.608127,-3.988740,-0.091553,-0.579834,0.122070,38.455078
3160,8.963891,-0.622492,-3.993528,-0.183105,-0.457764,-0.030518,38.447266
3200,8.968679,-0.612916,-3.988740,-0.274658,0.183105,-0.091553,38.468750
3240,8.939949,-0.617704,-4.012682,-0.457764,-0.061035,0.183105,38.425781
3280,8.930372,-0.622492,-4.017470,-0.427246,-0.518799,0.183105,38.457031
3320,8.954314,-0.627281,-4.017470,-0.457764,-0.457764,0.213623,38.453125
3360,8.954314,-0.622492,-4.022259,-0.610352,-0.640869,0.335693,38.453125
3400,8.935161,-0.603339,-4.017470,-0.640869,-0.946045,0.305176,38.476562
3440,8.925584,-0.622492,-4.031836,-0.396729,-1.342773,0.305176,38.451172
3480,8.944737,-0.627281,-4.036624,-0.793457,-1.281738,0.305176,38.439453
3520,8.930372,-0.622492,-4.055778,-0.793457,-1.129150,0.274658,38.455078
3560,8.920795,-0.632069,-4.050989,-0.671387,-0.732422,0.030518,38.457031
3600,8.920795,-0.627281,-4.065354,-0.427246,-1.220703,0.091553,38.449219
3640,8.939949,-0.632069,-4.070143,-0.183105,-0.793457,-0.122070,38.460938
3680,8.925584,-0.627281,-4.079720,-0.183105,-0.823975,-0.122070,38.472656
3720,8.906430,-0.627281,-4.079720,-0.152588,-1.129150,0.030518,38.476562
3760,8.925584,-0.622492,-4.084508,0.213623,-1.037598,-0.091553,38.462891
3800,8.916007,-0.622492,-4.103662,0.183105,-1.037598,-0.122070,38.462891
3840,8.911219,-0.612916,-4.098873,0.274658,-0.885010,-0.244141,38.476562
3880,8.901642,-0.622492,-4.094085,0.335693,-0.885010,-0.244141,38.435547
3920,8.911219,-0.632069,-4.089296,0.579834,-0.610352,-0.335693,38.451172
3960,8.916007,-0.636858,-4.103662,0.488281,-0.488281,-0.183105,38.447266
4000,8.911219,-0.632069,-4.103662,0.518799,-0.427246,-0.213623,38.457031
4040,8.916007,-0.636858,-4.094085,0.579834,-0.122070,-0.213623,38.474609
4080,8.901642,-0.636858,-4.108450,0.579834,-0.213623,-0.122070,38.451172
4120,8.887277,-0.636858,-4.118027,0.457764,-0.579834,0.030518,38.464844
4160,8.901642,-0.651223,-4.118027,0.427246,-0.091553,0.152588,38.462891
4200,8.896853,-0.660800,-4.127604,0.610352,-0.396729,0.122070,38.476562
4240,8.901642,-0.665588,-4.108450,0.549316,-0.457764,0.091553,38.458984
4280,8.896853,-0.660800,-4.113238,0.671387,-0.457764,0.030518,38.455078
4320,8.896853,-0.656011,-4.118027,0.915527,-0.579834,-0.030518,38.451172
4360,8.906430,-0.646434,-4.113238,0.244141,-0.274658,0.030518,38.490234
4400,8.882488,-0.656011,-4.127604,0.244141,-0.610352,-0.091553,38.486328
4440,8.882488,-0.646434,-4.141969,0.274658,-0.915527,-0.061035,38.466797
4480,8.906430,-0.646434,-4.146757,0.213623,-0.305176,0.061035,38.468750
4520,8.887277,-0.646434,-4.137180,-0.091553,-0.122070,0.000000,38.474609
4560,8.877700,-0.665588,-4.137180,-0.183105,-0.488281,-0.030518,38.478516
4600,8.877700,-0.675165,-4.151546,-0.061035,-0.518799,0.122070,38.468750
4640,8.887277,-0.670376,-4.156334,-0.183105,-0.457764,-0.061035,38.466797
4680,8.872911,-0.675165,-4.156334,-0.274658,-0.366211,0.061035,38.476562
4720,8.868123,-0.665588,-4.170700,-0.335693,-0.610352,0.061035,38.457031
4760,8.887277,-0.670376,-4.161122,-0.244141,-0.274658,-0.122070,38.478516
4800,8.892065,-0.675165,-4.161122,-0.244141,0.183105,-0.122070,38.488281
4840,8.872911,-0.670376,-4.170700,-0.305176,0.091553,-0.061035,38.466797
4880,8.882488,-0.679953,-4.165911,-0.366211,0.091553,-0.183105,38.462891
4920,8.877700,-0.679953,-4.161122,-0.213623,0.488281,-0.305176,38.457031
4960,8.877700,-0.689530,-4.161122,0.000000,0.549316,-0.518799,38.482422
5000,8.892065,-0.694318,-4.151546,0.183105,1.007080,-0.610352,38.472656
5040,8.892065,-0.679953,-4.146757,0.366211,1.251221,-0.793457,38.468750
5080,8.882488,-0.660800,-4.132392,0.335693,0.976562,-0.732422,38.466797
5120,8.892065,-0.646434,-4.127604,0.396729,1.007080,-0.854492,38.480469
5160,8.887277,-0.646434,-4.137180,0.671387,0.579834,-0.976562,38.458984
5200,8.916007,-0.656011,-4.108450,0.366211,0.976562,-0.976562,38.464844
5240,8.911219,-0.651223,-4.089296,0.579834,1.159668,-0.976562,38.464844
5280,8.906430,-0.646434,-4.094085,0.823975,0.976562,-0.976562,38.468750
5320,8.925584,-0.632069,-4.094085,0.823975,1.037598,-0.915527,38.464844
5360,8.930372,-0.641646,-4.079720,0.823975,1.434326,-1.068115,38.476562
5400,8.916007,-0.627281,-4.074931,1.037598,1.342773,-1.098633,38.472656
5440,8.911219,-0.617704,-4.079720,1.220703,1.098633,-1.007080,38.457031
5480,8.925584,-0.612916,-4.074931,1.068115,0.915527,-0.976562,38.458984
5520,8.930372,-0.608127,-4.060566,0.946045,0.823975,-0.793457,38.439453
5560,8.906430,-0.617704,-4.065354,0.976562,0.488281,-0.701904,38.470703
5600,8.911219,-0.612916,-4.050989,0.793457,0.091553,-0.579834,38.466797
5640,8.935161,-0.608127,-4.046201,0.701904,0.030518,-0.549316,38.453125
5680,8.916007,-0.612916,-4.055778,0.610352,-0.427246,-0.274658,38.466797
5720,8.906430,-0.612916,-4.046201,0.488281,-0.915527,-0.030518,38.468750
5760,8.896853,-0.622492,-4.050989,0.244141,-1.525879,0.244141,38.455078
5800,8.911219,-0.632069,-4.050989,0.396729,-1.831055,0.183105,38.460938
5840,8.939949,-0.632069,-4.041412,0.366211,-1.495361,0.091553,38.478516
5880,8.949526,-0.627281,-4.041412,0.244141,-1.098633,0.183105,38.490234
5920,8.920795,-0.608127,-4.060566,0.000000,-1.251221,0.183105,38.457031
5960,8.930372,-0.608127,-4.060566,-0.091553,-1.098633,0.091553,38.498047
6000,8.911219,-0.632069,-4.084508,0.091553,-1.068115,0.244141,38.478516
6040,8.911219,-0.646434,-4.089296,-0.518799,-1.312256,0.335693,38.476562
6080,8.916007,-0.646434,-4.084508,-0.427246,-0.915527,0.183105,38.468750
6120,8.901642,-0.646434,-4.098873,-0.183105,-0.885010,0.122070,38.482422
6160,8.901642,-0.651223,-4.127604,-0.305176,-0.946045,0.244141,38.478516
6200,8.906430,-0.660800,-4.127604,-0.366211,-0.457764,0.061035,38.468750
6240,8.887277,-0.665588,-4.132392,-0.457764,-0.396729,-0.030518,38.449219
6280,8.877700,-0.675165,-4.151546,-0.244141,-0.640869,0.061035,38.470703
6320,8.872911,-0.684742,-4.175488,-0.366211,-0.854492,0.122070,38.468750
6360,8.863335,-0.689530,-4.189853,-0.427246,-1.007080,0.183105,38.476562
6400,8.839393,-0.684742,-4.175488,-0.305176,-1.190186,0.274658,38.478516
6440,8.853758,-0.679953,-4.170700,-0.335693,-1.373291,0.335693,38.468750
6480,8.887277,-0.675165,-4.185065,-0.427246,-1.098633,0.213623,38.472656
6520,8.882488,-0.670376,-4.185065,-0.518799,-0.946045,0.244141,38.470703
6560,8.896853,-0.675165,-4.180276,-0.671387,-0.488281,0.152588,38.476562
6600,8.882488,-0.675165,-4.180276,-0.671387,0.091553,0.183105,38.488281
6640,8.868123,-0.675165,-4.185065,-0.518799,0.152588,0.061035,38.492188
6680,8.868123,-0.679953,-4.189853,-0.396729,0.244141,0.000000,38.476562
6720,8.853758,-0.679953,-4.199430,-0.396729,0.152588,-0.030518,38.494141
6760,8.848969,-0.670376,-4.194642,-0.335693,0.213623,0.030518,38.478516
6800,8.853758,-0.660800,-4.194642,-0.305176,-0.183105,-0.061035,38.488281
6840,8.877700,-0.679953,-4.199430,0.152588,-0.122070,-0.213623,38.476562
6880,8.882488,-0.670376,-4.189853,-0.213623,0.122070,-0.274658,38.472656
6920,8.853758,-0.670376,-4.194642,-0.152588,0.000000,-0.183105,38.458984
6960,8.858546,-0.665588,-4.199430,0.000000,0.000000,-0.274658,38.462891
7000,8.872911,-0.665588,-4.204218,0.213623,0.061035,-0.183105,38.468750
7040,8.853758,-0.665588,-4.189853,0.183105,0.335693,-0.244141,38.462891
7080,8.839393,-0.675165,-4.204218,0.274658,-0.122070,-0.305176,38.462891
7120,8.858546,-0.670376,-4.204218,0.518799,-0.152588,-0.335693,38.460938
7160,8.863335,-0.665588,-4.194642,0.701904,0.030518,-0.427246,38.458984
7200,8.863335,-0.675165,-4.189853,0.671387,-0.152588,-0.396729,38.470703
7240,8.872911,-0.660800,-4.180276,0.671387,0.152588,-0.457764,38.453125
7280,8.872911,-0.641646,-4.180276,0.701904,0.366211,-0.427246,38.478516
7320,8.877700,-0.646434,-4.180276,0.488281,0.457764,-0.457764,38.457031
7360,8.882488,-0.646434,-4.180276,0.213623,0.610352,-0.305176,38.451172
7400,8.877700,-0.646434,-4.180276,0.061035,0.671387,-0.183105,38.445312
7440,8.868123,-0.651223,-4.180276,0.000000,0.518799,-0.122070,38.478516
7480,8.872911,-0.660800,-4.165911,0.000000,0.518799,-0.213623,38.480469
7520,8.877700,-0.665588,-4.156334,0.000000,0.549316,-0.183105,38.460938
7560,8.892065,-0.665588,-4.151546,0.122070,0.518799,-0.213623,38.443359
7600,8.896853,-0.660800,-4.141969,-0.030518,0.640869,-0.122070,38.468750
7640,8.882488,-0.656011,-4.146757,0.030518,0.457764,-0.244141,38.447266
7680,8.882488,-0.665588,-4.141969,0.305176,0.488281,-0.030518,38.466797
7720,8.882488,-0.660800,-4.137180,-0.091553,0.305176,0.000000,38.468750
7760,8.877700,-0.656011,-4.122815,0.213623,0.457764,-0.030518,38.449219
7800,8.887277,-0.665588,-4.137180,0.274658,0.091553,-0.030518,38.486328
7840,8.916007,-0.665588,-4.127604,0.335693,0.213623,-0.183105,38.466797
7880,8.911219,-0.665588,-4.118027,0.488281,0.640869,-0.396729,38.470703
7920,8.877700,-0.660800,-4.122815,0.366211,0.549316,-0.427246,38.457031
7960,8.887277,-0.660800,-4.127604,0.488281,0.457764,-0.427246,38.470703
8000,8.896853,-0.670376,-4.118027,0.488281,0.518799,-0.579834,38.472656
8040,8.906430,-0.675165,-4.118027,0.488281,0.396729,-0.732422,38.470703
8080,8.906430,-0.656011,-4.098873,0.518799,1.037598,-0.885010,38.470703
8120,8.920795,-0.646434,-4.089296,0.366211,1.495361,-0.854492,38.462891
8160,8.925584,-0.646434,-4.089296,0.122070,2.014160,-0.854492,38.462891
8200,8.930372,-0.641646,-4.074931,0.000000,2.410889,-0.823975,38.449219
8240,8.935161,-0.651223,-4.065354,-0.213623,2.410889,-0.823975,38.457031
8280,8.925584,-0.660800,-4.060566,-0.122070,2.258301,-0.885010,38.472656
8320,8.935161,-0.660800,-4.046201,-0.091553,1.953125,-0.854492,38.476562
8360,8.954314,-0.651223,-4.027047,-0.030518,2.044678,-0.854492,38.464844
8400,8.939949,-0.651223,-4.022259,0.030518,1.922607,-0.885010,38.478516
8440,8.930372,-0.641646,-4.022259,0.091553,1.525879,-0.793457,38.474609
8480,8.939949,-0.612916,-4.007894,0.030518,1.342773,-0.701904,38.466797
8520,8.944737,-0.617704,-3.988740,0.274658,0.793457,-0.946045,38.466797
8560,8.992621,-0.627281,-3.960010,0.701904,1.129150,-1.403809,38.464844
8600,8.997410,-0.593762,-3.945644,0.244141,1.739502,-1.434326,38.488281
8640,8.978256,-0.579397,-3.940856,0.335693,1.586914,-1.495361,38.464844
8680,8.939949,-0.603339,-3.974375,0.671387,0.427246,-1.220703,38.486328
8720,8.978256,-0.632069,-3.945644,0.762939,0.274658,-1.342773,38.478516
8760,9.006987,-0.646434,-3.912126,0.976562,1.342773,-1.464844,38.472656
8800,8.959103,-0.612916,-3.912126,1.220703,0.915527,-1.007080,38.492188
8840,8.935161,-0.569820,-3.926491,0.762939,-0.091553,-0.335693,38.482422
8880,8.954314,-0.550666,-3.936068,0.274658,-0.579834,0.000000,38.472656
8920,8.963891,-0.565032,-3.926491,0.457764,-1.159668,0.030518,38.482422
8960,8.978256,-0.574608,-3.931279,0.122070,-1.312256,0.152588,38.468750
9000,8.992621,-0.569820,-3.936068,-0.091553,-1.281738,0.244141,38.466797
9040,8.968679,-0.603339,-3.950433,-0.213623,-1.556396,0.427246,38.470703
9080,8.944737,-0.627281,-3.960010,-0.152588,-2.105713,0.640869,38.458984
9120,8.949526,-0.617704,-3.960010,-0.030518,-2.288818,0.732422,38.478516
9160,8.983045,-0.598550,-3.955221,-0.122070,-1.556396,0.701904,38.496094
9200,8.978256,-0.603339,-3.964798,-0.183105,-1.556396,0.701904,38.468750
9240,8.959103,-0.608127,-3.969586,-0.335693,-1.556396,0.854492,38.484375
9280,8.978256,-0.598550,-3.983952,-0.366211,-1.037598,0.732422,38.462891
9320,8.949526,-0.603339,-4.003105,-0.823975,-1.159668,0.885010,38.449219
9360,8.949526,-0.603339,-3.998317,-0.854492,-1.037598,0.732422,38.482422
9400,8.944737,-0.617704,-4.007894,-0.671387,-0.946045,0.610352,38.457031
9440,8.954314,-0.641646,-4.012682,-0.976562,-0.701904,0.427246,38.464844
9480,8.935161,-0.665588,-4.027047,-0.823975,-1.159668,0.366211,38.462891
9520,8.925584,-0.670376,-4.036624,-0.366211,-0.885010,0.183105,38.466797
9560,8.925584,-0.660800,-4.070143,-0.091553,-0.885010,0.274658,38.478516
9600,8.935161,-0.656011,-4.074931,-0.274658,-0.213623,0.152588,38.449219
9640,8.911219,-0.651223,-4.060566,-0.396729,-0.549316,-0.122070,38.466797
9680,8.906430,-0.651223,-4.079720,-0.396729,-0.488281,-0.213623,38.468750
9720,8.901642,-0.641646,-4.079720,-0.579834,-0.488281,0.122070,38.474609
9760,8.916007,-0.641646,-4.074931,-0.732422,-0.427246,0.030518,38.449219
9800,8.920795,-0.656011,-4.084508,-0.671387,-0.427246,0.061035,38.466797
9840,8.925584,-0.651223,-4.079720,-0.610352,-0.305176,0.152588,38.472656
9880,8.925584,-0.656011,-4.089296,-0.701904,-0.244141,0.091553,38.482422
9920,8.906430,-0.656011,-4.094085,-0.671387,-0.488281,0.122070,38.472656
9960,8.901642,-0.660800,-4.084508,-0.671387,-0.396729,0.183105,38.458984
10000,8.906430,-0.646434,-4.089296,-0.549316,-0.213623,0.152588,38.476562
10040,8.925584,-0.646434,-4.089296,-0.396729,0.091553,-0.030518,38.458984
10080,8.911219,-0.660800,-4.089296,-0.305176,0.305176,-0.091553,38.457031
10120,8.887277,-0.665588,-4.094085,0.000000,-1.007080,-0.457764,38.472656
10160,8.887277,-0.684742,-4.098873,0.488281,-0.946045,-0.610352,38.478516
10200,8.920795,-0.665588,-4.103662,0.518799,-0.061035,0.091553,38.474609
10240,8.916007,-0.641646,-4.118027,0.610352,-0.671387,-0.396729,38.462891
10280,8.892065,-0.679953,-4.103662,0.732422,-0.457764,-0.366211,38.462891
10320,8.887277,-0.656011,-4.094085,0.152588,-0.488281,0.061035,38.464844
10360,8.906430,-0.627281,-4.098873,-0.122070,-0.396729,0.122070,38.486328
10400,8.911219,-0.603339,-4.122815,-0.152588,-0.427246,-0.244141,38.466797
10440,8.906430,-0.608127,-4.118027,-0.213623,-0.061035,-0.152588,38.468750
10480,8.906430,-0.627281,-4.118027,-0.213623,0.000000,-0.305176,38.455078
10520,8.906430,-0.646434,-4.122815,-0.213623,-0.061035,-0.427246,38.470703
10560,8.896853,-0.641646,-4.118027,0.152588,-0.274658,-0.793457,38.468750
10600,8.906430,-0.665588,-4.098873,0.518799,-0.122070,-1.037598,38.464844
10640,8.920795,-0.670376,-4.094085,0.854492,0.671387,-0.701904,38.476562
10680,8.911219,-0.656011,-4.118027,1.251221,0.152588,-1.129150,38.472656
10720,8.901642,-0.656011,-4.094085,1.342773,0.640869,-1.525879,38.449219
10760,8.911219,-0.632069,-4.089296,1.159668,1.312256,-1.342773,38.474609
10800,8.916007,-0.603339,-4.113238,0.762939,1.007080,-1.220703,38.466797
10840,8.925584,-0.588974,-4.103662,0.488281,1.220703,-1.220703,38.474609
10880,8.901642,-0.569820,-4.098873,0.213623,0.823975,-1.037598,38.470703
10920,8.892065,-0.584185,-4.084508,0.122070,0.244141,-0.946045,38.486328
10960,8.911219,-0.627281,-4.079720,0.640869,-0.061035,-1.281738,38.468750
11000,8.916007,-0.675165,-4.074931,1.129150,0.000000,-1.129150,38.453125
11040,8.925584,-0.699107,-4.070143,1.770020,0.396729,-1.342773,38.478516
11080,8.930372,-0.689530,-4.065354,2.410889,0.762939,-1.434326,38.466797
11120,8.901642,-0.679953,-4.065354,3.509521,0.213623,-1.617432,38.449219
11160,8.930372,-0.665588,-4.084508,3.875732,0.305176,-1.770020,38.476562
11200,8.935161,-0.612916,-4.060566,3.631592,0.457764,-1.800537,38.480469
11240,8.906430,-0.593762,-4.060566,3.845215,0.183105,-1.770020,38.462891
11280,8.911219,-0.579397,-4.089296,3.417969,-0.152588,-1.647949,38.445312
11320,8.968679,-0.565032,-4.070143,2.868652,0.396729,-1.739502,38.451172
11360,8.916007,-0.569820,-4.055778,2.624512,0.274658,-1.892090,38.460938
11400,8.872911,-0.584185,-4.074931,2.593994,-0.305176,-1.617432,38.466797
11440,8.906430,-0.588974,-4.079720,2.441406,-0.549316,-1.220703,38.472656
11480,8.925584,-0.569820,-4.079720,1.464844,-1.007080,-0.549316,38.464844
11520,8.920795,-0.569820,-4.060566,0.610352,-1.525879,-0.122070,38.476562
11560,8.901642,-0.550666,-4.074931,-0.366211,-1.953125,0.396729,38.476562
11600,8.925584,-0.536301,-4.070143,-1.251221,-2.166748,0.610352,38.468750
11640,8.944737,-0.560243,-4.074931,-1.495361,-1.708984,0.671387,38.464844
11680,8.939949,-0.574608,-4.084508,-1.556396,-1.129150,0.488281,38.453125
11720,8.920795,-0.593762,-4.094085,-1.708984,-0.762939,0.518799,38.468750
11760,8.920795,-0.617704,-4.103662,-1.861572,-0.396729,0.671387,38.480469
11800,8.911219,-0.617704,-4.113238,-1.861572,-0.457764,0.885010,38.476562
11840,8.906430,-0.612916,-4.118027,-1.708984,-0.213623,0.854492,38.455078
11880,8.911219,-0.617704,-4.127604,-1.525879,-0.061035,0.732422,38.458984
11920,8.911219,-0.603339,-4.127604,-1.403809,0.152588,0.640869,38.484375
11960,8.896853,-0.608127,-4.127604,-1.281738,-0.122070,0.549316,38.449219
12000,8.892065,-0.622492,-4.146757,-0.823975,-0.030518,0.488281,38.494141
12040,8.906430,-0.617704,-4.141969,-1.190186,0.152588,0.549316,38.464844
12080,8.896853,-0.617704,-4.132392,-0.915527,0.183105,0.366211,38.476562
12120,8.892065,-0.627281,-4.127604,-0.640869,0.152588,0.244141,38.468750
12160,8.896853,-0.622492,-4.137180,-0.457764,0.122070,0.213623,38.443359
12200,8.906430,-0.627281,-4.132392,-0.396729,0.122070,0.152588,38.466797
12240,8.887277,-0.636858,-4.122815,-0.396729,0.122070,0.183105,38.478516
12280,8.882488,-0.636858,-4.122815,-0.396729,-0.152588,0.274658,38.462891
12320,8.906430,-0.632069,-4.132392,-0.396729,0.091553,0.152588,38.458984
12360,8.901642,-0.646434,-4.132392,-0.701904,-0.183105,0.305176,38.462891
12400,8.901642,-0.656011,-4.098873,-0.671387,0.366211,0.518799,38.468750
12440,8.916007,-0.651223,-4.141969,-0.610352,0.762939,0.701904,38.458984
12480,8.901642,-0.608127,-4.161122,-0.152588,1.251221,0.427246,38.472656
12520,8.896853,-0.588974,-4.156334,-0.091553,1.403809,0.518799,38.486328
12560,8.892065,-0.584185,-4.151546,-0.030518,1.434326,0.549316,38.472656
12600,8.887277,-0.574608,-4.146757,-0.152588,1.037598,0.915527,38.474609
12640,8.892065,-0.588974,-4.146757,0.122070,0.671387,0.915527,38.476562
12680,8.920795,-0.617704,-4.137180,0.061035,0.732422,0.640869,38.482422
12720,8.911219,-0.646434,-4.118027,0.274658,1.281738,0.610352,38.464844
12760,8.848969,-0.708684,-4.151546,0.549316,-0.030518,1.251221,38.470703
12800,8.829816,-0.780510,-4.122815,1.068115,-0.091553,0.762939,38.462891
12840,8.796297,-0.861913,-4.055778,1.800537,-0.610352,0.030518,38.468750
12880,8.916007,-0.876278,-4.046201,2.380371,-1.647949,-0.061035,38.453125
12920,8.906430,-0.900220,-4.094085,3.021240,-2.685547,-0.610352,38.462891
12960,8.844181,-0.938527,-4.070143,3.509521,-4.241943,-0.366211,38.490234
13000,8.868123,-0.924162,-4.031836,3.509521,-4.394531,-0.518799,38.472656
13040,8.935161,-0.852336,-4.027047,3.326416,-3.234863,-1.373291,38.476562
13080,8.920795,-0.842759,-4.065354,3.295898,-3.265381,-2.258301,38.472656
13120,8.920795,-0.837971,-4.079720,3.326416,-3.082275,-3.051758,38.496094
13160,8.901642,-0.809240,-4.098873,3.295898,-2.227783,-3.662109,38.470703
13200,8.882488,-0.790087,-4.118027,3.204346,-2.166748,-3.906250,38.478516
13240,8.868123,-0.775721,-4.156334,3.723145,-1.922607,-4.241943,38.462891
13280,8.868123,-0.775721,-4.209007,4.516602,-2.105713,-4.547119,38.478516
13320,8.906430,-0.703895,-4.204218,5.523682,-0.946045,-5.035400,38.492188
13360,8.901642,-0.588974,-4.237737,5.981445,0.518799,-4.852295,38.462891
13400,8.844181,-0.440533,-4.290410,5.950928,-1.403809,-4.638672,38.470703
13440,8.868123,-0.368707,-4.232949,5.981445,-1.953125,-4.943848,38.472656
13480,8.820239,-0.359130,-4.204218,4.364014,-1.037598,-4.302979,38.462891
13520,8.825027,-0.268151,-4.295198,3.295898,-2.227783,-3.356934,38.453125
13560,8.839393,-0.201113,-4.323928,2.441406,-2.838135,-3.784180,38.455078
13600,8.820239,-0.277727,-4.280833,2.410889,-1.281738,-3.723145,38.503906
13640,8.844181,-0.440533,-4.266468,2.655029,-1.129150,-2.655029,38.472656
13680,8.834604,-0.421380,-4.295198,2.197266,-1.342773,-1.007080,38.464844
13720,8.796297,-0.282516,-4.371812,2.685547,-2.929688,-0.823975,38.468750
13760,8.920795,-0.368707,-4.323928,3.082275,-0.915527,-1.007080,38.472656
13800,8.901642,-0.459687,-4.280833,3.082275,1.739502,0.122070,38.478516
13840,8.839393,-0.416591,-4.309563,2.166748,1.342773,1.037598,38.488281
13880,8.930372,-0.363919,-4.271256,1.159668,1.953125,1.953125,38.476562
13920,8.992621,-0.354342,-4.199430,-0.335693,4.364014,2.960205,38.458984
13960,8.901642,-0.344765,-4.175488,-1.312256,5.889893,3.051758,38.472656
14000,8.825027,-0.421380,-4.232949,-1.647949,5.157471,2.685547,38.466797
14040,8.844181,-0.565032,-4.276044,-1.220703,4.364014,2.563477,38.453125
14080,8.848969,-0.708684,-4.271256,-0.732422,3.021240,2.807617,38.486328
14120,8.848969,-0.737414,-4.280833,1.556396,1.342773,2.105713,38.476562
14160,8.858546,-0.804452,-4.232949,3.204346,1.464844,1.495361,38.482422
14200,8.805874,-0.842759,-4.228160,5.187988,0.061035,0.793457,38.466797
14240,8.734048,-0.852336,-4.252102,6.591797,-0.030518,-0.061035,38.486328
14280,8.690952,-0.933739,-4.256891,8.209229,-2.075195,-0.122070,38.462891
14320,8.738836,-0.981623,-4.175488,9.033203,-1.434326,-1.190186,38.457031
14360,8.844181,-1.019930,-4.060566,8.270264,-1.251221,-1.129150,38.476562
14400,8.844181,-0.943315,-3.869030,5.432129,2.136230,-1.190186,38.451172
14440,8.757990,-0.785298,-3.974375,3.234863,1.739502,-1.678467,38.478516
14480,8.963891,-0.770933,-4.098873,1.556396,-0.976562,-0.885010,38.466797
14520,9.141062,-0.938527,-4.003105,-1.281738,-0.152588,0.732422,38.478516
14560,8.949526,-0.928950,-3.892972,-3.997803,-0.122070,2.197266,38.462891
14600,8.858546,-0.885855,-3.926491,-6.561279,-1.037598,3.387451,38.480469
14640,8.892065,-0.890643,-3.998317,-8.819580,-2.288818,4.211426,38.482422
14680,8.935161,-0.881066,-3.983952,-9.613037,-2.136230,3.784180,38.478516
14720,8.987833,-0.895431,-3.974375,-10.314941,-0.823975,3.509521,38.451172
14760,8.963891,-0.885855,-4.017470,-11.138916,1.068115,3.448486,38.460938
14800,8.848969,-0.905008,-4.094085,-11.413574,-0.183105,3.601074,38.462891
14840,8.868123,-0.933739,-4.098873,-10.437012,-0.274658,2.929688,38.478516
14880,8.963891,-0.924162,-4.041412,-9.643555,1.220703,2.075195,38.468750
14920,8.954314,-0.828394,-4.065354,-9.124756,1.678467,1.556396,38.468750
14960,8.872911,-0.761356,-4.118027,-8.300781,1.159668,0.976562,38.466797
15000,8.872911,-0.766145,-4.141969,-7.812500,1.129150,0.671387,38.476562
15040,8.911219,-0.770933,-4.122815,-6.896973,1.525879,0.152588,38.476562
15080,8.892065,-0.761356,-4.127604,-6.134033,1.495361,-0.030518,38.464844
15120,8.896853,-0.737414,-4.137180,-4.913330,1.586914,-0.152588,38.496094
15160,8.892065,-0.737414,-4.156334,-3.417969,0.885010,-0.396729,38.482422
15200,8.858546,-0.746991,-4.156334,-2.227783,0.183105,-0.793457,38.476562
15240,8.863335,-0.732626,-4.137180,-0.793457,0.427246,-1.007080,38.474609
15280,8.868123,-0.689530,-4.151546,0.518799,-0.183105,-1.159668,38.462891
15320,8.853758,-0.675165,-4.170700,1.495361,-1.037598,-1.251221,38.468750
15360,8.848969,-0.670376,-4.165911,2.502441,-1.770020,-1.373291,38.470703
15400,8.901642,-0.660800,-4.141969,3.326416,-1.190186,-1.647949,38.472656
15440,8.887277,-0.651223,-4.180276,3.387451,-1.464844,-1.647949,38.466797
15480,8.858546,-0.646434,-4.199430,3.906250,-1.892090,-1.556396,38.484375
15520,8.872911,-0.632069,-4.180276,4.333496,-1.831055,-2.014160,38.480469
15560,8.872911,-0.627281,-4.199430,4.852295,-1.678467,-2.075195,38.498047
15600,8.844181,-0.622492,-4.213795,5.157471,-1.770020,-2.044678,38.468750
15640,8.820239,-0.617704,-4.237737,5.096436,-2.410889,-1.800537,38.476562
15680,8.839393,-0.612916,-4.256891,4.821777,-2.410889,-1.556396,38.445312
15720,8.844181,-0.608127,-4.266468,4.699707,-2.502441,-1.373291,38.443359
15760,8.815451,-0.598550,-4.276044,4.364014,-3.021240,-1.129150,38.478516
15800,8.786720,-0.612916,-4.280833,4.272461,-3.204346,-1.464844,38.474609
15840,8.839393,-0.612916,-4.295198,3.936768,-2.014160,-1.312256,38.482422
15880,8.839393,-0.579397,-4.299986,3.265381,-2.105713,-1.220703,38.488281
15920,8.829816,-0.569820,-4.319140,2.502441,-1.922607,-0.946045,38.464844
15960,8.805874,-0.593762,-4.319140,1.922607,-1.678467,-0.671387,38.478516
16000,8.796297,-0.627281,-4.347870,1.617432,-1.922607,-0.976562,38.478516
16040,8.796297,-0.656011,-4.357447,1.617432,-1.800537,-1.007080,38.457031
16080,8.796297,-0.641646,-4.376601,1.159668,-0.885010,-0.854492,38.488281
16120,8.786720,-0.608127,-4.386178,0.488281,-0.579834,-0.396729,38.482422
16160,8.772355,-0.612916,-4.414908,-0.244141,-0.549316,-0.061035,38.478516
16200,8.753201,-0.641646,-4.434062,-0.518799,-0.732422,0.335693,38.492188
16240,8.757990,-0.670376,-4.410120,-1.342773,-0.793457,0.488281,38.488281
16280,8.777143,-0.703895,-4.390966,-1.464844,-0.518799,0.396729,38.476562
16320,8.786720,-0.718261,-4.400543,-0.885010,-0.152588,-0.030518,38.484375
16360,8.786720,-0.694318,-4.429273,-0.701904,0.427246,-0.213623,38.462891
16400,8.757990,-0.670376,-4.434062,-0.976562,1.190186,-0.610352,38.488281
16440,8.738836,-0.670376,-4.414908,-1.281738,1.281738,-0.579834,38.478516
16480,8.757990,-0.684742,-4.400543,-1.251221,1.098633,-0.335693,38.476562
16520,8.781932,-0.708684,-4.390966,-0.976562,0.793457,-0.488281,38.462891
16560,8.791509,-0.732626,-4.371812,-0.366211,0.946045,-0.762939,38.486328
16600,8.805874,-0.742203,-4.338294,0.366211,1.556396,-1.312256,38.488281
16640,8.796297,-0.718261,-4.338294,0.640869,1.617432,-1.495361,38.462891
16680,8.820239,-0.703895,-4.328717,0.823975,1.556396,-1.281738,38.468750
16720,8.839393,-0.679953,-4.309563,0.793457,1.892090,-1.129150,38.457031
16760,8.810662,-0.656011,-4.295198,0.579834,1.831055,-1.098633,38.505859
16800,8.820239,-0.646434,-4.285621,0.274658,2.227783,-0.976562,38.476562
16840,8.815451,-0.632069,-4.285621,-0.122070,2.380371,-0.762939,38.478516
16880,8.839393,-0.636858,-4.266468,-0.213623,2.380371,-0.854492,38.482422
16920,8.848969,-0.636858,-4.232949,-0.427246,2.288818,-0.640869,38.482422
16960,8.844181,-0.622492,-4.213795,-0.762939,2.044678,-0.152588,38.476562
17000,8.858546,-0.603339,-4.204218,-0.854492,2.288818,-0.335693,38.476562
17040,8.892065,-0.588974,-4.204218,-1.037598,2.593994,-0.335693,38.478516
17080,8.887277,-0.569820,-4.189853,-1.892090,2.716064,-0.183105,38.462891
17120,8.868123,-0.574608,-4.189853,-1.617432,2.868652,-0.640869,38.486328
17160,8.844181,-0.550666,-4.218584,-1.617432,1.953125,-0.488281,38.457031
17200,8.877700,-0.531513,-4.199430,-2.532959,1.647949,-0.030518,38.492188
17240,8.882488,-0.560243,-4.165911,-2.990723,0.793457,0.366211,38.484375
17280,8.872911,-0.593762,-4.108450,-3.387451,0.976562,0.518799,38.455078
17320,8.892065,-0.608127,-4.098873,-3.417969,0.762939,0.549316,38.476562
17360,8.896853,-0.617704,-4.094085,-2.929688,0.793457,0.457764,38.507812
17400,8.863335,-0.603339,-4.118027,-2.075195,-0.579834,0.701904,38.498047
17440,8.868123,-0.569820,-4.137180,-2.227783,-1.159668,0.854492,38.482422
17480,8.896853,-0.545878,-4.141969,-2.655029,-1.129150,0.885010,38.482422
17520,8.882488,-0.565032,-4.161122,-2.593994,-1.983643,0.946045,38.468750
17560,8.853758,-0.612916,-4.156334,-2.593994,-2.838135,1.312256,38.488281
17600,8.868123,-0.622492,-4.175488,-2.502441,-3.051758,1.434326,38.476562
17640,8.877700,-0.598550,-4.185065,-2.471924,-3.356934,1.434326,38.472656
17680,8.872911,-0.608127,-4.151546,-1.922607,-2.990723,1.098633,38.482422
17720,8.911219,-0.632069,-4.161122,-1.312256,-2.258301,0.762939,38.484375
17760,8.920795,-0.632069,-4.175488,-0.915527,-1.342773,0.579834,38.494141
17800,8.868123,-0.612916,-4.204218,-0.549316,-1.312256,0.488281,38.505859
17840,8.868123,-0.598550,-4.218584,-0.457764,-0.640869,0.610352,38.486328
17880,8.877700,-0.579397,-4.232949,-1.525879,0.091553,0.762939,38.464844
17920,8.844181,-0.603339,-4.228160,-1.464844,0.396729,1.037598,38.482422
17960,8.839393,-0.617704,-4.242526,-1.159668,0.396729,1.129150,38.486328
18000,8.844181,-0.632069,-4.252102,-1.373291,0.152588,1.525879,38.470703
18040,8.844181,-0.636858,-4.232949,-1.098633,0.305176,1.129150,38.498047
18080,8.829816,-0.651223,-4.228160,-0.946045,0.274658,0.946045,38.488281
18120,8.829816,-0.641646,-4.242526,-0.396729,-0.122070,0.793457,38.505859
18160,8.853758,-0.627281,-4.237737,-0.305176,0.091553,0.671387,38.486328
18200,8.848969,-0.588974,-4.256891,-0.762939,0.152588,0.640869,38.482422
18240,8.839393,-0.560243,-4.280833,-1.220703,0.030518,0.701904,38.472656
18280,8.844181,-0.569820,-4.266468,-1.739502,0.030518,0.976562,38.484375
18320,8.839393,-0.598550,-4.242526,-2.105713,-0.061035,1.007080,38.480469
18360,8.848969,-0.651223,-4.228160,-2.136230,-0.183105,0.946045,38.468750
18400,8.868123,-0.694318,-4.218584,-1.373291,0.427246,0.396729,38.478516
18440,8.872911,-0.703895,-4.228160,-0.213623,0.946045,-0.183105,38.480469
18480,8.848969,-0.679953,-4.218584,0.518799,0.976562,-0.549316,38.472656
18520,8.853758,-0.646434,-4.213795,0.793457,1.037598,-0.579834,38.482422
18560,8.844181,-0.636858,-4.228160,1.037598,0.488281,-0.762939,38.478516
18600,8.848969,-0.656011,-4.232949,1.251221,0.396729,-0.701904,38.494141
18640,8.839393,-0.651223,-4.247314,1.495361,0.213623,-0.427246,38.474609
18680,8.853758,-0.656011,-4.223372,1.434326,0.427246,-0.793457,38.484375
18720,8.844181,-0.641646,-4.232949,1.373291,0.335693,-0.671387,38.492188
18760,8.834604,-0.636858,-4.218584,1.495361,-0.213623,-0.885010,38.472656
18800,8.872911,-0.641646,-4.223372,1.403809,0.091553,-0.915527,38.492188
18840,8.901642,-0.627281,-4.223372,1.312256,1.068115,-0.885010,38.488281
18880,8.872911,-0.627281,-4.218584,0.946045,1.525879,-1.220703,38.488281
18920,8.844181,-0.641646,-4.228160,0.701904,1.892090,-1.098633,38.472656
18960,8.868123,-0.641646,-4.228160,0.885010,2.227783,-1.068115,38.494141
19000,8.872911,-0.646434,-4.213795,0.732422,2.502441,-1.586914,38.478516
19040,8.848969,-0.670376,-4.146757,0.793457,2.502441,-1.556396,38.460938
19080,8.872911,-0.660800,-4.127604,0.854492,1.892090,-0.915527,38.492188
19120,8.882488,-0.603339,-4.170700,0.549316,1.159668,-0.305176,38.488281
19160,8.887277,-0.617704,-4.151546,0.152588,0.793457,-0.183105,38.474609
19200,8.901642,-0.617704,-4.127604,0.091553,0.518799,0.274658,38.500000
19240,8.882488,-0.598550,-4.122815,-0.244141,0.244141,0.152588,38.478516
19280,8.892065,-0.608127,-4.103662,-0.396729,0.396729,0.122070,38.490234
19320,8.906430,-0.603339,-4.098873,-0.671387,0.671387,0.183105,38.484375
19360,8.887277,-0.608127,-4.098873,-0.823975,-0.152588,0.213623,38.486328
19400,8.896853,-0.641646,-4.103662,-0.518799,-0.640869,0.061035,38.476562
19440,8.930372,-0.641646,-4.108450,-0.213623,0.091553,-0.213623,38.484375
19480,8.935161,-0.617704,-4.103662,-0.305176,0.549316,-0.183105,38.486328
19520,8.896853,-0.608127,-4.113238,-0.518799,0.061035,-0.091553,38.466797
19560,8.887277,-0.622492,-4.103662,-0.396729,-0.335693,0.244141,38.492188
19600,8.911219,-0.622492,-4.122815,-0.396729,-0.152588,0.122070,38.482422
19640,8.896853,-0.651223,-4.108450,0.030518,-0.061035,-0.091553,38.492188
19680,8.877700,-0.656011,-4.122815,0.305176,-0.762939,0.061035,38.476562
19720,8.920795,-0.651223,-4.113238,0.457764,-0.671387,-0.091553,38.496094
19760,8.930372,-0.646434,-4.089296,0.610352,0.152588,-0.274658,38.484375
19800,8.901642,-0.627281,-4.098873,0.671387,0.091553,-0.457764,38.462891
19840,8.887277,-0.617704,-4.094085,0.640869,-0.213623,-0.640869,38.498047
19880,8.906430,-0.632069,-4.098873,0.640869,-0.030518,-0.671387,38.480469
19920,8.920795,-0.651223,-4.098873,0.885010,0.122070,-0.549316,38.472656
19960,8.906430,-0.656011,-4.103662,0.946045,0.366211,-0.335693,38.486328
20000,8.877700,-0.641646,-4.113238,0.671387,-0.091553,-0.213623,38.492188
20040,8.892065,-0.622492,-4.108450,0.640869,-0.549316,0.000000,38.478516
20080,8.911219,-0.617704,-4.108450,0.305176,0.000000,-0.152588,38.511719
20120,8.906430,-0.608127,-4.108450,-0.030518,-0.274658,0.000000,38.498047
20160,8.863335,-0.608127,-4.113238,-0.274658,-0.976562,0.152588,38.505859
20200,8.887277,-0.632069,-4.108450,-0.305176,-1.098633,0.061035,38.482422
20240,8.925584,-0.636858,-4.103662,-0.183105,-0.549316,-0.183105,38.492188
20280,8.896853,-0.641646,-4.098873,-0.122070,-0.610352,-0.274658,38.457031
20320,8.901642,-0.656011,-4.103662,-0.213623,-0.793457,-0.244141,38.492188
20360,8.911219,-0.627281,-4.113238,-0.396729,-0.305176,0.030518,38.492188
20400,8.896853,-0.622492,-4.141969,-0.305176,-0.549316,0.152588,38.486328
20440,8.906430,-0.651223,-4.127604,-0.183105,-0.183105,0.091553,38.496094
20480,8.872911,-0.641646,-4.161122,-0.152588,-0.549316,-0.152588,38.511719
20520,8.863335,-0.665588,-4.151546,0.366211,-0.671387,-0.366211,38.511719
20560,8.882488,-0.679953,-4.161122,0.946045,-0.488281,-0.549316,38.488281
20600,8.901642,-0.699107,-4.165911,1.800537,-0.030518,-0.640869,38.496094
20640,8.877700,-0.723049,-4.151546,2.685547,-0.152588,-0.854492,38.482422
20680,8.844181,-0.727837,-4.146757,3.356934,-0.854492,-1.159668,38.486328
20720,8.858546,-0.732626,-4.165911,4.058838,-0.976562,-1.251221,38.486328
20760,8.877700,-0.703895,-4.165911,4.852295,-1.068115,-1.312256,38.500000
20800,8.882488,-0.684742,-4.151546,4.852295,-0.915527,-1.129150,38.492188
20840,8.882488,-0.679953,-4.161122,4.699707,-0.946045,-1.007080,38.509766
20880,8.877700,-0.670376,-4.175488,4.486084,-0.823975,-0.701904,38.482422
20920,8.877700,-0.656011,-4.170700,4.058838,-0.488281,-0.946045,38.470703
20960,8.863335,-0.656011,-4.165911,3.417969,-0.579834,-0.946045,38.484375
21000,8.853758,-0.656011,-4.161122,2.868652,-0.946045,-0.671387,38.492188
21040,8.896853,-0.656011,-4.151546,2.319336,-0.122070,-0.427246,38.496094
21080,8.901642,-0.656011,-4.156334,1.739502,0.549316,-0.457764,38.496094
21120,8.872911,-0.665588,-4.170700,1.007080,0.274658,-0.274658,38.515625
21160,8.863335,-0.665588,-4.170700,0.549316,0.366211,-0.152588,38.498047
21200,8.877700,-0.679953,-4.161122,0.244141,0.762939,-0.335693,38.501953
21240,8.868123,-0.689530,-4.170700,-0.091553,0.427246,-0.305176,38.500000
21280,8.863335,-0.684742,-4.165911,-0.366211,0.335693,-0.305176,38.505859
21320,8.858546,-0.679953,-4.175488,-0.518799,-0.366211,-0.122070,38.509766
21360,8.882488,-0.699107,-4.161122,-0.946045,-0.183105,0.061035,38.488281
21400,8.877700,-0.708684,-4.156334,-1.068115,-0.305176,0.152588,38.501953
21440,8.848969,-0.708684,-4.156334,-0.823975,-0.518799,-0.061035,38.509766
21480,8.872911,-0.703895,-4.146757,-0.823975,-0.762939,-0.091553,38.503906
21520,8.906430,-0.699107,-4.137180,-0.732422,0.305176,-0.122070,38.500000
21560,8.872911,-0.713472,-4.151546,-0.610352,0.152588,-0.122070,38.494141
21600,8.868123,-0.694318,-4.165911,-0.488281,-0.518799,-0.122070,38.496094
21640,8.892065,-0.684742,-4.151546,-0.518799,-0.152588,-0.213623,38.498047
21680,8.896853,-0.675165,-4.137180,-0.396729,0.122070,-0.274658,38.509766
21720,8.887277,-0.679953,-4.141969,-0.244141,0.366211,-0.518799,38.507812
21760,8.887277,-0.675165,-4.146757,-0.396729,0.579834,-0.549316,38.496094
21800,8.882488,-0.665588,-4.161122,-0.427246,0.305176,-0.396729,38.503906
21840,8.882488,-0.651223,-4.156334,-0.457764,0.579834,-0.610352,38.484375
21880,8.896853,-0.646434,-4.156334,-0.549316,0.885010,-0.701904,38.507812
21920,8.882488,-0.651223,-4.161122,-0.488281,0.915527,-0.823975,38.488281
21960,8.858546,-0.670376,-4.165911,-0.427246,0.518799,-0.793457,38.462891
22000,8.877700,-0.670376,-4.156334,-0.274658,0.701904,-0.885010,38.498047
22040,8.906430,-0.670376,-4.146757,-0.183105,0.762939,-0.946045,38.482422
22080,8.892065,-0.660800,-4.137180,-0.091553,1.007080,-0.793457,38.498047
22120,8.887277,-0.651223,-4.132392,0.000000,0.854492,-0.854492,38.501953
22160,8.882488,-0.646434,-4.118027,-0.183105,0.823975,-0.701904,38.500000
22200,8.877700,-0.632069,-4.089296,-0.091553,0.579834,-0.610352,38.468750
22240,8.877700,-0.656011,-4.113238,0.152588,-0.305176,-0.122070,38.492188
22280,8.911219,-0.679953,-4.113238,-0.152588,-0.213623,-0.091553,38.486328
22320,8.901642,-0.660800,-4.103662,0.427246,0.000000,-0.061035,38.496094
22360,8.887277,-0.627281,-4.113238,0.091553,-0.671387,0.305176,38.490234
22400,8.906430,-0.617704,-4.122815,-0.305176,-0.701904,0.396729,38.501953
22440,8.887277,-0.632069,-4.122815,-0.213623,-0.640869,0.244141,38.496094
22480,8.882488,-0.651223,-4.127604,-0.183105,-0.640869,0.335693,38.486328
22520,8.892065,-0.656011,-4.141969,0.030518,-0.946045,0.335693,38.498047
22560,8.896853,-0.651223,-4.132392,-0.122070,-0.671387,0.274658,38.496094
22600,8.892065,-0.656011,-4.151546,-0.183105,-0.854492,0.366211,38.496094
22640,8.872911,-0.656011,-4.156334,-0.244141,-1.220703,0.335693,38.511719
22680,8.863335,-0.660800,-4.146757,-0.274658,-1.464844,0.396729,38.503906
22720,8.887277,-0.660800,-4.146757,-0.244141,-1.159668,0.305176,38.482422
22760,8.882488,-0.670376,-4.151546,-0.457764,-1.007080,0.183105,38.492188
22800,8.872911,-0.675165,-4.151546,-0.640869,-0.946045,0.244141,38.492188
22840,8.877700,-0.670376,-4.161122,-0.762939,-0.915527,0.518799,38.505859
22880,8.868123,-0.679953,-4.170700,-0.823975,-1.068115,0.396729,38.507812
22920,8.868123,-0.699107,-4.185065,-0.885010,-0.915527,0.701904,38.492188
22960,8.877700,-0.679953,-4.189853,-0.976562,-0.488281,0.762939,38.492188
23000,8.858546,-0.670376,-4.185065,-1.251221,-0.549316,0.793457,38.501953
23040,8.853758,-0.694318,-4.180276,-1.403809,-0.274658,0.854492,38.478516
23080,8.858546,-0.694318,-4.199430,-1.129150,-0.366211,0.701904,38.496094
23120,8.877700,-0.703895,-4.209007,-0.854492,-0.366211,0.549316,38.480469
23160,8.844181,-0.684742,-4.213795,-1.251221,-0.549316,0.610352,38.511719
23200,8.820239,-0.694318,-4.213795,-1.037598,-1.037598,0.457764,38.507812
23240,8.858546,-0.708684,-4.213795,-0.701904,-0.701904,0.213623,38.496094
23280,8.882488,-0.723049,-4.223372,-0.213623,-0.213623,0.183105,38.486328
23320,8.834604,-0.742203,-4.223372,0.152588,-0.366211,-0.244141,38.490234
23360,8.829816,-0.737414,-4.228160,0.213623,-0.457764,-0.335693,38.511719
23400,8.858546,-0.708684,-4.232949,0.488281,-0.213623,-0.488281,38.496094
23440,8.853758,-0.694318,-4.228160,0.488281,0.152588,-0.488281,38.500000
23480,8.834604,-0.703895,-4.237737,0.396729,-0.183105,-0.457764,38.486328
23520,8.834604,-0.694318,-4.242526,0.457764,0.000000,-0.488281,38.492188
23560,8.829816,-0.689530,-4.247314,0.244141,-0.091553,-0.335693,38.482422
23600,8.829816,-0.694318,-4.247314,0.122070,-0.213623,-0.091553,38.472656
23640,8.834604,-0.699107,-4.256891,-0.122070,-0.305176,0.000000,38.476562
23680,8.839393,-0.694318,-4.242526,-0.244141,-0.335693,0.061035,38.496094
23720,8.839393,-0.703895,-4.242526,-0.244141,-0.457764,0.152588,38.482422
23760,8.834604,-0.699107,-4.232949,-0.244141,-0.366211,0.030518,38.521484
23800,8.834604,-0.699107,-4.242526,-0.244141,-0.335693,0.030518,38.482422
23840,8.839393,-0.703895,-4.242526,-0.183105,-0.122070,0.000000,38.503906
23920,8.839393,-0.713472,-4.237737,-0.091553,0.061035,-0.213623,38.488281
23960,8.820239,-0.703895,-4.261679,0.000000,-0.366211,-0.457764,38.500000
24000,8.844181,-0.703895,-4.247314,0.244141,-0.152588,-0.640869,38.501953
24040,8.853758,-0.694318,-4.242526,-0.183105,0.396729,-0.640869,38.496094
24080,8.844181,-0.703895,-4.237737,0.000000,0.640869,-0.793457,38.478516
24120,8.848969,-0.689530,-4.242526,0.091553,0.854492,-0.976562,38.488281
24160,8.848969,-0.684742,-4.237737,0.152588,1.312256,-1.007080,38.486328
24200,8.839393,-0.689530,-4.228160,0.244141,1.617432,-1.220703,38.496094
24240,8.839393,-0.694318,-4.223372,0.366211,1.800537,-1.281738,38.500000
24280,8.839393,-0.675165,-4.232949,0.335693,1.434326,-0.976562,38.484375
24320,8.844181,-0.651223,-4.232949,-0.030518,1.281738,-0.701904,38.507812
24360,8.848969,-0.656011,-4.223372,-0.122070,0.946045,-0.640869,38.478516
24400,8.848969,-0.665588,-4.199430,-0.091553,0.549316,-0.640869,38.488281
24440,8.863335,-0.660800,-4.185065,-0.030518,0.427246,-0.549316,38.505859
24480,8.882488,-0.660800,-4.180276,-0.274658,0.579834,-0.427246,38.492188
24520,8.868123,-0.670376,-4.180276,-0.183105,0.274658,-0.457764,38.488281
24560,8.868123,-0.660800,-4.161122,-0.152588,0.122070,-0.396729,38.478516
24600,8.877700,-0.660800,-4.156334,-0.030518,0.213623,-0.488281,38.496094
24640,8.887277,-0.660800,-4.151546,0.122070,0.427246,-0.701904,38.515625
24680,8.906430,-0.656011,-4.151546,0.366211,0.732422,-0.885010,38.490234
24720,8.901642,-0.646434,-4.151546,0.396729,1.037598,-1.007080,38.500000
24760,8.896853,-0.627281,-4.151546,0.305176,1.220703,-1.068115,38.478516
24800,8.896853,-0.603339,-4.151546,0.122070,1.312256,-1.098633,38.494141
24840,8.896853,-0.603339,-4.132392,0.000000,1.556396,-1.281738,38.498047
24880,8.906430,-0.617704,-4.122815,0.427246,1.495361,-1.464844,38.496094
24920,8.935161,-0.636858,-4.113238,-0.183105,2.197266,-1.434326,38.490234
24960,8.906430,-0.627281,-4.118027,0.152588,2.166748,-1.647949,38.507812
25000,8.868123,-0.627281,-4.118027,0.213623,1.312256,-1.159668,38.503906
25040,8.906430,-0.603339,-4.118027,0.183105,1.342773,-1.037598,38.494141
25080,8.920795,-0.598550,-4.094085,0.152588,1.495361,-0.946045,38.492188
25120,8.896853,-0.593762,-4.079720,-0.183105,1.342773,-0.610352,38.496094
25160,8.877700,-0.584185,-4.074931,-0.152588,0.244141,-0.244141,38.480469
25200,8.901642,-0.588974,-4.079720,-0.396729,-0.213623,0.122070,38.482422
25240,8.925584,-0.584185,-4.074931,-0.488281,-0.183105,0.091553,38.500000
25280,8.906430,-0.565032,-4.065354,-0.640869,-0.396729,0.213623,38.507812
25320,8.896853,-0.579397,-4.084508,-0.854492,-1.129150,0.549316,38.501953
25360,8.906430,-0.588974,-4.084508,-0.915527,-1.556396,0.549316,38.478516
25400,8.930372,-0.598550,-4.070143,-0.793457,-1.556396,0.671387,38.482422
25440,8.944737,-0.598550,-4.065354,-0.671387,-1.342773,0.518799,38.476562
25480,8.944737,-0.598550,-4.055778,-0.732422,-0.732422,0.457764,38.488281
25520,8.911219,-0.593762,-4.084508,-0.427246,-0.915527,0.488281,38.480469
25560,8.906430,-0.617704,-4.098873,-0.335693,-1.220703,0.396729,38.480469
25600,8.930372,-0.622492,-4.089296,-0.122070,-0.701904,0.183105,38.488281
25640,8.916007,-0.608127,-4.094085,-0.061035,-0.579834,0.274658,38.496094
25680,8.901642,-0.612916,-4.103662,-0.122070,-0.610352,0.183105,38.492188
25720,8.901642,-0.603339,-4.113238,-0.152588,-0.579834,0.152588,38.488281
25760,8.896853,-0.598550,-4.122815,0.061035,-0.732422,0.213623,38.500000
25800,8.887277,-0.612916,-4.122815,-0.335693,-0.701904,0.366211,38.490234
25840,8.887277,-0.622492,-4.132392,-0.244141,-0.946045,0.305176,38.466797
25880,8.925584,-0.603339,-4.118027,0.091553,-0.244141,-0.091553,38.501953
25920,8.906430,-0.608127,-4.122815,0.030518,-0.427246,0.061035,38.492188
25960,8.911219,-0.608127,-4.113238,0.213623,0.061035,-0.091553,38.531250
26000,8.906430,-0.608127,-4.132392,0.244141,0.305176,-0.305176,38.496094
26040,8.901642,-0.593762,-4.127604,0.183105,0.488281,-0.457764,38.515625
26080,8.892065,-0.603339,-4.122815,0.183105,0.274658,-0.396729,38.501953
26120,8.887277,-0.612916,-4.127604,0.152588,0.152588,-0.244141,38.498047
26160,8.901642,-0.612916,-4.127604,0.030518,0.366211,-0.244141,38.515625
26200,8.887277,-0.603339,-4.132392,-0.366211,0.396729,0.091553,38.507812
26240,8.882488,-0.593762,-4.137180,-0.488281,0.122070,0.213623,38.492188
26280,8.892065,-0.617704,-4.132392,-0.610352,0.183105,0.122070,38.507812
26320,8.877700,-0.622492,-4.122815,-0.610352,0.030518,0.183105,38.507812
26360,8.863335,-0.608127,-4.137180,-0.579834,-0.671387,0.305176,38.507812
26400,8.906430,-0.608127,-4.127604,-0.518799,-0.610352,0.213623,38.505859
26440,8.916007,-0.617704,-4.137180,-0.457764,-0.244141,0.152588,38.517578
26480,8.896853,-0.612916,-4.127604,-0.549316,-0.640869,0.366211,38.500000
26520,8.887277,-0.593762,-4.137180,-0.976562,-0.579834,0.488281,38.500000
26560,8.901642,-0.593762,-4.132392,-1.220703,-0.427246,0.549316,38.511719
26600,8.882488,-0.612916,-4.141969,-1.068115,-0.671387,0.579834,38.500000
26640,8.872911,-0.636858,-4.151546,-0.518799,-1.129150,0.579834,38.505859
26680,8.906430,-0.651223,-4.132392,-0.427246,-0.610352,0.335693,38.505859
26720,8.887277,-0.660800,-4.132392,-0.091553,-0.671387,0.305176,38.476562
26760,8.882488,-0.651223,-4.146757,0.183105,-0.610352,0.122070,38.501953
26800,8.896853,-0.641646,-4.156334,0.396729,-0.335693,0.061035,38.515625
26840,8.887277,-0.646434,-4.161122,0.640869,-0.122070,-0.122070,38.501953
26880,8.863335,-0.660800,-4.165911,0.762939,-0.305176,-0.305176,38.511719
26920,8.868123,-0.651223,-4.175488,0.854492,-0.549316,-0.427246,38.486328
26960,8.863335,-0.641646,-4.185065,0.823975,-0.274658,-0.335693,38.498047
27000,8.858546,-0.660800,-4.194642,0.854492,-0.457764,-0.366211,38.509766
27040,8.872911,-0.660800,-4.199430,0.701904,-0.335693,-0.457764,38.517578
27080,8.858546,-0.646434,-4.199430,0.488281,-0.335693,-0.305176,38.507812
27120,8.872911,-0.656011,-4.189853,0.366211,-0.396729,-0.427246,38.505859
27160,8.892065,-0.660800,-4.170700,0.244141,0.305176,-0.549316,38.501953
27200,8.877700,-0.641646,-4.175488,0.061035,0.549316,-0.457764,38.492188
27240,8.887277,-0.641646,-4.161122,-0.061035,0.823975,-0.488281,38.517578
27280,8.896853,-0.656011,-4.156334,-0.183105,1.708984,-0.396729,38.492188
27320,8.877700,-0.651223,-4.161122,-0.122070,1.525879,-0.488281,38.500000
27360,8.877700,-0.656011,-4.161122,-0.030518,1.068115,-0.610352,38.496094
27400,8.906430,-0.651223,-4.141969,0.122070,1.495361,-0.671387,38.505859
27440,8.906430,-0.632069,-4.122815,0.213623,1.678467,-0.793457,38.503906
27480,8.906430,-0.622492,-4.113238,0.061035,1.770020,-0.671387,38.496094
27520,8.896853,-0.617704,-4.118027,0.183105,1.403809,-0.793457,38.496094
27560,8.906430,-0.632069,-4.118027,0.579834,1.220703,-0.823975,38.511719
27600,8.911219,-0.608127,-4.098873,0.183105,1.281738,-0.610352,38.517578
27640,8.911219,-0.612916,-4.094085,0.183105,1.617432,-0.579834,38.496094
27680,8.906430,-0.603339,-4.098873,0.305176,0.976562,-0.488281,38.492188
27720,8.920795,-0.617704,-4.089296,0.396729,1.068115,-0.701904,38.498047
27760,8.916007,-0.632069,-4.070143,0.762939,1.037598,-0.976562,38.521484
27800,8.892065,-0.617704,-4.074931,0.732422,0.549316,-0.976562,38.498047
27840,8.896853,-0.612916,-4.079720,0.854492,0.030518,-0.640869,38.509766
27880,8.930372,-0.603339,-4.065354,0.610352,0.061035,-0.671387,38.515625
27920,8.916007,-0.612916,-4.055778,0.640869,-0.457764,-0.701904,38.521484
27960,8.892065,-0.598550,-4.050989,0.335693,-0.946045,-0.183105,38.498047
28000,8.925584,-0.574608,-4.060566,-0.091553,-1.159668,0.030518,38.511719
28040,8.954314,-0.574608,-4.050989,-0.335693,-0.671387,0.061035,38.511719
28080,8.930372,-0.574608,-4.050989,-0.549316,-0.427246,0.091553,38.509766
28120,8.916007,-0.593762,-4.065354,-0.640869,-0.610352,0.122070,38.505859
28160,8.930372,-0.612916,-4.084508,-0.640869,-0.366211,0.152588,38.505859
28200,8.920795,-0.622492,-4.089296,-0.579834,-0.366211,0.183105,38.505859
28240,8.896853,-0.622492,-4.084508,-0.427246,-0.793457,0.213623,38.519531
28280,8.920795,-0.627281,-4.089296,-0.305176,-0.671387,0.122070,38.496094
28320,8.930372,-0.608127,-4.098873,-0.213623,-0.488281,0.061035,38.523438
28360,8.906430,-0.608127,-4.094085,-0.152588,-0.793457,0.152588,38.503906
28400,8.906430,-0.612916,-4.098873,-0.305176,-0.610352,0.122070,38.527344
28440,8.901642,-0.608127,-4.118027,-0.152588,-0.915527,0.335693,38.492188
28480,8.906430,-0.608127,-4.137180,0.091553,-1.159668,0.396729,38.517578
28520,8.911219,-0.608127,-4.118027,-0.335693,-0.885010,-0.091553,38.517578
28560,8.882488,-0.627281,-4.108450,-0.030518,-1.068115,0.000000,38.509766
28600,8.901642,-0.608127,-4.113238,-0.122070,-1.068115,-0.122070,38.505859
28640,8.930372,-0.608127,-4.127604,0.000000,-0.518799,-0.213623,38.492188
28680,8.911219,-0.632069,-4.118027,0.152588,-0.122070,-0.366211,38.501953
28720,8.901642,-0.641646,-4.118027,0.091553,0.152588,-0.457764,38.505859
28760,8.906430,-0.627281,-4.141969,0.183105,0.305176,-0.396729,38.505859
28800,8.896853,-0.641646,-4.141969,0.122070,0.335693,-0.305176,38.498047
28840,8.877700,-0.641646,-4.146757,0.183105,0.030518,-0.152588,38.511719
28880,8.868123,-0.641646,-4.146757,0.335693,-0.091553,-0.183105,38.519531
28920,8.892065,-0.641646,-4.141969,0.366211,-0.061035,-0.244141,38.505859
28960,8.892065,-0.622492,-4.151546,0.183105,-0.091553,-0.183105,38.527344
29000,8.896853,-0.617704,-4.137180,-0.030518,0.122070,-0.030518,38.541016
29040,8.892065,-0.608127,-4.137180,-0.335693,0.122070,0.091553,38.525391
29080,8.877700,-0.598550,-4.141969,-0.701904,-0.152588,0.183105,38.492188
29120,8.892065,-0.617704,-4.141969,-0.701904,-0.244141,-0.091553,38.527344
29160,8.901642,-0.627281,-4.132392,-0.823975,0.061035,-0.091553,38.519531
29200,8.896853,-0.627281,-4.137180,-0.732422,-0.061035,-0.030518,38.501953
29240,8.906430,-0.641646,-4.132392,-0.579834,0.091553,-0.152588,38.515625
29280,8.892065,-0.641646,-4.132392,-0.457764,0.152588,-0.183105,38.521484
29320,8.896853,-0.627281,-4.127604,-0.396729,0.122070,-0.183105,38.517578
29360,8.896853,-0.622492,-4.132392,-0.213623,0.030518,-0.427246,38.505859
29400,8.892065,-0.636858,-4.146757,0.274658,-0.091553,-0.396729,38.523438
29440,8.896853,-0.627281,-4.132392,0.000000,0.030518,-0.305176,38.525391
29480,8.896853,-0.636858,-4.122815,0.244141,0.061035,-0.213623,38.527344
29520,8.920795,-0.627281,-4.127604,0.335693,0.366211,-0.274658,38.515625
29560,8.901642,-0.608127,-4.137180,0.335693,0.640869,-0.061035,38.509766
29600,8.887277,-0.612916,-4.127604,0.213623,0.732422,-0.244141,38.501953
29640,8.882488,-0.622492,-4.118027,0.091553,0.396729,-0.152588,38.509766
29680,8.882488,-0.612916,-4.122815,0.122070,0.183105,-0.152588,38.517578
29720,8.896853,-0.598550,-4.127604,-0.091553,0.335693,-0.152588,38.507812
29760,8.892065,-0.598550,-4.122815,-0.305176,0.274658,-0.061035,38.525391
29800,8.906430,-0.608127,-4.122815,-0.305176,0.335693,-0.183105,38.523438
29840,8.901642,-0.603339,-4.113238,-0.579834,0.244141,-0.244141,38.509766
29880,8.892065,-0.608127,-4.122815,-0.549316,0.061035,-0.091553,38.521484
29920,8.896853,-0.608127,-4.113238,-0.396729,-0.274658,-0.274658,38.515625
29960,8.906430,-0.622492,-4.108450,-0.213623,-0.427246,-0.488281,38.537109
30000,8.911219,-0.636858,-4.103662,-0.061035,-0.335693,-0.579834,38.511719
30040,8.916007,-0.632069,-4.098873,0.335693,0.152588,-0.762939,38.521484
30080,8.920795,-0.636858,-4.103662,0.610352,0.610352,-0.946045,38.501953
30120,8.901642,-0.617704,-4.103662,0.671387,0.732422,-0.732422,38.527344
30160,8.911219,-0.593762,-4.098873,0.427246,0.701904,-0.457764,38.507812
30200,8.935161,-0.588974,-4.084508,0.183105,1.190186,-0.488281,38.531250
30240,8.935161,-0.588974,-4.070143,0.244141,1.525879,-0.549316,38.525391
30280,8.916007,-0.574608,-4.070143,0.183105,1.495361,-0.518799,38.529297
30320,8.944737,-0.541090,-4.070143,-0.244141,1.739502,-0.549316,38.544922
30360,8.925584,-0.541090,-4.055778,-0.305176,1.464844,-0.396729,38.523438
30400,8.939949,-0.555455,-4.046201,-0.640869,1.220703,-0.305176,38.525391
30440,8.944737,-0.555455,-4.036624,-1.159668,1.495361,-0.122070,38.537109
30480,8.920795,-0.574608,-4.036624,-0.976562,1.403809,-0.091553,38.515625
30520,8.939949,-0.579397,-4.036624,-0.823975,0.885010,-0.213623,38.521484
30560,8.949526,-0.584185,-4.022259,-0.823975,1.312256,-0.061035,38.535156
30600,8.949526,-0.588974,-4.007894,-0.457764,1.190186,-0.274658,38.525391
30640,8.963891,-0.593762,-3.983952,0.061035,1.525879,-0.701904,38.515625
30680,8.954314,-0.598550,-3.988740,0.366211,1.434326,-0.671387,38.515625
30720,8.939949,-0.569820,-3.998317,0.274658,0.701904,-0.457764,38.513672
30760,8.939949,-0.574608,-3.988740,0.366211,-0.122070,-0.213623,38.503906
30800,8.930372,-0.574608,-3.979163,0.366211,-0.549316,-0.061035,38.517578
30840,8.939949,-0.574608,-3.983952,0.457764,-1.129150,-0.091553,38.505859
30880,8.959103,-0.584185,-3.983952,0.671387,-1.159668,-0.274658,38.527344
30920,8.963891,-0.584185,-3.983952,0.640869,-1.068115,-0.305176,38.525391
30960,8.968679,-0.574608,-3.979163,0.518799,-0.854492,-0.305176,38.515625
31000,8.978256,-0.569820,-3.983952,0.457764,-0.274658,-0.213623,38.521484
31040,8.968679,-0.579397,-4.007894,0.213623,-0.518799,-0.122070,38.511719
31080,8.963891,-0.574608,-3.998317,0.152588,-0.335693,-0.091553,38.546875
31120,8.949526,-0.579397,-4.012682,0.122070,-0.427246,0.000000,38.517578
31160,8.935161,-0.593762,-4.027047,0.152588,-0.732422,0.061035,38.521484
31200,8.939949,-0.603339,-4.027047,0.061035,-0.976562,0.335693,38.537109
31240,8.935161,-0.574608,-4.036624,-0.488281,-1.220703,0.854492,38.501953
31280,8.939949,-0.545878,-4.041412,-0.823975,-0.885010,0.671387,38.517578
31320,8.920795,-0.555455,-4.050989,-1.068115,-1.617432,0.610352,38.509766
31360,8.920795,-0.574608,-4.065354,-0.915527,-1.586914,0.701904,38.521484
31400,8.925584,-0.584185,-4.074931,-1.159668,-1.983643,0.640869,38.517578
31440,8.939949,-0.617704,-4.046201,-1.037598,-1.007080,0.366211,38.501953
31480,8.939949,-0.617704,-4.060566,-0.854492,-0.762939,0.213623,38.515625
31520,8.916007,-0.632069,-4.084508,-0.793457,-1.129150,0.671387,38.535156
31560,8.892065,-0.636858,-4.094085,-0.488281,-1.464844,0.854492,38.533203
31600,8.906430,-0.627281,-4.089296,-0.518799,-1.525879,0.762939,38.517578
31640,8.892065,-0.603339,-4.108450,-0.732422,-1.373291,0.549316,38.535156
31680,8.868123,-0.588974,-4.118027,-0.854492,-1.922607,0.885010,38.529297
31720,8.872911,-0.598550,-4.132392,-0.885010,-2.441406,1.007080,38.519531
31760,8.901642,-0.617704,-4.113238,-1.007080,-1.983643,0.732422,38.500000
31800,8.963891,-0.588974,-4.108450,-1.556396,-0.061035,0.213623,38.529297
31840,8.939949,-0.593762,-4.122815,-1.831055,0.976562,0.061035,38.523438
31880,8.892065,-0.622492,-4.146757,-1.831055,1.251221,0.213623,38.527344
31920,8.944737,-0.627281,-4.141969,-1.861572,2.929688,-0.152588,38.527344
31960,8.887277,-0.622492,-4.151546,-1.708984,2.349854,-0.335693,38.511719
32000,8.810662,-0.660800,-4.161122,-1.159668,0.762939,-0.152588,38.525391
32040,8.834604,-0.665588,-4.194642,-0.518799,-1.007080,0.183105,38.521484
32080,8.853758,-0.636858,-4.175488,-0.305176,-2.166748,0.457764,38.531250
32120,8.872911,-0.632069,-4.146757,-0.183105,-1.892090,0.396729,38.523438
32160,8.825027,-0.641646,-4.161122,0.488281,-3.662109,0.579834,38.523438
32200,8.724471,-0.684742,-4.223372,1.464844,-6.011963,1.586914,38.511719
32240,8.724471,-0.694318,-4.266468,1.739502,-8.087158,1.983643,38.509766
32280,8.858546,-0.617704,-4.228160,1.037598,-7.415771,1.647949,38.515625
32320,9.002198,-0.545878,-4.165911,-0.396729,-3.784180,1.007080,38.541016
32360,8.954314,-0.574608,-4.209007,-0.976562,-2.410889,0.457764,38.531250
32400,8.892065,-0.646434,-4.280833,-0.701904,-1.464844,-0.457764,38.527344
32440,8.896853,-0.679953,-4.328717,-0.335693,0.732422,-0.610352,38.505859
32480,8.848969,-0.675165,-4.319140,-0.366211,2.044678,-0.946045,38.517578
32520,8.748413,-0.689530,-4.338294,-0.488281,1.617432,-0.793457,38.531250
32560,8.729259,-0.689530,-4.376601,-0.427246,0.579834,-0.457764,38.535156
32600,8.772355,-0.699107,-4.381389,-0.274658,0.366211,-0.061035,38.509766
32640,8.781932,-0.703895,-4.347870,-0.122070,0.396729,0.030518,38.529297
32680,8.781932,-0.694318,-4.333505,0.091553,0.000000,-0.122070,38.521484
32720,8.777143,-0.675165,-4.338294,0.274658,-0.579834,-0.244141,38.533203
32760,8.796297,-0.689530,-4.333505,0.488281,-0.244141,-0.274658,38.519531
32800,8.820239,-0.699107,-4.328717,0.762939,-0.152588,-0.671387,38.527344
32840,8.801085,-0.679953,-4.319140,0.885010,-0.762939,-0.671387,38.537109
32880,8.825027,-0.622492,-4.304775,0.366211,0.061035,-0.518799,38.517578
32920,8.839393,-0.612916,-4.309563,0.122070,0.366211,-0.762939,38.541016
32960,8.815451,-0.656011,-4.299986,-0.091553,0.457764,-0.732422,38.517578
33000,8.825027,-0.636858,-4.280833,-0.488281,0.701904,-0.427246,38.494141
33040,8.844181,-0.632069,-4.290410,-0.610352,0.885010,-0.396729,38.537109
33080,8.834604,-0.651223,-4.285621,-0.640869,1.312256,-0.396729,38.509766
33120,8.825027,-0.646434,-4.276044,-0.518799,1.495361,-0.366211,38.521484
33160,8.829816,-0.632069,-4.285621,-0.610352,1.647949,-0.244141,38.519531
33200,8.815451,-0.636858,-4.290410,-0.488281,1.037598,-0.213623,38.525391
33240,8.829816,-0.651223,-4.280833,0.122070,0.946045,-0.366211,38.529297
33280,8.805874,-0.646434,-4.266468,-0.183105,0.671387,-0.427246,38.513672
33320,8.801085,-0.646434,-4.266468,0.274658,0.640869,-0.457764,38.537109
33360,8.791509,-0.646434,-4.299986,0.274658,-0.274658,-0.244141,38.535156
33400,8.844181,-0.656011,-4.285621,0.396729,0.152588,-0.396729,38.544922
33440,8.829816,-0.660800,-4.276044,0.671387,0.366211,-0.579834,38.554688
33480,8.829816,-0.641646,-4.266468,0.823975,0.152588,-0.640869,38.546875
33520,8.820239,-0.641646,-4.271256,0.854492,-0.244141,-0.518799,38.517578
33560,8.820239,-0.641646,-4.266468,0.762939,-0.030518,-0.396729,38.537109
33600,8.801085,-0.651223,-4.252102,0.976562,-1.037598,-0.152588,38.537109
33640,8.815451,-0.641646,-4.256891,1.251221,-1.861572,0.000000,38.529297
33680,8.877700,-0.622492,-4.271256,1.037598,-0.671387,-0.518799,38.525391
33720,8.863335,-0.632069,-4.299986,0.152588,0.427246,-0.823975,38.544922
33760,8.825027,-0.612916,-4.280833,-0.213623,0.823975,-0.335693,38.535156
33800,8.834604,-0.627281,-4.285621,-1.098633,0.640869,0.274658,38.535156
33840,8.858546,-0.632069,-4.285621,-1.342773,1.281738,0.335693,38.537109
33880,8.839393,-0.622492,-4.271256,-1.525879,1.586914,0.335693,38.533203
33920,8.825027,-0.622492,-4.256891,-1.739502,1.739502,0.457764,38.542969
33960,8.834604,-0.636858,-4.261679,-1.831055,1.556396,0.457764,38.525391
34000,8.868123,-0.636858,-4.256891,-1.739502,2.349854,0.396729,38.546875
34040,8.844181,-0.622492,-4.232949,-1.861572,2.197266,0.518799,38.531250
34080,8.911219,-0.574608,-4.175488,-2.349854,3.540039,0.244141,38.556641
34120,9.064447,-0.565032,-4.103662,-2.502441,6.805420,-1.129150,38.533203
34160,8.987833,-0.622492,-4.118027,-1.373291,7.904053,-1.495361,38.539062
34200,8.772355,-0.632069,-4.180276,-1.342773,5.249023,-0.152588,38.527344
34240,8.710106,-0.646434,-4.194642,-0.183105,0.915527,0.915527,38.541016
34280,8.839393,-0.656011,-4.108450,0.671387,-0.183105,1.312256,38.531250
34320,8.805874,-0.694318,-4.074931,1.861572,-3.417969,0.946045,38.539062
34360,8.791509,-0.675165,-4.089296,2.868652,-6.134033,0.579834,38.531250
34400,8.954314,-0.593762,-4.070143,3.387451,-5.645752,-0.305176,38.527344
34440,8.963891,-0.579397,-4.041412,3.509521,-4.486084,-0.244141,38.537109
34480,8.939949,-0.617704,-4.060566,3.417969,-3.753662,-0.335693,38.527344
34520,8.963891,-0.622492,-4.098873,2.960205,-2.319336,-0.671387,38.521484
34560,8.930372,-0.632069,-4.122815,2.502441,-1.403809,-0.946045,38.550781
34600,8.901642,-0.636858,-4.151546,2.044678,-0.915527,-0.946045,38.525391
34640,8.858546,-0.636858,-4.180276,1.312256,-0.793457,-0.701904,38.535156
34680,8.834604,-0.632069,-4.199430,0.610352,-1.037598,-0.518799,38.531250
34720,8.839393,-0.670376,-4.194642,0.152588,-1.312256,-0.335693,38.521484
34760,8.868123,-0.703895,-4.209007,-0.030518,-0.915527,-0.213623,38.542969
34800,8.877700,-0.699107,-4.228160,-0.427246,0.122070,0.030518,38.544922
34840,8.834604,-0.675165,-4.237737,-0.885010,-0.061035,0.244141,38.546875
34880,8.829816,-0.684742,-4.252102,-1.190186,-0.183105,0.366211,38.537109
34920,8.844181,-0.699107,-4.228160,-1.312256,0.518799,0.244141,38.546875
34960,8.848969,-0.699107,-4.237737,-1.190186,0.579834,0.183105,38.527344
35000,8.829816,-0.703895,-4.232949,-0.976562,0.244141,0.213623,38.544922
35040,8.844181,-0.718261,-4.232949,-0.762939,0.518799,-0.152588,38.537109
35080,8.848969,-0.742203,-4.237737,-0.030518,0.213623,-0.244141,38.535156
35120,8.868123,-0.732626,-4.213795,-0.091553,0.823975,0.000000,38.525391
35160,8.863335,-0.684742,-4.223372,-0.183105,0.976562,0.122070,38.529297
35200,8.844181,-0.684742,-4.228160,0.244141,0.640869,-0.183105,38.529297
35240,8.829816,-0.689530,-4.218584,0.396729,0.091553,-0.213623,38.529297
35280,8.839393,-0.679953,-4.213795,0.579834,0.091553,-0.183105,38.542969
35320,8.848969,-0.675165,-4.209007,0.549316,-0.213623,-0.274658,38.558594
35360,8.853758,-0.675165,-4.209007,0.518799,-0.091553,-0.091553,38.521484
35400,8.853758,-0.665588,-4.218584,0.427246,-0.335693,0.030518,38.533203
35440,8.844181,-0.675165,-4.213795,0.396729,-0.640869,-0.122070,38.521484
35480,8.848969,-0.679953,-4.189853,0.427246,-0.549316,-0.152588,38.525391
35520,8.844181,-0.670376,-4.204218,0.274658,-0.823975,-0.061035,38.531250
35560,8.848969,-0.670376,-4.218584,0.152588,-0.854492,-0.152588,38.527344
35600,8.863335,-0.684742,-4.218584,0.061035,-0.762939,-0.305176,38.533203
35640,8.844181,-0.679953,-4.218584,0.061035,-0.518799,-0.427246,38.533203
35680,8.839393,-0.679953,-4.232949,-0.183105,-0.610352,-0.335693,38.535156
35720,8.848969,-0.679953,-4.237737,-0.335693,-0.061035,-0.518799,38.537109
35760,8.839393,-0.679953,-4.242526,-0.488281,-0.091553,-0.610352,38.507812
35800,8.820239,-0.694318,-4.237737,-0.122070,-0.457764,-0.885010,38.539062
35840,8.839393,-0.723049,-4.242526,0.274658,-0.305176,-1.129150,38.556641
35880,8.853758,-0.713472,-4.242526,0.732422,-0.183105,-1.190186,38.562500
35920,8.853758,-0.670376,-4.228160,0.701904,0.274658,-1.159668,38.533203
35960,8.829816,-0.651223,-4.223372,0.488281,0.274658,-1.068115,38.533203
36000,8.844181,-0.641646,-4.228160,0.549316,0.030518,-1.312256,38.546875
36040,8.848969,-0.646434,-4.232949,0.701904,0.305176,-1.159668,38.541016
36080,8.858546,-0.646434,-4.223372,0.213623,0.518799,-0.885010,38.548828
36120,8.844181,-0.636858,-4.218584,-0.030518,0.732422,-0.671387,38.550781
36160,8.844181,-0.636858,-4.223372,0.122070,0.640869,-0.671387,38.558594
36200,8.858546,-0.627281,-4.232949,0.030518,0.732422,-0.488281,38.546875
36240,8.863335,-0.608127,-4.213795,-0.305176,1.495361,-0.518799,38.533203
36280,8.848969,-0.603339,-4.209007,-0.549316,1.098633,-0.122070,38.541016
36320,8.863335,-0.617704,-4.209007,-0.305176,1.068115,-0.183105,38.539062
36360,8.877700,-0.641646,-4.204218,-0.213623,1.525879,-0.335693,38.544922
36400,8.872911,-0.646434,-4.199430,-0.091553,1.464844,-0.396729,38.541016
36440,8.863335,-0.651223,-4.189853,0.122070,1.312256,-0.488281,38.548828
36480,8.882488,-0.627281,-4.180276,0.274658,1.342773,-0.518799,38.539062
36520,8.877700,-0.612916,-4.175488,0.488281,1.312256,-0.671387,38.535156
36560,8.877700,-0.622492,-4.165911,0.762939,1.190186,-0.976562,38.537109
36600,8.892065,-0.627281,-4.146757,0.976562,1.373291,-1.037598,38.550781
36640,8.877700,-0.603339,-4.141969,0.946045,1.220703,-1.129150,38.548828
36680,8.892065,-0.608127,-4.137180,0.946045,1.342773,-1.159668,38.554688
36720,8.896853,-0.612916,-4.132392,1.037598,1.251221,-1.342773,38.550781
36760,8.892065,-0.588974,-4.118027,1.129150,0.976562,-1.312256,38.556641
36800,8.911219,-0.584185,-4.103662,1.098633,0.915527,-1.312256,38.533203
36840,8.930372,-0.579397,-4.094085,0.671387,1.037598,-1.281738,38.533203
36880,8.916007,-0.579397,-4.094085,0.549316,0.762939,-1.281738,38.546875
36920,8.916007,-0.584185,-4.084508,0.579834,0.732422,-1.342773,38.537109
36960,8.901642,-0.574608,-4.098873,0.701904,0.183105,-1.281738,38.537109
37000,8.911219,-0.574608,-4.089296,0.579834,-0.030518,-0.915527,38.556641
37040,8.906430,-0.565032,-4.065354,-0.091553,-0.366211,-0.488281,38.527344
37080,8.916007,-0.584185,-4.060566,0.274658,-0.366211,-0.488281,38.544922
37120,8.920795,-0.593762,-4.065354,0.396729,-0.579834,-0.061035,38.560547
37160,8.920795,-0.565032,-4.074931,-0.244141,-0.946045,0.366211,38.548828
37200,8.901642,-0.541090,-4.084508,-0.793457,-1.037598,0.732422,38.544922
37240,8.906430,-0.536301,-4.084508,-0.854492,-0.915527,0.793457,38.550781
37280,8.925584,-0.545878,-4.079720,-0.976562,-0.671387,0.762939,38.521484
37320,8.935161,-0.541090,-4.103662,-1.464844,-0.305176,0.793457,38.576172
37360,8.916007,-0.536301,-4.122815,-1.525879,-0.732422,0.671387,38.541016
37400,8.877700,-0.541090,-4.127604,-1.739502,-0.854492,0.915527,38.542969
37440,8.887277,-0.574608,-4.132392,-1.831055,-1.037598,0.915527,38.541016
37480,8.906430,-0.617704,-4.137180,-1.831055,-0.549316,0.732422,38.541016
37520,8.896853,-0.641646,-4.146757,-1.556396,-0.427246,0.610352,38.568359
37560,8.877700,-0.612916,-4.165911,-1.220703,-0.946045,0.457764,38.525391
37600,8.868123,-0.603339,-4.146757,-0.549316,-1.220703,0.396729,38.556641
37640,8.887277,-0.641646,-4.141969,0.061035,-0.885010,0.061035,38.531250
37680,8.896853,-0.660800,-4.161122,0.518799,-0.457764,-0.396729,38.546875
37720,8.848969,-0.646434,-4.170700,0.732422,-1.220703,-0.122070,38.550781
37760,8.868123,-0.617704,-4.156334,1.037598,-1.129150,-0.030518,38.541016
37800,8.906430,-0.617704,-4.156334,1.098633,-0.732422,-0.091553,38.552734
37840,8.882488,-0.593762,-4.165911,1.007080,-0.854492,-0.183105,38.546875
37880,8.863335,-0.588974,-4.175488,1.068115,-1.007080,-0.152588,38.541016
37920,8.892065,-0.598550,-4.165911,0.732422,-0.732422,-0.213623,38.541016
37960,8.877700,-0.603339,-4.170700,0.518799,-0.823975,-0.122070,38.537109
38000,8.872911,-0.593762,-4.156334,0.366211,-1.007080,-0.122070,38.544922
38040,8.896853,-0.588974,-4.170700,0.183105,-0.549316,0.061035,38.560547
38080,8.911219,-0.593762,-4.185065,-0.030518,0.244141,0.213623,38.533203
38120,8.877700,-0.598550,-4.180276,-0.579834,0.366211,0.274658,38.554688
38160,8.853758,-0.622492,-4.180276,-0.488281,-0.183105,0.488281,38.541016
38200,8.872911,-0.622492,-4.165911,-0.427246,0.335693,0.396729,38.564453
38240,8.892065,-0.603339,-4.170700,-0.579834,0.610352,0.244141,38.542969
38280,8.877700,-0.593762,-4.165911,-0.762939,0.549316,0.152588,38.533203
38320,8.853758,-0.579397,-4.199430,-1.220703,0.305176,0.152588,38.552734
38360,8.863335,-0.569820,-4.223372,-1.617432,0.061035,0.366211,38.537109
38400,8.848969,-0.569820,-4.213795,-2.075195,0.091553,0.579834,38.531250
38440,8.829816,-0.617704,-4.209007,-2.136230,-0.793457,0.640869,38.550781
38480,8.858546,-0.679953,-4.175488,-1.770020,-0.640869,0.671387,38.521484
38520,8.882488,-0.703895,-4.180276,-1.068115,-0.305176,0.183105,38.550781
38560,8.872911,-0.679953,-4.189853,-0.274658,-0.366211,-0.305176,38.535156
38600,8.868123,-0.656011,-4.180276,0.335693,-0.213623,-0.427246,38.541016
38640,8.896853,-0.665588,-4.170700,0.732422,0.488281,-0.518799,38.544922
38680,8.901642,-0.665588,-4.189853,0.885010,1.037598,-0.610352,38.544922
38720,8.872911,-0.670376,-4.189853,0.854492,0.671387,-0.579834,38.541016
38760,8.848969,-0.636858,-4.189853,0.976562,0.305176,-0.488281,38.554688
38800,8.887277,-0.608127,-4.185065,1.159668,0.732422,-0.457764,38.566406
38840,8.863335,-0.584185,-4.204218,0.427246,0.152588,-0.305176,38.560547
38880,8.844181,-0.598550,-4.194642,0.579834,-0.244141,-0.396729,38.562500
38920,8.887277,-0.612916,-4.185065,0.366211,0.457764,-0.610352,38.554688
38960,8.896853,-0.612916,-4.194642,0.183105,1.159668,-0.640869,38.541016
39000,8.858546,-0.617704,-4.180276,-0.030518,0.671387,-0.549316,38.558594
39040,8.868123,-0.617704,-4.165911,0.091553,0.579834,-0.579834,38.544922
39080,8.906430,-0.608127,-4.151546,0.244141,1.007080,-0.793457,38.562500
39120,8.906430,-0.617704,-4.137180,0.152588,1.556396,-0.823975,38.552734
39160,8.892065,-0.636858,-4.137180,0.183105,1.495361,-0.793457,38.550781
39200,8.882488,-0.627281,-4.132392,0.244141,1.281738,-0.946045,38.541016
39240,8.920795,-0.617704,-4.113238,0.213623,1.831055,-0.915527,38.570312
39280,8.925584,-0.593762,-4.108450,0.030518,1.678467,-0.488281,38.544922
39320,8.920795,-0.565032,-4.098873,-0.366211,1.831055,-0.305176,38.529297
39360,8.882488,-0.555455,-4.103662,-0.823975,1.342773,-0.366211,38.535156
39400,8.911219,-0.574608,-4.089296,-0.518799,1.342773,-0.640869,38.535156
39440,8.954314,-0.593762,-4.065354,-0.335693,1.892090,-0.640869,38.541016
39480,8.916007,-0.574608,-4.070143,-0.305176,1.037598,-0.671387,38.554688
39520,8.901642,-0.588974,-4.055778,-0.213623,0.610352,-0.518799,38.546875
39560,8.925584,-0.588974,-4.046201,0.061035,0.579834,-0.732422,38.558594
39600,8.949526,-0.584185,-4.041412,0.335693,0.427246,-0.793457,38.556641
39640,8.944737,-0.574608,-4.022259,0.396729,0.488281,-0.640869,38.564453
39680,8.930372,-0.569820,-4.031836,0.457764,-0.122070,-0.701904,38.566406
39720,8.935161,-0.579397,-4.041412,0.732422,-0.213623,-0.579834,38.546875
39760,8.949526,-0.569820,-4.022259,0.122070,-0.091553,-0.427246,38.541016
39800,8.930372,-0.574608,-4.003105,0.427246,0.183105,-0.213623,38.546875
39840,8.901642,-0.574608,-4.022259,0.671387,-1.281738,0.061035,38.578125
39880,8.968679,-0.608127,-4.036624,0.762939,-0.518799,0.122070,38.550781
39920,8.973468,-0.579397,-4.046201,-0.091553,0.427246,0.396729,38.544922
39960,8.916007,-0.521936,-4.041412,-0.701904,0.152588,0.793457,38.554688
40000,8.896853,-0.531513,-4.050989,-0.762939,-0.640869,1.068115,38.568359
40040,8.925584,-0.565032,-4.065354,-0.762939,-0.946045,0.946045,38.548828
40080,8.935161,-0.588974,-4.070143,-0.457764,-1.312256,0.549316,38.554688
40120,8.887277,-0.608127,-4.070143,-0.183105,-1.861572,0.396729,38.566406
40160,8.930372,-0.593762,-4.070143,-0.244141,-1.251221,0.518799,38.564453
40200,8.944737,-0.569820,-4.084508,-0.488281,-1.007080,0.671387,38.554688
40240,8.896853,-0.598550,-4.084508,-0.579834,-1.373291,0.549316,38.550781
40280,8.901642,-0.617704,-4.074931,-0.427246,-1.159668,0.427246,38.566406
40320,8.935161,-0.608127,-4.079720,-0.244141,-0.823975,0.274658,38.527344
40360,8.939949,-0.617704,-4.084508,0.000000,-0.396729,0.152588,38.562500
40400,8.920795,-0.632069,-4.103662,0.122070,-0.274658,0.000000,38.554688
40440,8.916007,-0.627281,-4.113238,0.213623,0.152588,-0.061035,38.578125
40480,8.911219,-0.632069,-4.118027,0.396729,-0.091553,-0.122070,38.558594
40520,8.887277,-0.627281,-4.122815,0.427246,-0.305176,-0.030518,38.533203
40560,8.906430,-0.617704,-4.113238,0.488281,-0.244141,-0.183105,38.554688
40600,8.892065,-0.627281,-4.127604,0.823975,-0.427246,-0.213623,38.564453
40640,8.906430,-0.632069,-4.113238,0.488281,-0.244141,-0.122070,38.564453
40680,8.892065,-0.617704,-4.122815,0.183105,-0.549316,-0.030518,38.541016
40720,8.896853,-0.622492,-4.118027,0.091553,-0.244141,0.061035,38.537109
40760,8.906430,-0.622492,-4.122815,0.000000,-0.183105,0.061035,38.548828
40800,8.896853,-0.632069,-4.127604,0.091553,-0.152588,-0.061035,38.556641
40840,8.887277,-0.646434,-4.118027,-0.152588,-0.030518,-0.122070,38.554688
40880,8.892065,-0.636858,-4.122815,-0.213623,0.030518,-0.030518,38.525391
40920,8.896853,-0.632069,-4.137180,-0.244141,-0.183105,0.061035,38.576172
40960,8.901642,-0.636858,-4.127604,-0.335693,0.000000,0.000000,38.564453
41000,8.877700,-0.636858,-4.132392,-0.396729,-0.274658,-0.030518,38.570312
41040,8.882488,-0.646434,-4.122815,-0.488281,-0.122070,0.091553,38.554688
41080,8.911219,-0.641646,-4.118027,-0.457764,0.030518,-0.091553,38.554688
41120,8.906430,-0.641646,-4.118027,-0.488281,0.213623,-0.122070,38.574219
41160,8.896853,-0.646434,-4.118027,-0.427246,0.274658,-0.122070,38.570312
41200,8.916007,-0.641646,-4.113238,-0.518799,0.579834,-0.152588,38.560547
41240,8.896853,-0.636858,-4.118027,-0.427246,0.610352,-0.122070,38.556641
41280,8.877700,-0.641646,-4.113238,-0.274658,0.274658,-0.091553,38.570312
41320,8.896853,-0.636858,-4.113238,-0.213623,0.274658,-0.061035,38.566406
41360,8.911219,-0.632069,-4.103662,-0.061035,0.427246,-0.061035,38.562500
41400,8.906430,-0.636858,-4.103662,0.030518,0.366211,-0.091553,38.550781
41440,8.906430,-0.617704,-4.103662,-0.091553,0.427246,-0.122070,38.564453
41480,8.896853,-0.598550,-4.103662,-0.213623,0.396729,-0.183105,38.566406
41520,8.863335,-0.603339,-4.127604,0.000000,-0.854492,-0.579834,38.544922
41560,8.901642,-0.632069,-4.118027,0.335693,-0.823975,-0.701904,38.556641
41600,8.925584,-0.622492,-4.113238,0.000000,0.122070,-0.244141,38.566406
41640,8.901642,-0.612916,-4.094085,-0.213623,-0.305176,0.061035,38.560547
41680,8.901642,-0.627281,-4.108450,-0.274658,-0.152588,0.244141,38.562500
41720,8.916007,-0.612916,-4.127604,-0.091553,0.030518,-0.213623,38.552734
41760,8.887277,-0.627281,-4.113238,0.274658,-0.122070,-0.640869,38.560547
41800,8.882488,-0.651223,-4.108450,0.579834,0.000000,-0.610352,38.566406
41840,8.901642,-0.646434,-4.122815,0.762939,-0.183105,-0.915527,38.574219
41880,8.892065,-0.636858,-4.122815,0.915527,0.091553,-0.732422,38.566406
41920,8.901642,-0.632069,-4.122815,1.068115,0.000000,-0.579834,38.564453
41960,8.901642,-0.636858,-4.103662,1.007080,-0.152588,-0.610352,38.570312
42000,8.901642,-0.627281,-4.103662,1.129150,0.152588,-0.610352,38.564453
42040,8.925584,-0.612916,-4.089296,0.793457,0.579834,-0.549316,38.574219
42080,8.920795,-0.593762,-4.089296,0.335693,0.457764,-0.122070,38.570312
42120,8.916007,-0.598550,-4.089296,-0.091553,0.701904,0.152588,38.556641
42160,8.916007,-0.584185,-4.089296,-0.701904,0.732422,0.122070,38.558594
42200,8.920795,-0.579397,-4.074931,-1.037598,0.885010,-0.183105,38.566406
42240,8.911219,-0.612916,-4.074931,-0.976562,0.457764,-0.061035,38.564453
42280,8.911219,-0.627281,-4.055778,-0.640869,0.091553,-0.091553,38.570312
42320,8.930372,-0.641646,-4.055778,-0.152588,0.274658,-0.579834,38.578125
42360,8.925584,-0.665588,-4.070143,0.244141,0.518799,-0.732422,38.546875
42400,8.930372,-0.660800,-4.074931,0.640869,0.854492,-0.549316,38.597656
42440,8.935161,-0.632069,-4.074931,0.671387,0.793457,-0.671387,38.576172
42480,8.911219,-0.612916,-4.065354,0.457764,0.274658,-0.671387,38.568359
42520,8.901642,-0.608127,-4.070143,0.732422,-0.549316,-0.518799,38.583984
42560,8.920795,-0.612916,-4.046201,0.030518,-0.183105,-0.457764,38.574219
42600,8.954314,-0.608127,-4.055778,0.457764,0.396729,-0.305176,38.580078
42640,8.925584,-0.588974,-4.065354,0.366211,0.061035,-0.122070,38.564453
42680,8.901642,-0.608127,-4.065354,-0.183105,-0.030518,0.152588,38.568359
42720,8.906430,-0.622492,-4.065354,-0.091553,-0.030518,0.183105,38.574219
42760,8.882488,-0.632069,-4.079720,0.152588,-1.129150,-0.091553,38.576172
42800,8.896853,-0.641646,-4.074931,0.701904,-1.068115,-0.396729,38.570312
42840,8.930372,-0.622492,-4.084508,0.579834,-0.793457,-0.427246,38.560547
42880,8.911219,-0.622492,-4.094085,0.640869,-1.617432,-0.335693,38.576172
42920,8.916007,-0.622492,-4.103662,0.457764,-1.434326,0.030518,38.566406
42960,8.916007,-0.588974,-4.113238,0.030518,-1.251221,0.000000,38.560547
43000,8.906430,-0.608127,-4.103662,-0.122070,-1.251221,-0.030518,38.576172
43040,8.887277,-0.632069,-4.113238,-0.091553,-1.464844,0.091553,38.578125
43080,8.896853,-0.622492,-4.127604,-0.152588,-1.373291,0.091553,38.587891
43120,8.896853,-0.622492,-4.146757,-0.091553,-1.373291,0.000000,38.580078
43160,8.882488,-0.632069,-4.146757,-0.122070,-1.281738,-0.030518,38.574219
43200,8.868123,-0.636858,-4.161122,-0.274658,-1.556396,0.183105,38.587891
43240,8.877700,-0.636858,-4.175488,-0.335693,-1.525879,0.457764,38.580078
43280,8.896853,-0.636858,-4.165911,-0.244141,-1.068115,0.213623,38.576172
43320,8.877700,-0.641646,-4.161122,-0.030518,-0.793457,0.091553,38.585938
43360,8.858546,-0.651223,-4.170700,-0.091553,-0.976562,0.030518,38.570312
43400,8.887277,-0.632069,-4.175488,0.030518,-0.671387,-0.335693,38.570312
43440,8.863335,-0.622492,-4.189853,0.091553,-0.640869,-0.122070,38.576172
43480,8.887277,-0.636858,-4.194642,0.152588,-0.152588,-0.152588,38.601562
43520,8.887277,-0.622492,-4.204218,-0.213623,0.122070,-0.213623,38.589844
43560,8.848969,-0.636858,-4.189853,0.122070,-0.030518,-0.366211,38.589844
43600,8.848969,-0.636858,-4.189853,0.244141,-0.213623,-0.396729,38.585938
43640,8.887277,-0.636858,-4.194642,0.305176,0.274658,-0.457764,38.619141
43680,8.877700,-0.651223,-4.194642,0.549316,0.640869,-0.457764,38.582031
43720,8.863335,-0.632069,-4.199430,0.396729,0.732422,-0.305176,38.580078
43760,8.863335,-0.622492,-4.194642,0.396729,0.823975,-0.335693,38.595703
43800,8.848969,-0.641646,-4.189853,0.427246,0.518799,-0.427246,38.591797
43840,8.858546,-0.641646,-4.189853,0.518799,0.091553,-0.396729,38.585938
43880,8.872911,-0.627281,-4.189853,0.457764,-0.091553,-0.457764,38.583984
43920,8.882488,-0.627281,-4.180276,0.244141,0.518799,-0.152588,38.601562
43960,8.872911,-0.627281,-4.180276,-0.030518,0.488281,0.061035,38.564453
44000,8.848969,-0.632069,-4.189853,-0.274658,-0.152588,0.152588,38.593750
44040,8.844181,-0.641646,-4.194642,-0.366211,-0.518799,0.366211,38.580078
44080,8.858546,-0.646434,-4.180276,-0.305176,-0.762939,0.183105,38.583984
44120,8.877700,-0.656011,-4.175488,-0.366211,-0.640869,0.518799,38.593750
44160,8.892065,-0.636858,-4.170700,-0.396729,-0.396729,0.488281,38.591797
44200,8.882488,-0.636858,-4.170700,-0.488281,-0.518799,0.427246,38.582031
44240,8.868123,-0.660800,-4.180276,-0.305176,-0.488281,0.427246,38.595703
44280,8.877700,-0.656011,-4.180276,-0.274658,-0.640869,0.091553,38.580078
44320,8.892065,-0.646434,-4.180276,-0.274658,-0.061035,0.122070,38.593750
44360,8.872911,-0.636858,-4.194642,-0.152588,-0.122070,0.183105,38.580078
44400,8.892065,-0.641646,-4.170700,-0.457764,0.549316,-0.091553,38.589844
44440,8.858546,-0.660800,-4.189853,-0.335693,0.305176,0.030518,38.593750
44480,8.853758,-0.651223,-4.185065,-0.122070,0.213623,-0.244141,38.570312
44520,8.882488,-0.641646,-4.185065,-0.213623,0.762939,-0.305176,38.589844
44560,8.882488,-0.646434,-4.189853,0.030518,1.251221,-0.488281,38.609375
44600,8.848969,-0.660800,-4.180276,-0.061035,0.793457,-0.518799,38.607422
44640,8.848969,-0.656011,-4.180276,0.061035,0.488281,-0.427246,38.585938
44680,8.868123,-0.641646,-4.175488,0.030518,0.823975,-0.244141,38.591797
44720,8.882488,-0.646434,-4.180276,-0.122070,0.885010,-0.183105,38.609375
44760,8.868123,-0.651223,-4.175488,-0.061035,0.427246,-0.335693,38.599609
44800,8.853758,-0.641646,-4.151546,-0.305176,0.183105,-0.213623,38.574219
44840,8.868123,-0.641646,-4.156334,-0.457764,0.030518,-0.091553,38.605469
44880,8.863335,-0.651223,-4.175488,-0.610352,-0.152588,-0.091553,38.603516
44920,8.848969,-0.646434,-4.170700,-0.579834,-0.366211,0.244141,38.578125
44960,8.872911,-0.632069,-4.165911,-0.518799,-0.701904,0.335693,38.599609
45000,8.901642,-0.641646,-4.141969,-0.518799,-0.610352,0.274658,38.593750
45040,8.877700,-0.646434,-4.141969,-0.366211,-0.823975,0.457764,38.580078
45080,8.872911,-0.636858,-4.146757,-0.274658,-1.190186,0.122070,38.603516
45120,8.901642,-0.651223,-4.137180,-0.122070,-0.549316,-0.091553,38.599609
45160,8.896853,-0.651223,-4.146757,0.030518,-0.152588,-0.061035,38.605469
45200,8.882488,-0.632069,-4.161122,0.030518,-0.488281,0.061035,38.589844
45240,8.887277,-0.636858,-4.141969,0.061035,-0.488281,-0.183105,38.595703
45280,8.868123,-0.656011,-4.156334,0.335693,-0.549316,-0.335693,38.601562
45320,8.887277,-0.675165,-4.137180,0.671387,-0.457764,-0.396729,38.607422
45360,8.882488,-0.665588,-4.170700,0.549316,-0.366211,-0.366211,38.591797
45400,8.892065,-0.651223,-4.185065,0.701904,0.305176,-0.274658,38.603516
45440,8.872911,-0.617704,-4.189853,0.244141,0.305176,0.000000,38.595703
45480,8.863335,-0.622492,-4.180276,0.000000,0.213623,-0.030518,38.601562
45520,8.853758,-0.641646,-4.170700,0.030518,-0.122070,-0.061035,38.583984
45560,8.853758,-0.651223,-4.165911,0.457764,-0.427246,-0.122070,38.609375
45600,8.877700,-0.665588,-4.175488,0.854492,-0.640869,-0.640869,38.589844
45640,8.868123,-0.679953,-4.185065,0.823975,-0.793457,-0.701904,38.603516
45680,8.887277,-0.665588,-4.194642,1.129150,0.213623,-0.579834,38.593750
45720,8.887277,-0.665588,-4.180276,1.068115,0.396729,-0.640869,38.619141
45760,8.848969,-0.651223,-4.185065,0.610352,0.213623,-0.457764,38.607422
45800,8.839393,-0.617704,-4.185065,0.274658,-0.061035,-0.274658,38.601562
45840,8.844181,-0.627281,-4.199430,-0.152588,-0.579834,-0.244141,38.599609
45880,8.834604,-0.656011,-4.213795,-0.335693,-1.525879,-0.488281,38.607422
45920,8.877700,-0.665588,-4.213795,-0.518799,-0.305176,-0.274658,38.603516
45960,8.872911,-0.665588,-4.223372,-0.732422,0.213623,-0.091553,38.613281
46000,8.815451,-0.689530,-4.213795,-0.579834,-1.037598,0.061035,38.611328
46040,8.844181,-0.718261,-4.218584,-0.213623,-0.366211,0.091553,38.599609
46080,8.868123,-0.689530,-4.232949,-0.061035,-0.732422,-0.427246,38.607422
46120,8.829816,-0.699107,-4.237737,0.030518,-0.915527,-0.457764,38.593750
46160,8.825027,-0.699107,-4.266468,0.152588,-0.579834,-0.213623,38.625000
46200,8.848969,-0.675165,-4.256891,-0.244141,-0.305176,-0.030518,38.619141
46240,8.801085,-0.675165,-4.276044,-0.701904,-1.403809,0.152588,38.603516
46280,8.801085,-0.703895,-4.242526,-0.122070,-1.220703,0.122070,38.597656
46320,8.820239,-0.699107,-4.261679,0.244141,-1.129150,-0.061035,38.609375
46360,8.853758,-0.694318,-4.261679,0.427246,-0.823975,-0.427246,38.628906
46400,8.844181,-0.689530,-4.266468,0.335693,-0.305176,-0.335693,38.617188
46440,8.853758,-0.675165,-4.256891,0.091553,0.244141,-0.183105,38.599609
46480,8.863335,-0.646434,-4.261679,-0.335693,0.671387,-0.061035,38.603516
46520,8.820239,-0.646434,-4.266468,-0.549316,0.610352,0.122070,38.609375
46560,8.810662,-0.665588,-4.247314,-0.305176,0.213623,0.000000,38.623047
46600,8.825027,-0.675165,-4.252102,-0.091553,-0.122070,-0.274658,38.605469
46640,8.834604,-0.675165,-4.252102,-0.274658,0.122070,0.122070,38.599609
46680,8.868123,-0.641646,-4.252102,-0.640869,0.640869,0.274658,38.603516
46720,8.853758,-0.641646,-4.247314,-0.640869,0.610352,0.274658,38.632812
46760,8.810662,-0.665588,-4.228160,-0.671387,-0.061035,0.366211,38.613281
46800,8.858546,-0.656011,-4.218584,-0.488281,0.152588,0.122070,38.609375
46840,8.887277,-0.641646,-4.209007,-0.427246,0.762939,-0.091553,38.609375
46880,8.844181,-0.660800,-4.209007,-0.152588,0.305176,-0.183105,38.585938
46920,8.825027,-0.660800,-4.218584,-0.091553,0.000000,-0.183105,38.625000
46960,8.844181,-0.636858,-4.232949,-0.122070,-0.122070,-0.427246,38.619141
47000,8.848969,-0.651223,-4.218584,0.183105,0.030518,-0.457764,38.619141
47040,8.848969,-0.651223,-4.209007,0.030518,-0.091553,-0.427246,38.621094
47080,8.848969,-0.665588,-4.204218,0.213623,-0.305176,-0.457764,38.628906
47120,8.868123,-0.670376,-4.189853,0.549316,0.213623,-0.671387,38.607422
47160,8.882488,-0.670376,-4.204218,0.579834,0.854492,-0.549316,38.626953
47200,8.863335,-0.660800,-4.213795,0.579834,1.037598,-0.152588,38.640625
47240,8.844181,-0.632069,-4.213795,0.213623,0.976562,-0.152588,38.630859
47280,8.863335,-0.622492,-4.213795,-0.091553,1.129150,-0.152588,38.628906
47320,8.839393,-0.627281,-4.223372,-0.183105,0.335693,-0.152588,38.619141
47360,8.825027,-0.651223,-4.213795,-0.122070,-0.152588,-0.427246,38.613281
47400,8.877700,-0.646434,-4.194642,-0.244141,0.671387,-0.305176,38.619141
47440,8.872911,-0.632069,-4.189853,-0.488281,0.976562,-0.183105,38.607422
47480,8.853758,-0.646434,-4.194642,-0.335693,1.007080,-0.061035,38.613281
47520,8.839393,-0.660800,-4.199430,0.183105,0.244141,-0.549316,38.615234
47560,8.882488,-0.660800,-4.185065,0.457764,1.403809,-0.976562,38.603516
47600,8.887277,-0.670376,-4.175488,0.762939,1.495361,-1.068115,38.609375
47640,8.877700,-0.660800,-4.170700,0.854492,1.037598,-1.098633,38.621094
47680,8.901642,-0.617704,-4.156334,0.366211,2.014160,-0.579834,38.638672
47720,8.916007,-0.588974,-4.141969,0.000000,2.258301,-0.518799,38.621094
47760,8.844181,-0.612916,-4.132392,-0.213623,0.183105,-0.640869,38.650391
47800,8.877700,-0.627281,-4.132392,-0.396729,0.518799,-0.701904,38.623047
47840,8.930372,-0.593762,-4.122815,-0.183105,0.885010,-0.488281,38.628906
47880,8.920795,-0.593762,-4.113238,-0.671387,1.129150,-0.610352,38.628906
47920,8.896853,-0.627281,-4.108450,-0.457764,0.915527,-0.274658,38.648438
47960,8.887277,-0.636858,-4.098873,-0.213623,0.854492,-0.518799,38.626953
48000,8.911219,-0.632069,-4.089296,-0.122070,0.823975,-0.518799,38.628906
48040,8.916007,-0.636858,-4.094085,0.305176,0.793457,-0.610352,38.626953
48080,8.916007,-0.627281,-4.084508,0.732422,0.915527,-0.732422,38.626953
48120,8.911219,-0.632069,-4.098873,1.068115,0.305176,-0.427246,38.626953
48160,8.944737,-0.627281,-4.070143,1.007080,1.098633,-0.335693,38.626953
48200,8.920795,-0.622492,-4.065354,1.251221,0.640869,-0.732422,38.646484
48240,8.896853,-0.627281,-4.060566,1.220703,0.579834,-0.457764,38.630859
48280,8.877700,-0.603339,-4.036624,0.823975,-0.579834,-0.518799,38.634766
48320,8.925584,-0.608127,-4.036624,0.823975,-0.366211,-0.549316,38.648438
48360,8.939949,-0.603339,-4.041412,0.549316,-0.061035,-0.274658,38.626953
48400,8.911219,-0.593762,-4.055778,-0.030518,-0.610352,0.030518,38.644531
48440,8.916007,-0.584185,-4.050989,-0.579834,-0.549316,0.610352,38.626953
48480,8.963891,-0.579397,-4.074931,-1.098633,0.366211,0.640869,38.628906
48520,8.944737,-0.603339,-4.070143,-1.281738,0.274658,0.640869,38.630859
48560,8.882488,-0.622492,-4.055778,-1.190186,-0.274658,0.732422,38.625000
48600,8.896853,-0.617704,-4.065354,-1.007080,-0.793457,0.518799,38.623047
48640,8.930372,-0.632069,-4.060566,-0.610352,-0.823975,0.091553,38.625000
48680,8.920795,-0.636858,-4.074931,-0.244141,-0.915527,0.030518,38.626953
48720,8.911219,-0.646434,-4.089296,-0.579834,-0.640869,0.549316,38.617188
48760,8.939949,-0.636858,-4.098873,-0.793457,-0.183105,0.488281,38.628906
48800,8.930372,-0.632069,-4.079720,-0.549316,0.030518,0.274658,38.619141
48840,8.916007,-0.632069,-4.084508,-0.274658,0.122070,0.091553,38.611328
48880,8.887277,-0.622492,-4.103662,-0.244141,-0.122070,0.152588,38.634766
48920,8.877700,-0.641646,-4.094085,-0.030518,-1.190186,-0.152588,38.636719
48960,8.925584,-0.656011,-4.084508,0.671387,-0.213623,-0.488281,38.642578
49000,8.939949,-0.641646,-4.089296,0.518799,0.427246,-0.457764,38.632812
49040,8.887277,-0.641646,-4.094085,0.396729,-0.579834,-0.305176,38.636719
49080,8.906430,-0.670376,-4.089296,0.701904,-0.427246,-0.183105,38.648438
49120,8.930372,-0.670376,-4.084508,1.007080,-0.457764,-0.488281,38.623047
49160,8.920795,-0.651223,-4.089296,1.037598,-0.335693,-0.244141,38.642578
49200,8.911219,-0.646434,-4.089296,0.946045,-0.396729,-0.122070,38.621094
49240,8.906430,-0.646434,-4.079720,0.854492,-0.488281,0.122070,38.650391
49280,8.930372,-0.651223,-4.084508,0.427246,0.061035,0.244141,38.634766
49320,8.911219,-0.636858,-4.103662,-0.061035,0.213623,0.427246,38.650391
49360,8.892065,-0.617704,-4.118027,-0.335693,0.610352,0.183105,38.617188
49400,8.863335,-0.651223,-4.122815,-0.244141,-0.915527,-0.335693,38.625000
49440,8.872911,-0.689530,-4.118027,-0.183105,-0.854492,-0.366211,38.632812
49480,8.939949,-0.641646,-4.098873,-0.732422,0.030518,-0.091553,38.626953
49520,8.906430,-0.612916,-4.127604,-0.854492,-0.549316,0.091553,38.638672
49560,8.892065,-0.646434,-4.118027,-1.068115,-0.335693,0.366211,38.626953
49600,8.877700,-0.665588,-4.141969,-1.312256,-1.068115,0.366211,38.628906
49640,8.887277,-0.699107,-4.122815,-0.885010,-0.671387,0.122070,38.642578
49680,8.935161,-0.694318,-4.122815,-0.396729,0.457764,-0.244141,38.648438
49720,8.911219,-0.675165,-4.137180,-0.030518,0.488281,-0.335693,38.626953
49760,8.877700,-0.670376,-4.137180,-0.091553,0.152588,-0.396729,38.630859
49800,8.868123,-0.660800,-4.141969,0.091553,0.000000,-0.244141,38.646484
49840,8.872911,-0.675165,-4.156334,0.549316,-0.976562,-0.518799,38.640625
49880,8.882488,-0.694318,-4.141969,0.335693,-0.305176,-0.488281,38.636719
49920,8.901642,-0.665588,-4.151546,0.488281,0.000000,-0.366211,38.617188
49960,8.896853,-0.636858,-4.146757,0.305176,-0.061035,-0.305176,38.642578
50000,8.877700,-0.646434,-4.141969,0.122070,-0.122070,-0.213623,38.662109
50040,8.858546,-0.646434,-4.141969,-0.030518,-0.335693,-0.030518,38.654297
50080,8.877700,-0.646434,-4.151546,-0.305176,-0.579834,-0.122070,38.656250
50120,8.901642,-0.632069,-4.146757,-0.610352,-0.427246,-0.091553,38.656250
50160,8.896853,-0.632069,-4.132392,-0.823975,0.030518,0.061035,38.623047
50200,8.882488,-0.646434,-4.146757,-0.793457,-0.030518,0.061035,38.628906
50240,8.887277,-0.656011,-4.156334,-0.732422,-0.274658,-0.061035,38.642578
50280,8.877700,-0.660800,-4.146757,-0.488281,-0.335693,-0.213623,38.642578
50320,8.901642,-0.656011,-4.141969,-0.061035,-0.152588,-0.549316,38.644531
50360,8.906430,-0.646434,-4.146757,0.122070,0.244141,-0.518799,38.644531
50400,8.877700,-0.627281,-4.151546,0.457764,-0.183105,-0.640869,38.632812
50440,8.887277,-0.670376,-4.141969,0.793457,-0.244141,-0.671387,38.652344
50480,8.882488,-0.665588,-4.132392,0.885010,-0.122070,-0.915527,38.628906
50520,8.892065,-0.665588,-4.113238,1.373291,0.396729,-1.068115,38.628906
50560,8.906430,-0.656011,-4.127604,1.678467,0.396729,-1.373291,38.640625
50600,8.925584,-0.641646,-4.127604,1.647949,1.342773,-1.251221,38.650391
50640,8.916007,-0.603339,-4.118027,1.434326,1.861572,-1.190186,38.640625
50680,8.901642,-0.579397,-4.108450,1.037598,1.495361,-1.220703,38.642578
50720,8.892065,-0.569820,-4.108450,0.091553,1.495361,-0.854492,38.644531
50760,8.901642,-0.545878,-4.113238,-0.457764,1.617432,-0.671387,38.636719
50800,8.916007,-0.584185,-4.089296,-0.610352,1.556396,-0.610352,38.632812
50840,8.920795,-0.608127,-4.089296,-0.854492,1.708984,-0.549316,38.609375
50880,8.916007,-0.584185,-4.098873,-1.159668,1.617432,-0.305176,38.626953
50920,8.925584,-0.574608,-4.070143,-1.617432,1.495361,0.152588,38.623047
50960,8.920795,-0.598550,-4.060566,-1.739502,1.342773,0.152588,38.660156
51000,8.906430,-0.617704,-4.046201,-1.464844,0.732422,0.213623,38.644531
51040,8.920795,-0.612916,-4.046201,-1.037598,0.122070,0.061035,38.654297
51080,8.916007,-0.622492,-4.036624,-0.518799,-0.457764,-0.061035,38.638672
51120,8.930372,-0.665588,-4.017470,0.274658,-0.579834,-0.244141,38.634766
51160,8.925584,-0.675165,-4.022259,0.732422,-0.823975,-0.183105,38.654297
51200,8.935161,-0.641646,-4.041412,0.915527,-1.037598,0.091553,38.638672
51240,8.939949,-0.612916,-4.036624,1.068115,-1.525879,0.244141,38.642578
51280,8.920795,-0.608127,-4.036624,1.281738,-1.861572,0.091553,38.632812
51320,8.935161,-0.584185,-4.041412,1.129150,-1.281738,0.000000,38.658203
51360,8.944737,-0.565032,-4.055778,0.091553,-1.251221,0.305176,38.646484
51400,8.939949,-0.565032,-4.050989,-0.396729,-0.915527,0.488281,38.642578
51440,8.935161,-0.598550,-4.070143,-0.427246,-0.640869,0.457764,38.652344
51480,8.944737,-0.608127,-4.094085,-0.427246,0.000000,0.305176,38.634766
51520,8.935161,-0.593762,-4.098873,-0.579834,0.640869,0.152588,38.646484
51560,8.906430,-0.608127,-4.094085,-0.701904,0.549316,0.213623,38.638672
51600,8.896853,-0.632069,-4.108450,-0.579834,0.122070,0.152588,38.632812
51640,8.896853,-0.646434,-4.118027,-0.396729,-0.335693,0.183105,38.636719
51680,8.901642,-0.646434,-4.118027,-0.335693,-0.305176,0.244141,38.658203
51720,8.887277,-0.641646,-4.113238,-0.122070,-0.610352,0.244141,38.630859
51760,8.882488,-0.646434,-4.122815,0.030518,-1.007080,0.183105,38.638672
51800,8.901642,-0.641646,-4.122815,0.213623,-1.037598,0.030518,38.632812
51840,8.901642,-0.636858,-4.108450,0.152588,-0.915527,0.091553,38.638672
51880,8.892065,-0.636858,-4.108450,-0.030518,-1.159668,0.183105,38.630859
51920,8.906430,-0.636858,-4.122815,-0.030518,-1.068115,0.427246,38.644531
51960,8.916007,-0.646434,-4.127604,0.091553,-0.915527,0.244141,38.628906
52000,8.901642,-0.665588,-4.118027,0.122070,-0.671387,0.030518,38.664062
52040,8.877700,-0.675165,-4.108450,0.030518,-0.885010,0.122070,38.646484
52080,8.901642,-0.646434,-4.113238,0.000000,-0.732422,0.152588,38.656250
52120,8.916007,-0.632069,-4.122815,-0.152588,-0.457764,0.305176,38.667969
52160,8.896853,-0.636858,-4.141969,-0.213623,-0.396729,0.244141,38.632812
52200,8.896853,-0.670376,-4.132392,0.061035,-0.335693,0.274658,38.623047
52240,8.896853,-0.660800,-4.132392,-0.335693,-0.305176,0.152588,38.656250
52280,8.887277,-0.675165,-4.137180,-0.213623,-0.091553,0.122070,38.648438
52320,8.877700,-0.684742,-4.141969,0.061035,-0.274658,-0.244141,38.652344
52360,8.892065,-0.670376,-4.151546,0.183105,-0.061035,-0.030518,38.640625
52400,8.892065,-0.665588,-4.156334,0.152588,0.061035,-0.061035,38.625000
52440,8.872911,-0.665588,-4.161122,0.183105,-0.244141,-0.244141,38.619141
52480,8.863335,-0.665588,-4.161122,0.335693,-0.549316,-0.396729,38.642578
52520,8.872911,-0.646434,-4.170700,0.183105,-0.610352,-0.366211,38.658203
52560,8.872911,-0.641646,-4.175488,-0.183105,-0.671387,-0.183105,38.626953
52600,8.858546,-0.660800,-4.175488,-0.305176,-0.915527,0.000000,38.648438
52640,8.853758,-0.679953,-4.175488,-0.061035,-1.190186,-0.122070,38.632812
52680,8.882488,-0.699107,-4.156334,0.396729,-0.915527,-0.335693,38.636719
52720,8.872911,-0.689530,-4.161122,0.579834,-0.823975,-0.640869,38.652344
52760,8.868123,-0.679953,-4.180276,0.610352,-0.885010,-0.762939,38.619141
52800,8.882488,-0.656011,-4.175488,0.427246,-0.427246,-0.610352,38.656250
52840,8.887277,-0.646434,-4.180276,0.457764,-0.305176,-0.640869,38.636719
52880,8.872911,-0.660800,-4.185065,0.366211,-0.244141,-0.579834,38.652344
52920,8.872911,-0.665588,-4.185065,0.335693,0.213623,-0.610352,38.666016
52960,8.868123,-0.660800,-4.199430,0.335693,-0.030518,-0.610352,38.648438
53000,8.853758,-0.646434,-4.189853,-0.061035,0.091553,-0.427246,38.636719
53040,8.882488,-0.641646,-4.199430,-0.183105,0.244141,-0.457764,38.650391
53080,8.868123,-0.641646,-4.204218,-0.274658,0.427246,-0.183105,38.634766
53120,8.863335,-0.617704,-4.194642,-1.129150,0.976562,-0.061035,38.630859
53160,8.848969,-0.632069,-4.199430,-0.976562,0.579834,-0.152588,38.666016
53200,8.844181,-0.665588,-4.204218,-0.610352,0.366211,-0.488281,38.632812
53240,8.892065,-0.670376,-4.199430,-0.518799,0.885010,-0.701904,38.621094
53280,8.896853,-0.651223,-4.170700,-0.579834,1.739502,-0.732422,38.658203
53320,8.872911,-0.641646,-4.175488,-0.549316,1.586914,-0.823975,38.664062
53360,8.853758,-0.641646,-4.175488,-0.305176,0.976562,-0.823975,38.636719
53400,8.877700,-0.632069,-4.165911,-0.030518,0.885010,-0.915527,38.664062
53440,8.896853,-0.641646,-4.156334,-0.030518,1.037598,-1.007080,38.638672
53480,8.877700,-0.646434,-4.146757,0.244141,0.823975,-1.037598,38.644531
53520,8.887277,-0.632069,-4.151546,0.335693,0.610352,-1.068115,38.646484
53560,8.901642,-0.612916,-4.146757,0.244141,0.823975,-0.854492,38.644531
53600,8.892065,-0.608127,-4.146757,0.366211,0.457764,-0.701904,38.640625
53640,8.892065,-0.617704,-4.132392,0.427246,0.518799,-0.701904,38.662109
53680,8.892065,-0.617704,-4.113238,0.793457,0.366211,-0.946045,38.650391
53720,8.901642,-0.617704,-4.118027,0.854492,0.305176,-1.037598,38.666016
53760,8.906430,-0.603339,-4.127604,0.885010,0.213623,-0.854492,38.654297
53800,8.906430,-0.574608,-4.113238,0.610352,0.152588,-0.823975,38.662109
53840,8.920795,-0.565032,-4.094085,0.335693,0.244141,-0.640869,38.662109
53880,8.911219,-0.569820,-4.089296,0.091553,0.213623,-0.396729,38.642578
53920,8.906430,-0.565032,-4.084508,-0.183105,0.183105,-0.030518,38.667969
53960,8.925584,-0.555455,-4.094085,-0.213623,0.183105,0.213623,38.648438
54000,8.916007,-0.569820,-4.089296,-0.305176,0.183105,0.427246,38.654297
54040,8.925584,-0.574608,-4.084508,-1.098633,0.122070,0.671387,38.632812
54080,8.906430,-0.584185,-4.079720,-1.037598,0.366211,0.671387,38.666016
54120,8.906430,-0.612916,-4.079720,-1.312256,0.305176,0.823975,38.654297
54160,8.920795,-0.636858,-4.089296,-0.793457,0.518799,0.854492,38.656250
54200,8.920795,-0.660800,-4.079720,-0.091553,0.885010,0.762939,38.662109
54240,8.939949,-0.694318,-4.074931,0.549316,1.953125,0.976562,38.650391
54280,8.935161,-0.694318,-4.070143,1.312256,1.922607,0.762939,38.644531
54320,8.916007,-0.670376,-4.060566,1.861572,1.525879,0.640869,38.675781
54360,8.911219,-0.641646,-4.079720,2.105713,0.976562,1.007080,38.644531
54400,8.906430,-0.612916,-4.089296,1.617432,0.274658,1.098633,38.638672
54440,8.901642,-0.603339,-4.089296,1.068115,-0.427246,0.549316,38.652344
54480,8.882488,-0.608127,-4.055778,0.549316,-1.007080,0.183105,38.650391
54520,8.882488,-0.598550,-4.060566,-0.061035,-1.556396,0.274658,38.646484
54560,8.906430,-0.593762,-4.070143,-0.610352,-2.716064,0.366211,38.642578
54600,8.930372,-0.612916,-4.060566,-1.007080,-2.105713,0.518799,38.656250
54640,8.930372,-0.641646,-4.065354,-0.976562,-1.556396,0.427246,38.664062
54680,8.925584,-0.679953,-4.089296,-0.854492,-1.220703,0.274658,38.666016
54720,8.892065,-0.689530,-4.108450,-0.915527,-1.434326,0.244141,38.671875
54760,8.896853,-0.670376,-4.103662,-1.007080,-1.556396,0.366211,38.656250
54800,8.906430,-0.675165,-4.103662,-1.037598,-1.190186,0.427246,38.671875
54840,8.911219,-0.684742,-4.113238,-0.946045,-0.885010,0.427246,38.666016
54880,8.896853,-0.689530,-4.127604,-0.671387,-1.098633,0.183105,38.656250
54920,8.892065,-0.708684,-4.113238,-0.762939,-0.732422,0.244141,38.652344
54960,8.887277,-0.723049,-4.113238,-0.549316,-0.854492,0.061035,38.648438
55000,8.906430,-0.723049,-4.122815,-0.183105,-0.274658,-0.091553,38.658203
55040,8.896853,-0.718261,-4.137180,0.030518,0.030518,-0.122070,38.654297
55080,8.892065,-0.727837,-4.141969,0.335693,0.244141,-0.091553,38.646484
55120,8.882488,-0.718261,-4.137180,0.396729,0.366211,-0.122070,38.632812
55160,8.868123,-0.703895,-4.137180,0.579834,0.030518,-0.274658,38.671875
55200,8.887277,-0.723049,-4.141969,0.915527,0.335693,-0.457764,38.646484
55240,8.901642,-0.708684,-4.137180,0.793457,0.640869,-0.488281,38.652344
55280,8.882488,-0.684742,-4.127604,0.671387,0.518799,-0.549316,38.662109
55320,8.872911,-0.694318,-4.132392,0.518799,0.457764,-0.640869,38.669922
55360,8.887277,-0.689530,-4.132392,0.457764,0.335693,-0.518799,38.644531
55400,8.906430,-0.679953,-4.122815,0.122070,0.610352,-0.152588,38.658203
55440,8.887277,-0.679953,-4.132392,-0.091553,0.488281,-0.244141,38.666016
55480,8.863335,-0.694318,-4.127604,0.000000,-0.183105,-0.396729,38.638672
55520,8.906430,-0.694318,-4.113238,-0.061035,-0.030518,-0.518799,38.625000
55560,8.920795,-0.675165,-4.108450,-0.122070,0.183105,-0.396729,38.667969
55600,8.872911,-0.689530,-4.122815,-0.152588,-0.366211,-0.152588,38.667969
55640,8.892065,-0.689530,-4.122815,-0.244141,-0.152588,-0.244141,38.660156
55680,8.906430,-0.689530,-4.118027,-0.274658,0.122070,-0.274658,38.667969
55720,8.872911,-0.684742,-4.122815,-0.244141,-0.152588,-0.183105,38.666016
55760,8.868123,-0.679953,-4.132392,-0.244141,-0.640869,-0.183105,38.667969
55800,8.901642,-0.675165,-4.118027,-0.122070,-0.549316,-0.183105,38.671875
55840,8.882488,-0.689530,-4.141969,-0.396729,-0.762939,-0.122070,38.648438
55880,8.887277,-0.703895,-4.127604,-0.091553,-0.305176,-0.091553,38.683594
55920,8.892065,-0.679953,-4.146757,-0.061035,-0.396729,-0.122070,38.664062
55960,8.887277,-0.684742,-4.141969,-0.030518,-0.549316,-0.244141,38.669922
56000,8.887277,-0.703895,-4.122815,0.274658,-0.427246,-0.396729,38.654297
56040,8.901642,-0.679953,-4.137180,0.488281,-0.244141,-0.366211,38.652344
56080,8.887277,-0.675165,-4.151546,0.549316,-0.396729,-0.610352,38.644531
56120,8.882488,-0.694318,-4.141969,0.762939,0.244141,-0.671387,38.660156
56160,8.906430,-0.684742,-4.137180,1.098633,0.823975,-0.885010,38.640625
56200,8.901642,-0.665588,-4.132392,0.976562,1.159668,-0.854492,38.667969
56240,8.887277,-0.651223,-4.141969,1.007080,0.823975,-1.068115,38.656250
56280,8.911219,-0.660800,-4.118027,0.915527,1.708984,-1.251221,38.656250
56320,8.916007,-0.651223,-4.098873,0.823975,2.471924,-1.403809,38.671875
56360,8.896853,-0.627281,-4.098873,0.549316,1.861572,-1.434326,38.662109
56400,8.906430,-0.617704,-4.089296,0.457764,2.227783,-1.464844,38.666016
56440,8.906430,-0.627281,-4.094085,0.335693,1.922607,-1.647949,38.669922
56480,8.887277,-0.656011,-4.084508,0.396729,0.885010,-1.739502,38.669922
56520,8.892065,-0.670376,-4.079720,0.549316,0.549316,-1.464844,38.652344
56560,8.906430,-0.651223,-4.070143,0.335693,-0.061035,-1.129150,38.671875
56600,8.925584,-0.651223,-4.050989,0.213623,0.030518,-0.793457,38.660156
56640,8.949526,-0.651223,-4.050989,0.152588,0.396729,-0.610352,38.695312
56680,8.935161,-0.627281,-4.065354,0.030518,0.518799,-0.335693,38.666016
56720,8.896853,-0.632069,-4.074931,0.000000,-0.244141,0.091553,38.667969
56760,8.935161,-0.641646,-4.060566,-0.549316,0.152588,-0.030518,38.660156
56800,8.916007,-0.632069,-4.050989,-0.366211,-0.427246,0.030518,38.646484
56840,8.892065,-0.651223,-4.050989,0.061035,-1.251221,0.213623,38.685547
56880,8.944737,-0.632069,-4.060566,-0.061035,-0.793457,0.152588,38.652344
56920,8.944737,-0.603339,-4.065354,-0.305176,-0.335693,0.152588,38.666016
56960,8.896853,-0.603339,-4.055778,-0.762939,-0.701904,0.518799,38.675781
57000,8.892065,-0.612916,-4.079720,-0.793457,-1.281738,0.549316,38.667969
57040,8.935161,-0.632069,-4.079720,-0.885010,-1.251221,0.396729,38.638672
57080,8.944737,-0.641646,-4.074931,-0.885010,-0.457764,0.305176,38.669922
57120,8.925584,-0.636858,-4.070143,-0.579834,-0.183105,0.091553,38.671875
57160,8.892065,-0.636858,-4.098873,-0.427246,-0.732422,0.122070,38.685547
57200,8.925584,-0.646434,-4.098873,-0.274658,-0.366211,-0.030518,38.662109
57240,8.920795,-0.641646,-4.098873,-0.122070,0.122070,-0.213623,38.667969
57280,8.901642,-0.651223,-4.103662,-0.061035,0.091553,-0.152588,38.660156
57320,8.906430,-0.641646,-4.113238,-0.091553,0.061035,0.122070,38.662109
57360,8.920795,-0.627281,-4.113238,-0.213623,0.213623,0.091553,38.656250
57400,8.906430,-0.646434,-4.122815,-0.122070,0.183105,0.122070,38.658203
57440,8.872911,-0.651223,-4.113238,-0.213623,-0.305176,0.213623,38.662109
57480,8.882488,-0.641646,-4.103662,-0.152588,-0.671387,0.335693,38.681641
57520,8.916007,-0.646434,-4.108450,-0.183105,-0.640869,0.396729,38.646484
57560,8.920795,-0.646434,-4.113238,-0.274658,-0.579834,0.366211,38.675781
57600,8.901642,-0.636858,-4.108450,-0.549316,-0.579834,0.579834,38.701172
57640,8.896853,-0.632069,-4.118027,-0.671387,-0.915527,0.701904,38.681641
57680,8.901642,-0.651223,-4.118027,-0.640869,-0.854492,0.579834,38.660156
57720,8.911219,-0.660800,-4.098873,-0.488281,-0.427246,0.274658,38.677734
57760,8.877700,-0.660800,-4.113238,-0.671387,-0.762939,0.488281,38.656250
57800,8.896853,-0.665588,-4.127604,-0.366211,-0.701904,0.427246,38.679688
57840,8.930372,-0.656011,-4.122815,-0.152588,-0.152588,0.061035,38.677734
57880,8.916007,-0.675165,-4.113238,0.061035,0.213623,-0.244141,38.675781
57920,8.882488,-0.665588,-4.113238,0.183105,0.091553,-0.396729,38.648438
57960,8.882488,-0.646434,-4.122815,0.244141,0.030518,-0.457764,38.679688
58000,8.901642,-0.636858,-4.127604,0.305176,0.183105,-0.396729,38.675781
58040,8.906430,-0.660800,-4.118027,0.274658,0.305176,-0.427246,38.658203
58080,8.887277,-0.656011,-4.113238,0.244141,0.244141,-0.366211,38.681641
58120,8.901642,-0.636858,-4.113238,0.274658,0.122070,-0.457764,38.658203
58160,8.916007,-0.636858,-4.103662,0.122070,0.274658,-0.610352,38.677734
58200,8.916007,-0.627281,-4.094085,-0.122070,0.518799,-0.244141,38.662109
58240,8.906430,-0.622492,-4.108450,-0.366211,0.305176,-0.030518,38.660156
58280,8.896853,-0.636858,-4.127604,-0.427246,0.091553,-0.213623,38.675781
58320,8.896853,-0.646434,-4.108450,-0.396729,0.091553,-0.244141,38.673828
58360,8.896853,-0.656011,-4.094085,-0.305176,0.183105,-0.274658,38.673828
58400,8.906430,-0.670376,-4.098873,-0.152588,0.122070,-0.152588,38.673828
58440,8.901642,-0.665588,-4.108450,-0.030518,-0.061035,-0.213623,38.677734
58480,8.887277,-0.665588,-4.113238,0.000000,-0.152588,-0.061035,38.677734
58520,8.896853,-0.675165,-4.113238,0.122070,-0.274658,-0.213623,38.681641
58560,8.892065,-0.670376,-4.118027,0.244141,-0.244141,-0.030518,38.671875
58600,8.892065,-0.656011,-4.113238,0.152588,-0.488281,-0.183105,38.687500
58640,8.896853,-0.665588,-4.118027,0.061035,-0.396729,-0.091553,38.654297
58680,8.892065,-0.665588,-4.127604,0.427246,-0.457764,-0.152588,38.675781
58720,8.906430,-0.670376,-4.113238,0.061035,-0.305176,-0.152588,38.671875
58760,8.887277,-0.670376,-4.118027,0.000000,-0.183105,0.091553,38.667969
58800,8.906430,-0.670376,-4.122815,0.183105,-0.183105,-0.274658,38.666016
58840,8.896853,-0.675165,-4.127604,0.122070,0.061035,-0.244141,38.667969
58880,8.887277,-0.651223,-4.122815,0.000000,0.274658,-0.152588,38.679688
58920,8.882488,-0.651223,-4.122815,-0.244141,0.122070,-0.091553,38.650391
58960,8.868123,-0.665588,-4.141969,-0.030518,-0.396729,-0.213623,38.681641
59000,8.892065,-0.670376,-4.127604,-0.091553,-0.091553,-0.244141,38.666016
59040,8.892065,-0.656011,-4.132392,-0.213623,-0.030518,-0.030518,38.667969
59080,8.882488,-0.656011,-4.127604,-0.274658,-0.427246,-0.091553,38.681641
59120,8.892065,-0.665588,-4.127604,-0.305176,-0.244141,-0.122070,38.666016
59160,8.901642,-0.660800,-4.127604,-0.213623,0.122070,-0.091553,38.675781
59200,8.896853,-0.660800,-4.137180,-0.213623,0.091553,-0.152588,38.669922
59240,8.892065,-0.656011,-4.122815,-0.091553,0.213623,-0.335693,38.673828
59280,8.901642,-0.651223,-4.127604,-0.152588,0.366211,-0.335693,38.681641
59320,8.887277,-0.660800,-4.132392,0.030518,0.274658,-0.427246,38.666016
59360,8.896853,-0.665588,-4.122815,0.152588,0.213623,-0.549316,38.662109
59400,8.906430,-0.670376,-4.113238,0.305176,0.427246,-0.701904,38.666016
59440,8.916007,-0.670376,-4.118027,0.427246,0.579834,-0.366211,38.673828
59480,8.925584,-0.646434,-4.122815,0.152588,1.129150,-0.488281,38.650391
59520,8.920795,-0.646434,-4.108450,0.152588,1.098633,-0.579834,38.675781
59560,8.906430,-0.636858,-4.084508,0.183105,0.976562,-0.518799,38.683594
59600,8.896853,-0.617704,-4.084508,-0.091553,0.640869,-0.549316,38.662109
59640,8.911219,-0.622492,-4.089296,-0.061035,0.427246,-0.518799,38.671875
59680,8.920795,-0.617704,-4.084508,0.030518,0.549316,-0.488281,38.673828
59720,8.930372,-0.603339,-4.074931,-0.366211,0.640869,-0.518799,38.695312
59760,8.920795,-0.627281,-4.070143,-0.213623,1.220703,-0.396729,38.681641
59800,8.911219,-0.636858,-4.089296,-0.122070,0.427246,-0.396729,38.662109
59840,8.925584,-0.660800,-4.065354,-0.030518,0.671387,-0.396729,38.669922
59880,8.906430,-0.660800,-4.050989,0.366211,0.518799,-0.457764,38.689453
59920,8.911219,-0.636858,-4.055778,0.457764,-0.030518,-0.396729,38.685547
59960,8.916007,-0.641646,-4.050989,0.640869,-0.305176,-0.396729,38.669922
60000,8.935161,-0.632069,-4.046201,0.518799,-0.366211,-0.274658,38.697266
60040,8.930372,-0.627281,-4.036624,0.518799,-0.549316,0.000000,38.687500
60080,8.925584,-0.622492,-4.041412,0.305176,-1.190186,0.274658,38.695312
60120,8.920795,-0.622492,-4.046201,0.335693,-1.251221,0.183105,38.697266
60160,8.920795,-0.646434,-4.060566,0.244141,-1.251221,0.213623,38.697266
60200,8.930372,-0.636858,-4.070143,0.183105,-1.129150,0.183105,38.687500
60240,8.916007,-0.627281,-4.060566,0.122070,-1.098633,0.183105,38.677734
60280,8.896853,-0.636858,-4.084508,0.091553,-1.251221,0.122070,38.671875
60320,8.906430,-0.636858,-4.094085,-0.152588,-1.159668,0.183105,38.691406
60360,8.906430,-0.636858,-4.103662,-0.244141,-1.129150,0.305176,38.669922
60400,8.911219,-0.646434,-4.103662,-0.335693,-0.976562,0.213623,38.681641
60440,8.892065,-0.651223,-4.118027,-0.457764,-1.129150,0.427246,38.675781
60480,8.882488,-0.651223,-4.132392,-0.427246,-1.464844,0.579834,38.664062
60520,8.887277,-0.675165,-4.137180,-0.244141,-1.495361,0.549316,38.671875
60560,8.887277,-0.670376,-4.141969,-0.335693,-1.464844,0.610352,38.691406
60600,8.872911,-0.660800,-4.156334,-0.305176,-1.586914,0.610352,38.681641
60640,8.877700,-0.679953,-4.165911,0.030518,-1.708984,0.549316,38.677734
60680,8.882488,-0.694318,-4.161122,-0.030518,-1.281738,0.427246,38.693359
60720,8.863335,-0.689530,-4.170700,0.030518,-1.464844,0.396729,38.687500
60760,8.872911,-0.699107,-4.170700,0.366211,-1.068115,0.091553,38.675781
60800,8.882488,-0.699107,-4.194642,0.396729,-0.823975,0.061035,38.679688
60840,8.868123,-0.703895,-4.204218,0.488281,-0.640869,0.030518,38.685547
60880,8.863335,-0.694318,-4.204218,0.305176,-0.366211,-0.061035,38.681641
60920,8.863335,-0.694318,-4.209007,0.335693,-0.183105,-0.305176,38.695312
60960,8.863335,-0.699107,-4.204218,0.244141,0.152588,-0.335693,38.691406
61000,8.853758,-0.699107,-4.218584,0.122070,0.091553,-0.274658,38.667969
61040,8.848969,-0.694318,-4.218584,-0.030518,0.030518,-0.152588,38.679688
61080,8.829816,-0.699107,-4.223372,-0.091553,-0.244141,-0.061035,38.695312
61120,8.834604,-0.699107,-4.223372,-0.213623,-0.640869,-0.061035,38.671875
61160,8.848969,-0.699107,-4.218584,-0.366211,-0.396729,0.091553,38.687500
61200,8.839393,-0.689530,-4.228160,-0.488281,-0.732422,0.213623,38.689453
61240,8.839393,-0.703895,-4.232949,-0.457764,-0.976562,0.305176,38.685547
61280,8.844181,-0.713472,-4.228160,-0.305176,-0.915527,0.305176,38.699219
61320,8.844181,-0.727837,-4.228160,-0.183105,-0.946045,0.244141,38.675781
61360,8.844181,-0.727837,-4.223372,-0.030518,-0.946045,0.122070,38.658203
61400,8.834604,-0.718261,-4.232949,0.305176,-1.037598,0.000000,38.697266
61440,8.839393,-0.723049,-4.237737,0.518799,-1.037598,-0.183105,38.701172
61480,8.844181,-0.713472,-4.237737,0.549316,-0.549316,-0.274658,38.677734
61520,8.834604,-0.699107,-4.247314,0.610352,-0.640869,-0.305176,38.707031
61560,8.834604,-0.699107,-4.252102,0.579834,-0.640869,-0.457764,38.685547
61600,8.839393,-0.713472,-4.247314,0.732422,-0.427246,-0.457764,38.697266
61640,8.825027,-0.708684,-4.266468,0.305176,-0.946045,-0.488281,38.685547
61680,8.829816,-0.723049,-4.256891,0.671387,-0.518799,-0.244141,38.687500
61720,8.829816,-0.742203,-4.276044,1.068115,-0.396729,-0.396729,38.693359
61760,8.825027,-0.746991,-4.285621,1.251221,-0.305176,-1.007080,38.710938
61800,8.820239,-0.703895,-4.280833,0.732422,0.122070,-1.037598,38.703125
61840,8.820239,-0.656011,-4.271256,0.213623,0.274658,-0.885010,38.695312
61880,8.829816,-0.660800,-4.276044,-0.183105,0.335693,-0.915527,38.720703
61920,8.834604,-0.670376,-4.271256,-0.244141,0.457764,-0.946045,38.707031
61960,8.839393,-0.679953,-4.266468,-0.305176,1.007080,-0.793457,38.693359
62000,8.834604,-0.723049,-4.280833,-0.152588,1.129150,-0.701904,38.687500
62040,8.810662,-0.737414,-4.295198,-0.061035,0.823975,-0.610352,38.687500
62080,8.801085,-0.713472,-4.290410,-0.152588,0.610352,-0.457764,38.699219
62120,8.805874,-0.699107,-4.295198,-0.152588,0.274658,-0.366211,38.710938
62160,8.820239,-0.689530,-4.280833,-0.244141,0.335693,-0.366211,38.710938
62200,8.829816,-0.689530,-4.266468,-0.213623,0.244141,-0.152588,38.701172
62240,8.844181,-0.689530,-4.261679,-0.335693,0.305176,-0.152588,38.708984
62280,8.844181,-0.675165,-4.242526,-0.457764,0.427246,-0.213623,38.701172
62320,8.829816,-0.679953,-4.237737,-0.396729,0.335693,0.030518,38.691406
62360,8.858546,-0.718261,-4.223372,0.061035,0.396729,0.122070,38.703125
62400,8.906430,-0.770933,-4.209007,0.579834,1.770020,-0.701904,38.699219
62440,8.858546,-0.675165,-4.199430,0.183105,1.922607,-0.976562,38.714844
62480,8.825027,-0.593762,-4.218584,-0.427246,1.434326,-0.915527,38.701172
62520,8.848969,-0.560243,-4.242526,-1.129150,1.037598,-0.427246,38.685547
62560,8.810662,-0.593762,-4.247314,-0.946045,-0.091553,-0.305176,38.697266
62600,8.863335,-0.708684,-4.194642,-1.190186,0.244141,-0.488281,38.687500
62640,8.882488,-0.761356,-4.165911,-0.701904,1.068115,-0.396729,38.695312
62680,8.892065,-0.737414,-4.165911,0.122070,1.373291,-0.732422,38.701172
62720,8.887277,-0.699107,-4.170700,0.946045,1.129150,-1.037598,38.683594
62760,8.853758,-0.679953,-4.156334,1.678467,0.640869,-1.220703,38.695312
62800,8.805874,-0.656011,-4.170700,1.983643,-1.007080,-0.946045,38.691406
62840,8.801085,-0.656011,-4.199430,1.800537,-2.960205,-0.427246,38.718750
62880,8.815451,-0.632069,-4.218584,1.007080,-3.784180,0.274658,38.716797
62920,8.786720,-0.632069,-4.228160,0.732422,-6.195068,1.037598,38.687500
62960,8.815451,-0.656011,-4.204218,0.762939,-6.195068,1.464844,38.699219
63000,8.916007,-0.660800,-4.194642,0.640869,-4.028320,0.610352,38.689453
63040,8.944737,-0.641646,-4.199430,0.518799,-1.647949,-0.366211,38.695312
63080,8.892065,-0.670376,-4.247314,0.335693,0.030518,-0.549316,38.685547
63120,8.892065,-0.670376,-4.280833,0.000000,1.525879,-0.640869,38.710938
63160,8.858546,-0.670376,-4.314352,-0.549316,2.716064,-0.457764,38.722656
63200,8.786720,-0.675165,-4.347870,-0.701904,2.197266,0.122070,38.687500
63240,8.777143,-0.703895,-4.352659,-1.007080,1.495361,0.305176,38.716797
63280,8.772355,-0.727837,-4.352659,-0.762939,0.823975,0.579834,38.695312
63320,8.786720,-0.732626,-4.319140,-0.213623,0.793457,0.396729,38.699219
63360,8.786720,-0.723049,-4.309563,-0.091553,0.488281,0.244141,38.724609
63400,8.796297,-0.708684,-4.309563,-0.061035,0.183105,0.579834,38.695312
63440,8.805874,-0.679953,-4.304775,-0.091553,-0.244141,0.793457,38.714844
63480,8.810662,-0.660800,-4.276044,-0.305176,-0.213623,1.190186,38.695312
63520,8.810662,-0.689530,-4.266468,-0.305176,-0.671387,1.342773,38.707031
63560,8.853758,-0.727837,-4.256891,0.427246,-0.488281,0.762939,38.728516
63600,8.834604,-0.751779,-4.252102,0.549316,-0.549316,0.579834,38.708984
63640,8.825027,-0.732626,-4.247314,1.098633,-0.793457,0.244141,38.695312
63680,8.853758,-0.703895,-4.237737,1.312256,-0.610352,-0.091553,38.716797
63720,8.858546,-0.684742,-4.232949,1.434326,-0.122070,-0.305176,38.675781
63760,8.853758,-0.689530,-4.218584,1.220703,0.335693,-0.640869,38.695312
63800,8.858546,-0.708684,-4.213795,0.976562,0.946045,-0.854492,38.707031
63840,8.868123,-0.708684,-4.223372,0.671387,1.800537,-0.915527,38.705078
63880,8.834604,-0.703895,-4.228160,0.640869,1.831055,-1.007080,38.710938
63920,8.829816,-0.713472,-4.242526,0.366211,1.739502,-0.823975,38.697266
63960,8.872911,-0.713472,-4.218584,0.000000,3.082275,-0.762939,38.708984
64000,8.868123,-0.718261,-4.194642,-0.122070,3.356934,-1.007080,38.718750
64040,8.863335,-0.713472,-4.199430,-0.488281,3.417969,-1.007080,38.718750
64080,8.853758,-0.689530,-4.194642,-0.640869,2.838135,-0.854492,38.708984
64120,8.820239,-0.699107,-4.170700,-0.946045,1.556396,-0.610352,38.691406
64160,8.805874,-0.713472,-4.175488,-1.159668,-0.335693,-0.335693,38.710938
64200,8.853758,-0.713472,-4.170700,-1.495361,-0.549316,-0.244141,38.716797
64240,8.858546,-0.708684,-4.156334,-1.464844,-1.220703,-0.061035,38.701172
64280,8.863335,-0.713472,-4.161122,-1.251221,-1.770020,0.305176,38.712891
64320,8.882488,-0.737414,-4.156334,-0.946045,-1.922607,0.366211,38.710938
64360,8.877700,-0.746991,-4.151546,-0.732422,-1.647949,0.549316,38.695312
64400,8.887277,-0.732626,-4.170700,-0.671387,-1.037598,0.518799,38.722656
64440,8.858546,-0.713472,-4.180276,-0.610352,-1.098633,0.671387,38.689453
64480,8.863335,-0.703895,-4.185065,-0.701904,-1.068115,0.640869,38.714844
64520,8.858546,-0.718261,-4.199430,-0.610352,-0.885010,0.427246,38.699219
64560,8.868123,-0.742203,-4.185065,-0.122070,-0.854492,0.305176,38.701172
64600,8.863335,-0.742203,-4.199430,-0.122070,-0.457764,0.244141,38.707031
64640,8.853758,-0.746991,-4.213795,0.457764,-0.366211,-0.244141,38.707031
64680,8.839393,-0.723049,-4.223372,0.396729,-0.366211,-0.213623,38.718750
64720,8.834604,-0.708684,-4.223372,0.427246,-0.396729,-0.244141,38.701172
64760,8.858546,-0.708684,-4.209007,0.366211,-0.030518,-0.518799,38.701172
64800,8.844181,-0.708684,-4.228160,0.274658,0.061035,-0.518799,38.701172
64840,8.844181,-0.703895,-4.237737,0.305176,-0.152588,-0.549316,38.718750
64880,8.839393,-0.708684,-4.232949,0.152588,-0.152588,-0.396729,38.714844
64920,8.829816,-0.703895,-4.237737,-0.091553,-0.335693,-0.244141,38.718750
64960,8.839393,-0.703895,-4.247314,-0.061035,-0.305176,-0.366211,38.710938
65000,8.844181,-0.694318,-4.247314,-0.244141,-0.061035,-0.518799,38.705078
65040,8.834604,-0.675165,-4.256891,-0.671387,-0.183105,-0.488281,38.714844
65080,8.839393,-0.670376,-4.242526,-0.854492,-0.030518,-0.732422,38.708984
65120,8.848969,-0.670376,-4.237737,-0.915527,0.457764,-1.098633,38.714844
65160,8.853758,-0.679953,-4.218584,-0.701904,0.549316,-1.403809,38.705078
65200,8.848969,-0.708684,-4.204218,-0.091553,0.640869,-1.434326,38.699219
65240,8.858546,-0.718261,-4.199430,0.457764,0.671387,-1.342773,38.722656
65280,8.872911,-0.727837,-4.199430,1.129150,0.640869,-1.373291,38.724609
65320,8.848969,-0.699107,-4.199430,1.403809,0.549316,-1.220703,38.699219
65360,8.844181,-0.646434,-4.209007,1.098633,0.579834,-0.976562,38.689453
65400,8.858546,-0.617704,-4.218584,0.640869,0.549316,-0.823975,38.730469
65440,8.863335,-0.617704,-4.223372,0.061035,0.579834,-0.274658,38.718750
65480,8.868123,-0.608127,-4.204218,-0.427246,0.701904,0.000000,38.724609
65520,8.848969,-0.627281,-4.204218,-0.396729,0.061035,-0.122070,38.716797
65560,8.877700,-0.632069,-4.189853,-0.518799,0.579834,-0.183105,38.753906
65600,8.882488,-0.603339,-4.189853,-1.037598,0.579834,-0.152588,38.734375
65640,8.868123,-0.622492,-4.180276,-1.007080,0.854492,-0.122070,38.705078
65680,8.858546,-0.632069,-4.199430,-0.946045,0.640869,-0.274658,38.724609
65720,8.877700,-0.636858,-4.194642,-0.823975,0.701904,-0.396729,38.716797
65760,8.858546,-0.670376,-4.185065,-0.549316,0.610352,-0.152588,38.705078
65800,8.844181,-0.684742,-4.180276,-0.183105,-0.061035,-0.152588,38.716797
65840,8.848969,-0.689530,-4.170700,0.213623,-0.396729,-0.061035,38.714844
65880,8.868123,-0.670376,-4.170700,0.488281,-0.640869,-0.152588,38.748047
65920,8.863335,-0.660800,-4.170700,0.732422,-0.762939,-0.030518,38.716797
65960,8.863335,-0.660800,-4.180276,0.701904,-1.037598,-0.152588,38.708984
66000,8.887277,-0.656011,-4.180276,0.762939,-0.457764,-0.366211,38.710938
66040,8.872911,-0.641646,-4.185065,0.610352,-0.061035,-0.366211,38.720703
66080,8.868123,-0.632069,-4.189853,0.457764,0.152588,-0.366211,38.714844
66120,8.853758,-0.627281,-4.199430,0.244141,-0.061035,-0.305176,38.714844
66160,8.863335,-0.622492,-4.199430,-0.061035,0.030518,-0.305176,38.705078
66200,8.877700,-0.622492,-4.194642,-0.213623,0.335693,-0.366211,38.695312
66240,8.858546,-0.627281,-4.199430,-0.488281,0.122070,-0.244141,38.697266
66280,8.853758,-0.627281,-4.209007,-0.671387,-0.213623,0.000000,38.707031
66320,8.877700,-0.632069,-4.204218,-0.976562,0.183105,0.183105,38.728516
66360,8.892065,-0.641646,-4.194642,-0.946045,1.037598,0.152588,38.707031
66400,8.877700,-0.679953,-4.213795,-0.274658,1.068115,-0.213623,38.699219
66440,8.872911,-0.694318,-4.209007,-0.122070,1.403809,-0.579834,38.708984
66480,8.858546,-0.660800,-4.185065,-0.244141,1.403809,-0.488281,38.730469
66520,8.877700,-0.641646,-4.156334,-1.220703,1.617432,0.122070,38.736328
66560,8.882488,-0.636858,-4.151546,-2.746582,1.434326,1.007080,38.732422
66600,8.916007,-0.651223,-4.127604,-2.471924,1.556396,1.190186,38.705078
66640,8.920795,-0.651223,-4.103662,-1.953125,1.861572,0.946045,38.710938
66680,8.987833,-0.588974,-4.065354,-1.251221,3.967285,0.366211,38.716797
66720,9.050082,-0.541090,-4.036624,-1.190186,6.439209,-0.885010,38.691406
66760,9.006987,-0.536301,-4.017470,-1.251221,7.202148,-1.586914,38.714844
66800,9.045294,-0.541090,-3.969586,-0.518799,8.728027,-2.838135,38.705078
66840,9.088389,-0.560243,-3.916914,-0.396729,10.040283,-4.364014,38.714844
66880,9.016563,-0.555455,-3.907337,-0.152588,9.918213,-5.004883,38.718750
66920,8.839393,-0.584185,-3.907337,0.030518,5.004883,-3.417969,38.707031
66960,8.848969,-0.588974,-3.878607,0.061035,2.868652,-1.831055,38.730469
67000,8.987833,-0.565032,-3.830723,-0.030518,1.953125,-1.068115,38.726562
67040,9.002198,-0.565032,-3.801992,0.244141,0.671387,-0.549316,38.716797
67080,8.978256,-0.560243,-3.787627,0.091553,-0.305176,0.396729,38.726562
67120,9.035717,-0.526724,-3.768473,0.213623,-1.007080,0.488281,38.705078
67160,9.078813,-0.531513,-3.763685,0.396729,-0.549316,0.396729,38.724609
67200,9.088389,-0.507571,-3.763685,0.488281,-0.030518,0.244141,38.722656
67240,9.069236,-0.474052,-3.763685,0.396729,-0.122070,0.061035,38.718750
67280,9.064447,-0.478840,-3.758897,0.335693,0.061035,-0.183105,38.720703
67320,9.054871,-0.483629,-3.758897,0.244141,-0.122070,-0.152588,38.710938
67360,9.064447,-0.474052,-3.754108,-0.122070,0.000000,-0.122070,38.710938
67400,9.069236,-0.474052,-3.768473,-0.366211,0.030518,0.244141,38.738281
67440,9.083601,-0.474052,-3.758897,-0.793457,0.640869,0.335693,38.730469
67480,9.050082,-0.497994,-3.773262,-1.098633,0.152588,0.427246,38.728516
67520,9.045294,-0.541090,-3.773262,-0.579834,-0.122070,0.122070,38.695312
