MS,Accel X (m/s²),Accel Y (m/s²),Accel Z (m/s²),Gyro X (°/s),Gyro Y (°/s),Gyro Z (°/s),Temp (°C)
1240,-1.426944,5.248090,8.039729,-1.831055,0.915527,-1.098633,27.970703
1280,-1.465251,5.295974,8.116343,-1.800537,0.976562,-1.007080,27.968750
1320,-1.441309,5.305551,8.149862,-0.915527,1.617432,-0.579834,27.986328
1360,-1.417367,5.319916,8.159439,-1.037598,0.946045,-0.183105,27.974609
1400,-1.417367,5.348647,8.154651,-0.762939,0.183105,0.213623,27.974609
1440,-1.393425,5.329493,8.178593,0.518799,0.915527,0.396729,28.000000
1480,-1.403002,5.305551,8.183381,0.030518,0.030518,1.251221,27.992188
1520,-1.407791,5.295974,8.154651,-0.274658,-0.305176,1.312256,27.994141
1560,-1.403002,5.300763,8.121132,0.030518,-0.305176,1.159668,27.988281
1600,-1.388637,5.295974,8.111555,-0.518799,-0.518799,0.579834,27.984375
1640,-1.369483,5.276821,8.111555,-0.488281,-0.305176,0.274658,27.988281
1680,-1.364695,5.262455,8.116343,-0.213623,0.396729,0.091553,28.011719
1720,-1.383849,5.272032,8.154651,-1.403809,-1.525879,0.244141,28.000000
1760,-1.374272,5.267244,8.169016,-2.014160,-2.258301,0.793457,28.009766
1800,-1.350330,5.272032,8.183381,-1.312256,-2.105713,0.030518,28.019531
1840,-1.340753,5.252879,8.178593,-1.159668,-1.098633,-0.091553,28.001953
1880,-1.383849,5.238513,8.116343,0.427246,0.396729,-0.366211,27.994141
1920,-1.398214,5.252879,8.101978,-0.457764,-0.091553,0.457764,28.003906
1960,-1.364695,5.272032,8.197746,-1.800537,-1.159668,0.305176,28.017578
2000,-1.321599,5.243302,8.279149,0.701904,0.640869,0.579834,28.033203
2040,-1.340753,5.252879,8.221688,1.403809,0.579834,0.518799,28.031250
2080,-1.398214,5.295974,8.125920,-0.213623,0.152588,0.701904,28.033203
2120,-1.388637,5.281609,8.159439,-1.007080,-0.366211,0.885010,28.029297
2160,-1.326388,5.219360,8.164227,0.701904,0.427246,1.068115,28.046875
2200,-1.307234,5.238513,8.164227,-0.122070,0.366211,0.396729,28.033203
2240,-1.297657,5.262455,8.169016,-0.915527,-0.549316,0.305176,28.027344
2280,-1.297657,5.257667,8.169016,0.823975,0.854492,-0.274658,28.048828
2320,-1.297657,5.252879,8.159439,0.579834,0.061035,-0.274658,28.035156
2360,-1.297657,5.252879,8.164227,-0.823975,-0.762939,-0.579834,28.048828
2400,-1.297657,5.257667,8.178593,0.091553,-0.946045,-0.701904,28.046875
2440,-1.307234,5.272032,8.197746,1.922607,0.030518,-1.403809,28.052734
2480,-1.331176,5.291186,8.178593,1.251221,-1.068115,-1.586914,28.031250
2520,-1.312023,5.291186,8.140285,1.586914,-1.159668,-2.380371,28.035156
2560,-1.388637,5.310339,8.145074,2.349854,0.183105,-2.136230,28.048828
2600,-1.489193,5.324705,8.106767,0.488281,-2.349854,-0.152588,28.056641
2640,-1.441309,5.291186,8.078036,-3.753662,-4.730225,3.387451,28.062500
2680,-1.302446,5.252879,8.063671,-6.256104,-4.241943,2.380371,28.082031
2720,-1.096544,5.214571,8.078036,-3.875732,-2.502441,-2.044678,28.058594
2760,-0.957681,5.190629,8.231265,-1.556396,-1.159668,-6.469727,28.056641
2800,-0.991199,5.204995,8.360553,1.922607,0.030518,-8.392334,28.060547
2840,-1.106121,5.209783,8.418014,3.204346,-2.288818,-8.636475,28.052734
2880,-1.187524,5.233725,8.346188,3.173828,-4.699707,-7.110596,28.052734
2920,-1.244985,5.257667,8.288726,2.532959,-4.821777,-6.408691,28.095703
2960,-1.350330,5.267244,8.221688,3.784180,-3.417969,-6.713867,28.074219
3000,-1.417367,5.276821,8.178593,3.692627,-1.861572,-6.744385,28.087891
3040,-1.465251,5.291186,8.164227,2.593994,-0.183105,-5.401611,28.078125
3080,-1.546654,5.310339,8.116343,3.784180,0.274658,-3.692627,28.078125
3120,-1.584962,5.310339,8.054094,2.777100,-1.220703,-0.885010,28.058594
3160,-1.541866,5.291186,7.991845,0.427246,-1.708984,2.075195,28.082031
3200,-1.498770,5.305551,7.958326,-0.946045,-0.549316,3.051758,28.078125
3240,-1.431733,5.300763,7.991845,-1.831055,0.885010,2.410889,28.193359
3280,-1.335965,5.310339,8.073248,-1.770020,1.708984,0.854492,28.187500
3320,-1.278504,5.348647,8.140285,-0.061035,0.640869,-0.274658,28.197266
3360,-1.264138,5.358223,8.140285,-0.152588,-0.335693,-0.732422,28.197266
3400,-1.235408,5.348647,8.197746,-1.312256,1.525879,-1.037598,28.210938
3440,-1.244985,5.339070,8.226477,0.762939,2.044678,-1.831055,28.208984
3480,-1.340753,5.358223,8.212111,2.471924,0.854492,-3.356934,28.199219
3520,-1.422156,5.348647,8.178593,3.234863,-0.091553,-2.380371,28.207031
3560,-1.436521,5.339070,8.092402,1.007080,-0.457764,-0.244141,28.210938
3600,-1.374272,5.329493,8.058883,-1.403809,0.518799,0.366211,28.199219
3640,-1.335965,5.310339,8.068460,-0.335693,2.838135,-0.427246,28.203125
3680,-1.379060,5.305551,8.092402,1.434326,2.471924,-0.976562,28.208984
3720,-1.369483,5.272032,8.015787,-0.213623,-0.366211,-0.610352,28.216797
3760,-1.331176,5.286397,8.101978,-4.364014,1.770020,-2.258301,28.214844
3800,-1.426944,5.305551,8.173804,3.631592,4.577637,-2.166748,28.228516
3840,-1.537078,5.315128,8.006210,2.044678,-0.518799,-1.770020,28.248047
3880,-1.460463,5.305551,8.058883,-4.455566,-0.915527,1.831055,28.222656
3920,-1.441309,5.334281,8.097190,-1.800537,2.471924,3.173828,28.236328
3960,-1.513135,5.324705,8.097190,1.068115,1.495361,3.356934,28.228516
4000,-1.503559,5.276821,8.101978,-2.319336,-1.068115,4.791260,28.232422
4040,-1.474828,5.286397,8.130709,-3.753662,-0.152588,5.065918,28.207031
4080,-1.522712,5.305551,8.116343,0.244141,2.441406,4.516602,28.250000
4120,-1.565808,5.310339,8.063671,-0.366211,2.441406,4.699707,28.228516
4160,-1.551443,5.315128,8.078036,-2.471924,2.746582,6.195068,28.236328
4200,-1.517924,5.276821,8.097190,-1.800537,4.364014,7.843018,28.236328
4240,-1.465251,5.233725,8.106767,-1.678467,5.157471,7.873535,28.242188
4280,-1.412579,5.204995,8.101978,-3.540039,5.859375,8.178711,28.240234
4320,-1.417367,5.214571,8.135497,-3.601074,7.263184,9.063721,28.248047
4360,-1.398214,5.161899,8.097190,-5.889893,8.026123,8.026123,28.246094
4400,-1.335965,5.128380,8.135497,-5.737305,9.857178,5.401611,28.277344
4440,-1.292869,5.080496,8.178593,-3.448486,10.986328,3.570557,28.251953
4480,-1.388637,5.114015,8.250419,-4.608154,11.291504,0.732422,28.253906
4520,-1.398214,5.104438,8.288726,-4.730225,9.216309,2.502441,28.269531
4560,-1.383849,5.118803,8.331821,-6.622314,6.408691,3.997803,28.259766
4600,-1.398214,5.133168,8.360553,-5.554199,5.340576,2.502441,28.259766
4640,-1.450886,5.114015,8.336611,-2.502441,6.072998,0.976562,28.259766
4680,-1.527501,5.109226,8.259995,-2.197266,5.737305,0.000000,28.269531
4720,-1.618480,5.118803,8.212111,-1.159668,6.927490,0.000000,28.255859
4760,-1.738190,5.099649,8.183381,-0.122070,7.293701,0.610352,28.269531
4800,-1.810017,5.090073,8.154651,-1.342773,4.547119,1.373291,28.269531
4840,-1.786075,5.080496,8.283937,-4.577637,3.295898,1.892090,28.271484
4880,-1.752556,5.066131,8.365341,-2.624512,2.716064,2.655029,28.271484
4920,-1.819593,5.109226,8.365341,-0.213623,-0.122070,2.471924,28.265625
4960,-1.948880,5.262455,8.374918,-3.936768,-7.507324,7.232666,28.273438
5000,-1.958457,5.343858,8.365341,1.464844,-1.617432,7.324219,28.289062
5040,-1.790863,5.142745,8.173804,6.103516,2.288818,5.645752,28.289062
5080,-1.656788,4.960786,8.101978,2.380371,-0.854492,4.669189,28.289062
5120,-1.613692,4.936844,8.068460,-1.831055,-2.075195,3.814697,28.300781
5160,-1.623269,4.994305,8.116343,-0.427246,0.427246,2.655029,28.292969
5200,-1.685518,5.051765,8.130709,2.227783,2.746582,0.823975,28.384766
5240,-1.704672,5.066131,8.130709,0.854492,0.427246,-2.166748,28.394531
5280,-1.623269,5.056554,8.145074,-0.122070,-0.305176,-2.380371,28.392578
5320,-1.671153,5.166687,8.116343,-0.396729,1.068115,-3.082275,28.412109
5360,-1.666364,5.200206,8.250419,-0.366211,-2.532959,-3.784180,28.398438
5400,-1.675941,5.228937,8.303091,0.396729,-3.875732,-3.143311,28.435547
5440,-1.671153,5.238513,8.197746,0.946045,-3.967285,-2.685547,28.400391
5480,-1.642422,5.214571,8.188169,-0.061035,-5.035400,-2.838135,28.406250
5520,-1.642422,5.181053,8.192958,-0.579834,-6.866455,-2.410889,28.412109
5560,-1.661576,5.181053,8.259995,1.281738,-6.652832,-2.716064,28.431641
5600,-1.647211,5.157111,8.231265,2.441406,-6.164551,-2.929688,28.419922
5640,-1.628057,5.137957,8.183381,2.532959,-5.279541,-3.936768,28.392578
5680,-1.575385,5.066131,8.159439,1.770020,-4.486084,-4.211426,28.417969
5720,-1.541866,5.032612,8.068460,1.922607,-3.265381,-3.875732,28.419922
5760,-1.580173,5.099649,8.049306,-0.091553,-3.692627,-3.845215,28.419922
5800,-1.604115,5.128380,8.159439,-0.488281,-2.777100,-3.692627,28.414062
5840,-1.608904,5.114015,8.269572,0.946045,-2.197266,-3.692627,28.408203
5880,-1.613692,5.118803,8.245630,2.014160,-2.044678,-4.150391,28.421875
5920,-1.613692,5.147533,8.188169,1.007080,-2.258301,-3.967285,28.425781
5960,-1.575385,5.118803,8.207323,1.190186,-2.319336,-3.204346,28.437500
6000,-1.565808,5.114015,8.216900,1.678467,-2.227783,-1.953125,28.429688
6040,-1.575385,5.114015,8.207323,0.183105,-2.593994,-1.190186,28.419922
6080,-1.556231,5.094861,8.216900,-0.335693,-2.410889,-1.129150,28.445312
6120,-1.527501,5.075707,8.212111,0.183105,-2.075195,-0.671387,28.431641
6160,-1.513135,5.080496,8.169016,-0.030518,-0.823975,-0.732422,28.441406
6200,-1.527501,5.123591,8.173804,-1.129150,-0.823975,-0.457764,28.449219
6240,-1.508347,5.133168,8.221688,-0.915527,0.305176,-0.183105,28.453125
6280,-1.484405,5.104438,8.293514,-0.854492,-0.579834,0.671387,28.464844
6320,-1.498770,5.104438,8.283937,-1.312256,-0.671387,1.098633,28.455078
6360,-1.513135,5.118803,8.269572,-0.640869,-0.457764,1.037598,28.445312
6400,-1.493982,5.114015,8.279149,0.030518,-0.152588,1.220703,28.451172
6440,-1.450886,5.085284,8.231265,0.640869,0.671387,0.946045,28.455078
6480,-1.422156,5.080496,8.169016,-0.305176,0.610352,1.007080,28.455078
6520,-1.383849,5.090073,8.173804,-1.525879,0.488281,0.793457,28.468750
6560,-1.364695,5.109226,8.250419,-0.976562,0.823975,0.732422,28.474609
6600,-1.369483,5.114015,8.317456,-0.396729,0.793457,0.183105,28.468750
6640,-1.412579,5.109226,8.274361,0.549316,0.396729,0.396729,28.458984
6680,-1.412579,5.114015,8.192958,-1.586914,-0.671387,-0.030518,28.453125
6720,-1.393425,5.090073,8.264784,-1.251221,-0.732422,-0.335693,28.464844
6760,-1.388637,5.085284,8.298303,0.976562,0.823975,0.183105,28.474609
6800,-1.417367,5.114015,8.274361,-0.335693,0.366211,-0.152588,28.468750
6840,-1.426944,5.104438,8.250419,-0.610352,-0.579834,-0.152588,28.484375
6880,-1.446098,5.075707,8.288726,0.762939,0.427246,-0.213623,28.488281
6920,-1.441309,5.075707,8.259995,1.068115,0.518799,-0.183105,28.462891
6960,-1.460463,5.080496,8.259995,0.274658,-0.457764,-0.427246,28.484375
7000,-1.470040,5.090073,8.226477,1.129150,-0.213623,0.061035,28.484375
7040,-1.465251,5.128380,8.216900,-0.762939,-0.335693,0.030518,28.494141
7080,-1.446098,5.137957,8.221688,0.122070,-0.427246,0.274658,28.501953
7120,-1.446098,5.137957,8.250419,1.251221,-0.579834,0.854492,28.501953
7160,-1.431733,5.104438,8.259995,1.495361,-0.183105,1.098633,28.492188
7200,-1.450886,5.075707,8.255207,0.274658,-0.488281,1.037598,28.572266
7240,-1.455675,5.056554,8.240842,0.823975,-0.305176,1.129150,28.582031
7280,-1.474828,5.099649,8.226477,0.396729,0.274658,0.946045,28.566406
7320,-1.446098,5.128380,8.202535,0.671387,0.396729,0.762939,28.597656
7360,-1.412579,5.152322,8.202535,-0.488281,-0.061035,0.762939,28.599609
7400,-1.388637,5.166687,8.197746,0.183105,0.488281,0.793457,28.599609
7440,-1.383849,5.147533,8.207323,-0.579834,-0.122070,0.732422,28.576172
7480,-1.383849,5.118803,8.245630,-0.610352,-0.976562,0.671387,28.585938
7520,-1.403002,5.104438,8.274361,-0.030518,0.335693,0.549316,28.621094
7560,-1.446098,5.109226,8.188169,0.122070,-0.152588,0.274658,28.591797
7600,-1.407791,5.128380,8.111555,-2.197266,-0.946045,-0.122070,28.605469
7640,-1.355118,5.152322,8.197746,-2.136230,-0.091553,-0.488281,28.585938
7680,-1.364695,5.176264,8.264784,-0.762939,0.885010,-0.488281,28.605469
7720,-1.417367,5.204995,8.255207,-0.427246,-0.427246,-0.640869,28.609375
7760,-1.441309,5.185841,8.240842,0.671387,0.366211,-0.427246,28.621094
7800,-1.417367,5.123591,8.255207,0.000000,0.213623,0.213623,28.623047
7840,-1.407791,5.114015,8.216900,-1.098633,-0.427246,0.427246,28.617188
7880,-1.383849,5.133168,8.202535,-1.281738,-0.549316,0.091553,28.632812
7920,-1.393425,5.157111,8.259995,-0.457764,0.396729,-0.152588,28.623047
7960,-1.407791,5.166687,8.283937,0.946045,0.000000,0.030518,28.632812
8000,-1.398214,5.161899,8.255207,0.823975,-0.244141,-0.152588,28.626953
8040,-1.388637,5.128380,8.231265,0.488281,0.183105,0.213623,28.623047
8080,-1.393425,5.109226,8.245630,0.305176,-0.335693,0.366211,28.609375
8120,-1.403002,5.104438,8.274361,0.793457,0.152588,0.335693,28.611328
8160,-1.403002,5.109226,8.274361,1.281738,0.122070,0.274658,28.632812
8200,-1.345541,5.099649,8.255207,1.922607,0.549316,-0.213623,28.615234
8240,-1.268927,5.075707,8.188169,15.716553,13.092041,-1.037598,28.601562
8280,-1.417367,5.214571,8.212111,13.122559,11.108398,-3.570557,28.623047
8320,-1.479617,5.238513,8.030152,-3.295898,-5.798340,-2.105713,28.628906
8360,-1.489193,5.123591,8.010999,-1.739502,-7.080078,-4.547119,28.634766
8400,-1.407791,5.008670,8.078036,3.082275,-2.410889,-7.751465,28.662109
8440,-1.379060,5.023035,8.154651,-2.868652,-0.366211,-4.821777,28.642578
8480,-1.532289,5.166687,8.140285,-3.112793,-2.258301,-10.345459,28.634766
8520,-1.556231,5.190629,8.130709,-1.495361,-5.371094,-11.077881,28.630859
8560,-1.556231,5.252879,8.269572,-2.777100,-5.554199,-7.751465,28.644531
8600,-1.613692,5.339070,8.264784,-2.166748,-3.753662,-7.659912,28.654297
8640,-1.656788,5.310339,8.216900,0.213623,-2.838135,-7.232666,28.658203
8680,-1.671153,5.276821,8.207323,1.098633,-2.349854,-5.706787,28.642578
8720,-1.685518,5.267244,8.159439,1.068115,-1.495361,-4.791260,28.673828
8760,-1.699883,5.243302,8.130709,1.007080,-0.061035,-2.685547,28.658203
8800,-1.757344,5.262455,8.149862,0.976562,1.312256,-0.305176,28.675781
8840,-1.762132,5.276821,8.135497,1.190186,2.899170,-0.762939,28.666016
8880,-1.628057,5.185841,8.101978,2.807617,7.080078,-1.403809,28.662109
8920,-1.599327,5.161899,8.125920,3.509521,7.812500,-0.946045,28.671875
8960,-1.675941,5.243302,8.192958,3.631592,5.523682,-1.434326,28.673828
9000,-1.685518,5.262455,8.231265,8.239746,8.422852,-3.234863,28.673828
9040,-1.675941,5.248090,8.183381,13.122559,11.871338,-3.356934,28.673828
9080,-1.771709,5.315128,8.049306,14.862061,12.725830,-4.302979,28.669922
9120,-1.910573,5.406107,7.939173,13.336182,14.251709,-5.218506,28.679688
9160,-2.092532,5.487510,7.872135,17.333984,20.263672,-4.943848,28.783203
9200,-2.245761,5.573701,7.747637,25.238037,27.404785,-7.080078,28.771484
9240,-2.351106,5.659893,7.599196,27.313232,24.383545,-6.896973,28.775391
9280,-2.485181,5.803545,7.465121,19.042969,14.770508,-6.713867,28.779297
9320,-2.580950,5.913678,7.350199,15.502930,11.230469,-9.887695,28.775391
9360,-2.652776,5.894525,7.292738,16.906738,10.772705,-10.467529,28.802734
9400,-2.758120,5.947197,7.196970,12.298584,7.141113,-7.385254,28.781250
9440,-2.887407,6.076484,6.976704,-0.091553,1.190186,-3.967285,28.789062
9480,-3.136404,6.258443,6.785168,-11.260986,-10.345459,3.295898,28.789062
9520,-3.294421,6.469133,7.273585,-14.190674,-21.759033,4.852295,28.808594
9560,-2.978387,6.268020,7.474698,-16.265869,-24.322510,2.380371,28.794922
9600,-2.624045,6.004658,7.489063,-26.641846,-41.412354,7.781982,28.796875
9640,-2.336741,5.822699,7.422025,-31.494141,-37.475586,9.063721,28.800781
9680,-2.030283,5.588067,7.450756,-31.677246,-29.937744,8.666992,28.804688
9720,-1.886631,5.353435,7.728483,-19.927979,-14.953613,8.087158,28.798828
9760,-1.795651,5.233725,8.020576,-8.056641,-0.793457,4.333496,28.792969
9800,-1.685518,5.157111,8.106767,-1.525879,5.187988,0.885010,28.787109
9840,-1.675941,5.157111,8.159439,-1.037598,4.058838,-1.037598,28.810547
9880,-1.733402,5.204995,8.106767,-1.617432,2.380371,-1.922607,28.816406
9920,-1.805228,5.272032,8.087613,-3.021240,-0.854492,-1.708984,28.794922
9960,-1.838747,5.329493,8.135497,-1.708984,-0.244141,-1.495361,28.808594
10000,-1.853112,5.348647,8.125920,0.244141,0.213623,-0.518799,28.822266
10040,-1.877054,5.353435,8.087613,0.640869,-0.030518,-0.091553,28.824219
10080,-1.891419,5.339070,8.087613,0.305176,-0.305176,0.518799,28.837891
10120,-1.891419,5.295974,8.058883,0.244141,-0.488281,0.396729,28.812500
10160,-1.862689,5.243302,8.015787,-0.793457,-0.335693,0.885010,28.804688
10200,-1.824382,5.219360,7.991845,-1.098633,0.183105,0.610352,28.814453
10240,-1.810017,5.181053,8.006210,-1.495361,0.579834,-0.274658,28.822266
10280,-1.805228,5.157111,8.006210,-1.159668,1.373291,-0.610352,28.818359
10320,-1.833959,5.204995,8.063671,-2.227783,0.671387,-0.427246,28.833984
10360,-1.843535,5.248090,8.130709,-2.532959,0.579834,-1.373291,28.822266
10400,-1.843535,5.228937,8.121132,-2.227783,1.342773,-1.464844,28.828125
10440,-1.944092,5.267244,8.092402,-1.464844,0.488281,-0.305176,28.822266
10480,-1.963245,5.291186,8.073248,-1.586914,-0.335693,1.281738,28.833984
10520,-1.905785,5.262455,8.125920,-0.671387,1.129150,2.014160,28.841797
10560,-1.843535,5.238513,8.149862,-0.396729,1.159668,2.349854,28.843750
10600,-1.833959,5.233725,8.087613,-0.274658,2.929688,2.349854,28.828125
10640,-1.848324,5.204995,8.078036,-0.427246,2.899170,1.586914,28.845703
10680,-1.848324,5.157111,8.140285,0.427246,2.197266,0.610352,28.835938
10720,-1.867477,5.142745,8.188169,2.502441,3.692627,0.762939,28.832031
10760,-1.944092,5.204995,8.092402,3.967285,5.371094,1.678467,28.849609
10800,-2.030283,5.300763,8.006210,4.638672,5.310059,1.708984,28.841797
10840,-2.025495,5.305551,8.049306,3.662109,4.333496,0.671387,28.851562
10880,-1.972822,5.272032,8.082825,6.500244,7.934570,1.098633,28.867188
10920,-1.939303,5.300763,8.044518,11.230469,12.481689,-0.244141,28.822266
10960,-2.015918,5.377377,7.920019,9.857178,10.375977,0.701904,28.853516
11000,-2.169147,5.482722,7.814674,5.371094,6.530762,0.579834,28.849609
11040,-2.202666,5.477933,7.671022,0.579834,3.845215,0.000000,28.851562
11080,-2.308010,5.444415,7.613562,-1.617432,-3.112793,2.166748,28.849609
11120,-2.370260,5.612009,8.111555,-10.009766,-14.556885,3.936768,28.851562
11160,-2.173935,5.544971,8.125920,-3.906250,-12.115479,0.885010,28.953125
11200,-1.948880,5.391742,7.848193,-2.593994,-7.995605,3.723145,28.949219
11240,-1.838747,5.410896,7.800309,-7.049561,-9.918213,3.295898,28.947266
11280,-1.733402,5.386954,7.886500,-12.847900,-11.505127,2.227783,28.958984
11320,-1.747767,5.286397,7.958326,-7.202148,-3.631592,1.770020,28.972656
11360,-1.843535,5.257667,8.058883,-2.655029,-0.549316,0.488281,28.976562
11400,-1.814805,5.209783,8.116343,-2.349854,-1.770020,0.122070,28.953125
11440,-1.709460,5.157111,8.121132,-5.035400,-3.173828,0.427246,28.945312
11480,-1.651999,5.133168,8.164227,-2.716064,-0.579834,-0.305176,28.974609
11520,-1.651999,5.152322,8.178593,0.610352,1.403809,-1.831055,28.976562
11560,-1.699883,5.200206,8.183381,-0.610352,-0.640869,-2.044678,28.978516
11600,-1.738190,5.252879,8.178593,-1.434326,-0.854492,-1.678467,28.982422
11640,-1.771709,5.276821,8.164227,0.305176,0.762939,-0.885010,28.984375
11680,-1.829170,5.272032,8.202535,0.549316,-0.793457,0.549316,28.990234
11720,-1.819593,5.238513,8.192958,0.793457,-1.525879,1.525879,28.986328
11760,-1.766921,5.181053,8.159439,1.281738,-1.739502,0.152588,28.978516
11800,-1.675941,5.085284,8.063671,10.803223,10.040283,-2.655029,28.982422
11840,-1.704672,5.099649,8.006210,2.807617,1.495361,-1.525879,28.978516
11880,-1.833959,5.291186,8.111555,-8.270264,-7.690430,-1.159668,28.982422
11920,-1.881842,5.329493,8.140285,-0.671387,-3.417969,-1.403809,28.972656
11960,-1.857901,5.276821,8.078036,1.678467,1.129150,4.302979,28.986328
12000,-1.877054,5.343858,8.001422,2.014160,1.159668,4.547119,28.992188
12040,-1.819593,5.430049,8.006210,-5.645752,-3.326416,5.340576,29.003906
12080,-1.666364,5.343858,8.087613,-4.455566,-1.739502,2.014160,29.007812
12120,-1.527501,5.123591,8.154651,3.662109,4.150391,-0.762939,28.998047
12160,-1.513135,5.013458,8.178593,1.098633,1.556396,-1.861572,29.001953
12200,-1.613692,5.051765,8.125920,-2.380371,-0.488281,-1.342773,28.972656
12240,-1.690306,5.133168,8.092402,-2.258301,-1.037598,-2.807617,28.996094
12280,-1.637634,5.195418,8.178593,-1.037598,-2.410889,-1.922607,28.998047
12320,-1.661576,5.324705,8.202535,-0.640869,-1.525879,-0.671387,29.009766
12360,-1.738190,5.353435,8.149862,0.396729,0.152588,-1.129150,28.996094
12400,-1.781286,5.248090,8.121132,0.396729,-0.488281,-1.342773,29.007812
12440,-1.781286,5.161899,8.159439,-0.335693,-2.593994,-1.068115,29.017578
12480,-1.680730,5.128380,8.145074,0.701904,0.579834,-0.610352,28.998047
12520,-1.695095,5.123591,8.034941,-1.342773,-0.030518,-0.122070,29.005859
12560,-1.752556,5.152322,8.087613,-3.540039,-1.403809,0.122070,29.015625
12600,-1.752556,5.176264,8.188169,-0.946045,3.814697,1.342773,29.019531
12640,-1.848324,5.204995,8.078036,-0.061035,5.645752,1.770020,29.019531
12680,-1.848324,5.152322,7.963115,-2.593994,3.601074,1.861572,29.007812
12720,-1.719037,5.085284,8.015787,-3.509521,5.096436,1.892090,29.025391
12760,-1.666364,5.109226,8.125920,-4.364014,4.272461,0.030518,29.027344
12800,-1.651999,5.147533,8.288726,-2.777100,2.502441,-0.274658,29.029297
12840,-1.719037,5.166687,8.355764,-1.129150,0.427246,0.061035,29.017578
12880,-1.838747,5.214571,8.298303,-1.983643,-1.831055,2.044678,29.017578
12920,-1.853112,5.195418,8.250419,-0.610352,-2.441406,1.922607,29.031250
12960,-1.747767,5.114015,8.259995,0.579834,-2.593994,2.197266,29.033203
13000,-1.699883,5.066131,8.202535,4.394531,2.807617,1.953125,29.041016
13040,-1.800440,5.032612,8.039729,6.652832,4.425049,-0.152588,29.037109
13080,-1.857901,5.032612,8.087613,-13.092041,-11.871338,2.777100,29.025391
13120,-1.824382,5.099649,8.341399,-6.774902,-9.704590,2.746582,29.126953
13160,-1.685518,5.037400,8.264784,7.232666,5.615234,0.518799,29.123047
13200,-1.656788,5.061342,8.125920,-1.953125,0.579834,1.983643,29.138672
13240,-1.675941,5.104438,7.977480,-0.579834,4.760742,2.441406,29.132812
13280,-1.714248,5.090073,8.054094,-0.366211,5.554199,1.831055,29.121094
13320,-1.738190,5.070919,8.221688,-3.082275,2.319336,1.556396,29.105469
13360,-1.709460,5.070919,8.336611,-3.540039,0.000000,1.983643,29.142578
13400,-1.699883,5.114015,8.394072,-1.495361,-1.861572,0.701904,29.136719
13440,-1.642422,5.109226,8.394072,0.518799,-1.861572,0.427246,29.126953
13480,-1.570596,5.042189,8.288726,1.922607,-1.068115,0.274658,29.140625
13520,-1.546654,5.008670,8.216900,2.868652,-0.061035,-0.701904,29.126953
13560,-1.628057,5.046977,8.149862,0.762939,-0.305176,0.335693,29.160156
13600,-1.766921,5.094861,8.164227,0.427246,-1.098633,0.000000,29.167969
13640,-1.771709,5.046977,8.221688,3.662109,1.220703,-0.427246,29.144531
13680,-1.719037,5.008670,8.269572,3.570557,-0.579834,-2.075195,29.148438
13720,-1.651999,5.008670,8.245630,3.540039,-3.509521,-4.058838,29.169922
13760,-1.580173,5.051765,8.245630,2.075195,-5.645752,-3.448486,29.150391
13800,-1.537078,5.118803,8.231265,3.112793,-5.004883,-3.417969,29.167969
13840,-1.551443,5.166687,8.154651,3.265381,-4.119873,-5.004883,29.156250
13880,-1.608904,5.185841,8.135497,2.746582,-3.051758,-6.317139,29.167969
13920,-1.680730,5.214571,8.116343,3.784180,-1.800537,-6.500244,29.152344
13960,-1.757344,5.233725,8.135497,3.265381,-1.342773,-5.645752,29.166016
14000,-1.766921,5.233725,8.078036,3.021240,-2.014160,-3.417969,29.169922
14040,-1.762132,5.276821,7.924808,3.082275,8.178711,0.793457,29.167969
14080,-1.877054,5.353435,7.915231,0.732422,3.662109,5.249023,29.171875
14120,-1.944092,5.453991,8.336611,-6.530762,-10.345459,2.136230,29.158203
14160,-1.685518,5.358223,8.264784,-1.129150,-5.889893,3.631592,29.171875
14200,-1.565808,5.262455,7.982268,3.845215,5.340576,2.716064,29.162109
14240,-1.556231,5.238513,7.833828,0.915527,4.943848,3.448486,29.177734
14280,-1.565808,5.276821,7.881712,-5.645752,1.831055,3.936768,29.167969
14320,-1.570596,5.291186,8.020576,-2.929688,6.164551,4.119873,29.195312
14360,-1.618480,5.281609,8.130709,-1.464844,6.500244,3.936768,29.179688
14400,-1.637634,5.252879,8.192958,-3.417969,2.807617,2.319336,29.167969
14440,-1.532289,5.176264,8.188169,-0.244141,3.265381,1.922607,29.167969
14480,-1.474828,5.195418,8.250419,-2.471924,-0.610352,1.953125,29.181641
14520,-1.450886,5.238513,8.413225,-4.211426,-8.544922,0.488281,29.183594
14560,-1.479617,5.252879,8.470686,10.437012,1.403809,-2.349854,29.195312
14600,-1.580173,5.214571,8.327033,27.862549,12.542725,-5.340576,29.189453
14640,-1.675941,5.281609,8.092402,22.583008,11.322021,-5.004883,29.195312
14680,-1.833959,5.396531,7.728483,0.946045,-3.723145,-6.561279,29.193359
14720,-1.924938,5.353435,7.623138,3.021240,1.586914,-6.164551,29.169922
14760,-2.006341,5.315128,7.666234,-1.739502,-0.793457,-5.767822,29.218750
14800,-1.853112,5.310339,7.881712,-2.136230,-4.180908,-1.586914,29.187500
14840,-1.944092,5.626374,7.967903,1.251221,2.868652,1.281738,29.205078
14880,-2.011129,5.808333,7.896077,5.279541,0.762939,0.793457,29.208984
14920,-2.011129,5.784391,7.967903,3.082275,-2.685547,1.586914,29.195312
14960,-1.929727,5.702989,7.967903,2.258301,-2.166748,3.021240,29.203125
15000,-1.762132,5.592855,7.982268,3.570557,-1.708984,1.678467,29.208984
15040,-1.675941,5.549759,8.010999,0.854492,-3.906250,3.112793,29.207031
15080,-1.632846,5.506664,7.967903,2.471924,-3.967285,4.394531,29.228516
15120,-1.671153,5.497087,7.752425,14.862061,10.742188,2.532959,29.328125
15160,-1.814805,5.607220,7.589619,3.814697,3.234863,4.028320,29.294922
15200,-1.790863,5.688623,7.742848,-8.972168,-7.934570,4.302979,29.298828
15240,-1.680730,5.631162,7.781156,-0.335693,0.488281,0.823975,29.302734
15280,-1.642422,5.645528,7.829040,-1.525879,-4.699707,3.051758,29.316406
15320,-1.656788,5.707777,7.790732,21.514893,19.134521,-2.593994,29.312500
15360,-1.690306,5.722142,7.699753,-5.035400,-6.256104,0.396729,29.304688
15400,-1.551443,5.506664,7.843405,-2.075195,-4.577637,-4.364014,29.296875
15440,-1.556231,5.544971,7.723695,2.593994,2.197266,-2.807617,29.318359
15480,-1.723825,5.808333,7.699753,-0.732422,-1.159668,-2.655029,29.322266
15520,-1.766921,5.884948,7.843405,16.448975,15.563965,-7.080078,29.328125
15560,-1.891419,5.928043,7.915231,16.998291,14.129639,-5.310059,29.316406
15600,-2.030283,6.009446,7.714118,21.820068,11.627197,-7.537842,29.326172
15640,-2.217031,6.148310,7.493851,20.172119,8.331299,-7.720947,29.322266
15680,-2.217031,6.210559,7.350199,17.028809,5.462646,-23.498535,29.310547
15720,-2.164358,6.042965,7.072472,9.887695,0.854492,-31.982422,29.339844
15760,-2.422932,6.033388,7.067683,4.425049,-13.336182,-20.111084,29.341797
15800,-2.509123,6.129156,7.398083,20.507812,-8.819580,-25.665283,29.318359
15840,-2.485181,6.086061,7.364564,33.691406,-10.833740,-28.198242,29.328125
15880,-2.437297,6.071695,7.235278,13.824463,-30.456543,-42.175293,29.345703
15920,-2.494758,6.177041,6.967127,12.725830,-13.854980,-23.040771,29.332031
15960,-2.758120,6.421249,7.034164,21.301270,-10.803223,-20.324707,29.339844
16000,-2.715025,6.593631,7.010222,28.778076,-14.282227,-24.291992,29.335938
16040,-2.791639,6.670246,6.679823,25.482178,-7.476807,-21.301270,29.355469
16080,-2.925714,6.660669,6.560112,16.967773,-9.918213,-18.402100,29.339844
16120,-2.853889,6.732495,6.751649,15.289307,-8.819580,-19.531250,29.332031
16160,-2.681506,6.651093,6.670246,17.181396,-3.692627,-18.341064,29.330078
16200,-2.614468,6.665458,6.684611,18.707275,-19.927979,-16.815186,29.326172
16240,-2.576161,6.660669,6.622362,18.066406,-10.894775,-28.137207,29.345703
16280,-2.873042,6.900089,6.579266,17.181396,-8.148193,-19.134521,29.357422
16320,-3.189077,6.957550,6.382942,18.585205,-0.610352,-13.000488,29.343750
16360,-3.380613,6.890512,6.248867,18.737793,-5.218506,-11.077881,29.351562
16400,-3.303998,6.938396,6.210559,17.211914,-7.476807,-6.103516,29.355469
16440,-3.145981,7.067683,6.090849,8.666992,8.575439,-0.213623,29.349609
16480,-3.098097,7.067683,6.019023,1.312256,11.505127,6.347656,29.351562
16520,-3.059790,7.043741,6.062119,-2.075195,3.540039,2.441406,29.347656
16560,-3.155558,7.192182,6.066907,-6.072998,8.758545,4.241943,29.355469
16600,-3.122039,7.072472,6.004658,-5.950928,15.686035,7.385254,29.376953
16640,-3.160346,6.981492,6.210559,3.753662,15.441895,1.434326,29.349609
16680,-3.361459,7.091625,6.157887,3.234863,1.953125,2.197266,29.380859
16720,-3.423708,7.105990,5.990293,12.176514,1.617432,-3.021240,29.365234
16760,-3.433285,7.173028,5.755661,-3.692627,-3.204346,2.655029,29.345703
16800,-3.323152,7.158663,5.707777,-33.233643,1.220703,15.380859,29.369141
16840,-3.112462,6.823475,5.923255,-16.815186,18.402100,11.199951,29.384766
16880,-3.246537,6.952762,6.081272,-23.132324,29.418945,7.751465,29.371094
16920,-3.236961,6.947973,6.138733,-19.439697,39.703369,8.148193,29.375000
16960,-3.246537,6.746861,6.095637,-0.366211,66.955566,3.692627,29.396484
17000,-3.581726,6.665458,5.951985,8.514404,76.110840,0.183105,29.363281
17040,-4.122815,6.866570,5.980716,2.044678,44.036865,0.854492,29.400391
17080,-4.357447,7.010222,5.870583,-1.831055,25.054932,3.631592,29.476562
17120,-4.271256,6.900089,5.626374,-2.838135,25.115967,2.624512,29.492188
17160,-4.280833,6.856994,5.540183,4.547119,32.623291,2.288818,29.474609
17200,-4.515464,6.947973,5.415684,-11.383057,10.406494,1.037598,29.470703
17240,-4.678270,7.029376,5.544971,-3.540039,0.457764,1.617432,29.478516
17280,-4.663905,7.019799,5.564125,2.197266,-3.967285,3.356934,29.464844
17320,-4.606444,6.947973,5.588067,0.823975,-16.357422,2.746582,29.470703
17360,-4.333505,6.794744,5.468357,1.403809,-14.923096,0.885010,29.494141
17400,-4.247314,6.842628,5.410896,1.647949,-10.803223,-2.960205,29.494141
17440,-4.338294,6.967127,5.487510,5.340576,-10.711670,-0.152588,29.484375
17480,-4.328717,6.976704,5.535394,3.265381,-11.535645,-1.403809,29.501953
17520,-4.247314,6.943185,5.645528,9.216309,-21.820068,-2.471924,29.472656
17560,-4.137180,7.024588,5.750873,19.073486,-20.660400,-7.537842,29.480469
17600,-4.127604,7.082048,5.602432,19.256592,-20.385742,-9.246826,29.511719
17640,-4.055778,7.067683,5.401319,22.186279,-21.453857,-9.796143,29.492188
17680,-4.031836,7.163452,5.458780,19.317627,-20.721436,-7.232666,29.490234
17720,-3.849876,7.206547,5.549759,20.446777,-6.591797,-6.896973,29.490234
17760,-3.931279,7.168240,5.396531,18.463135,-10.070801,-8.758545,29.503906
17800,-3.912126,7.182605,5.123591,15.808105,-0.122070,-5.950928,29.501953
17840,-4.127604,7.398083,5.353435,15.930176,-11.932373,-0.549316,29.511719
17880,-3.983952,7.436390,5.248090,12.176514,-5.950928,-4.547119,29.511719
17920,-3.888184,7.412448,4.979939,8.514404,3.326416,-4.577637,29.509766
17960,-3.998317,7.532158,4.984728,-0.183105,1.190186,6.988525,29.509766
18000,-4.027047,7.417237,5.070919,5.157471,-2.349854,1.861572,29.519531
18040,-4.007894,7.469909,4.999093,-2.197266,2.532959,10.589600,29.500000
18080,-3.950433,7.522582,4.970363,-11.352539,-2.105713,8.880615,29.517578
18120,-3.873818,7.546524,5.037400,-10.314941,-5.096436,4.028320,29.505859
18160,-3.768473,7.513005,5.128380,-7.019043,-1.800537,4.760742,29.519531
18200,-3.734955,7.479486,5.243302,-2.899170,-2.929688,5.737305,29.509766
18240,-3.825934,7.503428,5.252879,5.676270,-5.371094,2.502441,29.515625
18280,-3.859453,7.623138,5.085284,0.396729,-5.584717,2.227783,29.507812
18320,-3.787627,7.575254,4.970363,-13.854980,-4.547119,13.427734,29.531250
18360,-3.552995,7.374141,5.157111,-6.011963,4.425049,8.911133,29.513672
18400,-3.552995,7.431602,5.286397,-11.535645,6.286621,6.683350,29.515625
18440,-3.509900,7.498640,5.358223,-20.568848,13.305664,8.148193,29.529297
18480,-3.313575,7.311892,5.415684,-4.089355,34.698486,-0.732422,29.531250
18520,-3.586514,7.206547,5.310339,1.647949,39.337158,-5.096436,29.541016
18560,-3.811569,7.259220,5.228937,-1.159668,33.508301,-10.101318,29.541016
18600,-4.118027,7.417237,5.324705,-14.099121,9.124756,3.875732,29.525391
18640,-4.194642,7.388506,5.434838,-8.026123,0.579834,2.105713,29.527344
18680,-4.170700,7.359776,5.425261,-3.692627,-4.150391,-0.701904,29.541016
18720,-4.103662,7.359776,5.382165,-2.441406,-7.080078,-0.549316,29.537109
18760,-3.983952,7.316680,5.233725,-3.936768,-1.678467,1.708984,29.539062
18800,-3.979163,7.268796,5.315128,-0.274658,-1.495361,1.770020,29.541016
18840,-3.993528,7.307104,5.458780,0.854492,1.190186,1.647949,29.544922
18880,-3.979163,7.287950,5.415684,-0.793457,-2.746582,1.342773,29.539062
18920,-3.960010,7.235278,5.319916,-0.549316,-3.112793,2.563477,29.560547
18960,-3.921702,7.240066,5.367800,-1.678467,-3.723145,3.021240,29.558594
19000,-3.849876,7.216124,5.358223,-0.671387,1.037598,0.488281,29.562500
19040,-3.892972,7.273585,5.401319,-1.525879,-1.983643,0.854492,29.548828
19080,-3.883395,7.287950,5.430049,-1.251221,0.457764,0.579834,29.636719
19120,-3.878607,7.268796,5.453991,0.030518,-1.586914,0.823975,29.656250
19160,-3.859453,7.283162,5.420473,-0.152588,0.335693,-0.061035,29.630859
19200,-3.859453,7.292738,5.406107,-1.098633,-1.403809,0.335693,29.666016
19240,-3.849876,7.283162,5.425261,-1.068115,0.122070,0.183105,29.658203
19280,-3.883395,7.287950,5.477933,-1.647949,-2.868652,1.678467,29.640625
19320,-3.883395,7.283162,5.482722,-0.518799,-2.868652,1.739502,29.656250
19360,-3.835511,7.254431,5.434838,0.579834,0.488281,0.549316,29.648438
19400,-3.825934,7.244854,5.420473,-0.366211,-0.396729,1.159668,29.634766
19440,-3.811569,7.254431,5.420473,-1.068115,0.915527,0.885010,29.650391
19480,-3.806781,7.264008,5.453991,-1.678467,0.427246,1.464844,29.654297
19520,-3.778050,7.249643,5.458780,-1.037598,-0.152588,-0.091553,29.642578
19560,-3.754108,7.249643,5.458780,-1.586914,0.762939,0.213623,29.662109
19600,-3.787627,7.287950,5.492299,-0.488281,-0.274658,-0.091553,29.664062
19640,-3.801992,7.316680,5.511452,-0.366211,-0.183105,-0.457764,29.675781
19680,-3.821146,7.283162,5.482722,-0.335693,-0.885010,-0.183105,29.664062
19720,-3.797204,7.264008,5.458780,-1.159668,-2.044678,0.701904,29.666016
19760,-3.758897,7.287950,5.521029,-0.549316,-0.640869,1.159668,29.675781
19800,-3.811569,7.307104,5.564125,0.518799,0.823975,-0.579834,29.652344
19840,-3.912126,7.264008,5.506664,0.732422,0.244141,-0.274658,29.669922
19880,-3.864242,7.177817,5.382165,-0.183105,1.892090,2.197266,29.669922
19920,-3.773262,7.173028,5.386954,-5.065918,-4.302979,4.760742,29.675781
19960,-3.629610,7.230489,5.477933,-3.326416,-3.204346,2.532959,29.654297
20000,-3.596091,7.417237,5.597643,-0.579834,-0.274658,-0.457764,29.662109
20040,-3.639187,7.484274,5.655105,1.983643,-1.129150,-2.014160,29.681641
20080,-3.596091,7.350199,5.597643,3.662109,-3.112793,-2.014160,29.687500
20120,-3.572149,7.240066,5.597643,2.227783,-2.502441,-1.220703,29.687500
20160,-3.643975,7.211336,5.578490,1.190186,-4.486084,-1.434326,29.677734
20200,-3.715801,7.230489,5.473145,0.427246,-2.319336,-1.678467,29.673828
20240,-3.787627,7.249643,5.439626,-0.152588,-1.037598,-1.831055,29.685547
20280,-3.830723,7.254431,5.497087,-0.427246,-3.082275,-0.457764,29.671875
20320,-3.782839,7.249643,5.540183,0.000000,-1.220703,-0.427246,29.689453
20360,-3.725378,7.244854,5.544971,-1.159668,-1.983643,0.762939,29.691406
20400,-3.706224,7.264008,5.549759,-0.366211,-0.946045,0.396729,29.691406
20440,-3.691859,7.273585,5.530606,-0.091553,0.183105,0.305176,29.675781
20480,-3.672705,7.278373,5.521029,-1.251221,-0.488281,1.129150,29.701172
20520,-3.643975,7.278373,5.525817,-1.831055,0.335693,1.129150,29.689453
20560,-3.658340,7.287950,5.554548,-0.122070,-0.518799,0.305176,29.693359
20600,-3.643975,7.292738,5.578490,-1.281738,0.091553,0.366211,29.685547
20640,-3.634398,7.249643,5.559336,-0.335693,0.427246,0.640869,29.705078
20680,-3.600879,7.259220,5.549759,-1.434326,-1.739502,1.068115,29.699219
20720,-3.591303,7.292738,5.626374,-1.678467,-3.112793,0.946045,29.710938
20760,-3.552995,7.273585,5.635951,-0.427246,-1.251221,0.091553,29.699219
20800,-3.572149,7.259220,5.602432,-0.427246,-1.586914,0.122070,29.681641
20840,-3.576937,7.278373,5.588067,-1.373291,-1.831055,0.549316,29.699219
20880,-3.529053,7.273585,5.635951,-0.396729,-2.044678,0.335693,29.712891
20920,-3.533842,7.316680,5.664681,-0.885010,-1.922607,-0.213623,29.734375
20960,-3.596091,7.335834,5.702989,1.129150,-1.739502,0.152588,29.708984
21000,-3.605668,7.297527,5.702989,2.349854,-1.953125,0.061035,29.705078
21040,-3.634398,7.264008,5.707777,2.563477,-0.640869,-0.213623,29.791016
21080,-3.643975,7.182605,5.602432,1.892090,0.610352,-0.640869,29.789062
21120,-3.600879,7.101202,5.453991,-0.610352,1.861572,-0.427246,29.810547
21160,-3.610456,7.129933,5.487510,-2.288818,1.434326,0.244141,29.806641
21200,-3.639187,7.235278,5.621585,0.640869,-0.244141,0.122070,29.810547
21240,-3.629610,7.326257,5.674258,4.547119,-1.861572,0.610352,29.789062
21280,-3.557784,7.350199,5.659893,7.629395,-1.586914,2.105713,29.783203
21320,-3.505111,7.369353,5.655105,11.840820,-9.094238,-1.373291,29.794922
21360,-3.366248,7.378930,5.683835,23.376465,-10.986328,-8.728027,29.804688
21400,-3.347094,7.493851,5.487510,11.413574,-12.084961,-8.728027,29.816406
21440,-3.409343,7.503428,5.324705,13.549805,-9.155273,-8.148193,29.822266
21480,-3.529053,7.556100,5.286397,14.190674,-7.659912,-9.582520,29.826172
21520,-3.567361,7.599196,5.281609,9.185791,-5.126953,-4.974365,29.824219
21560,-3.466804,7.517793,5.286397,7.965088,-3.173828,-3.112793,29.814453
21600,-3.538630,7.522582,5.267244,7.751465,-2.532959,-3.631592,29.833984
21640,-3.610456,7.589619,5.109226,4.058838,-5.615234,-3.265381,29.800781
21680,-3.576937,7.623138,4.999093,-2.471924,-0.457764,1.251221,29.816406
21720,-3.505111,7.575254,5.114015,-5.310059,1.525879,2.838135,29.820312
21760,-3.610456,7.656657,5.262455,-6.225586,-1.403809,1.098633,29.816406
21800,-3.706224,7.656657,5.267244,0.518799,1.159668,0.274658,29.824219
21840,-3.620033,7.584831,5.281609,0.213623,-4.669189,1.190186,29.810547
21880,-3.586514,7.560889,5.147533,2.593994,-3.570557,0.732422,29.824219
21920,-3.610456,7.666234,5.027823,-4.852295,0.091553,7.141113,29.841797
21960,-3.538630,7.623138,5.066131,-15.960693,-3.112793,12.420654,29.849609
22000,-3.222595,7.383718,5.190629,-7.995605,9.948730,7.873535,29.847656
22040,-3.260903,7.493851,5.315128,-9.735107,17.852783,-0.732422,29.826172
22080,-3.323152,7.575254,5.339070,-11.718750,32.409668,-1.556396,29.849609
22120,-3.409343,7.455544,5.348647,-13.244629,31.524658,-0.854492,29.859375
22160,-3.485958,7.364564,5.396531,-8.483887,39.245605,-3.204346,29.841797
22200,-3.787627,7.335834,5.468357,5.096436,39.611816,-4.791260,29.833984
22240,-4.055778,7.369353,5.272032,5.432129,34.973145,-6.103516,29.853516
22280,-4.280833,7.489063,5.061342,-4.669189,23.651123,-1.220703,29.849609
22320,-4.285621,7.426814,4.955997,-3.143311,20.385742,1.129150,29.853516
22360,-4.280833,7.350199,4.860229,-8.941650,28.594971,-1.678467,29.853516
22400,-4.429273,7.335834,4.960786,-10.620117,29.113770,-4.364014,29.869141
22440,-4.697424,7.340622,4.946421,-0.762939,8.941650,-2.075195,29.826172
22480,-4.754885,7.283162,4.850653,-2.471924,-4.425049,3.692627,29.849609
22520,-4.668694,7.287950,4.941632,-1.678467,-6.744385,3.631592,29.853516
22560,-4.702212,7.220912,4.903325,6.927490,-12.542725,-0.305176,29.845703
22600,-4.180276,7.144298,4.568137,6.744385,13.244629,3.173828,29.865234
22640,-4.553771,7.422025,4.793192,-10.864258,4.791260,-5.035400,29.859375
22680,-4.802769,7.522582,5.037400,-1.251221,-7.751465,3.875732,29.855469
22720,-4.529830,7.302315,5.018247,1.129150,-7.293701,-2.838135,29.873047
22760,-4.582502,7.278373,4.941632,4.913330,-12.695312,2.105713,29.863281
22800,-4.520253,7.378930,4.869806,4.486084,-11.016846,2.746582,29.847656
22840,-4.357447,7.374141,4.865018,3.051758,-10.437012,-1.220703,29.863281
22880,-4.333505,7.331046,4.893748,7.141113,-11.322021,-1.007080,29.863281
22920,-4.295198,7.302315,4.817134,4.333496,-7.690430,0.610352,29.859375
22960,-4.223372,7.350199,4.841076,2.227783,-6.439209,-0.305176,29.865234
23000,-4.256891,7.412448,4.951209,3.051758,-8.026123,-0.854492,29.869141
23040,-4.247314,7.431602,4.960786,5.035400,-8.514404,-2.258301,29.968750
23080,-4.151546,7.493851,4.951209,8.666992,-10.223389,-6.225586,29.970703
23120,-4.213795,7.589619,4.960786,7.324219,-21.820068,-7.507324,29.964844
23160,-4.223372,7.589619,4.951209,6.011963,-17.211914,-2.227783,29.962891
23200,-4.194642,7.503428,4.955997,9.094238,-4.333496,-2.197266,29.966797
23240,-4.204218,7.450756,4.975151,2.136230,-4.760742,3.295898,29.970703
23280,-4.141969,7.340622,4.927267,0.640869,-2.410889,1.434326,29.964844
23320,-4.065354,7.311892,4.884171,-0.640869,-0.274658,2.319336,29.980469
23360,-4.036624,7.388506,4.960786,-0.305176,-0.457764,0.762939,29.957031
23400,-4.027047,7.441179,4.936844,0.579834,1.037598,-0.579834,29.976562
23440,-4.050989,7.489063,4.941632,-2.746582,-4.364014,0.823975,29.976562
23480,-4.046201,7.493851,4.932055,-0.457764,1.892090,-0.091553,29.960938
23520,-4.089296,7.498640,4.975151,-1.159668,0.488281,0.366211,29.966797
23560,-4.103662,7.479486,4.970363,-0.488281,-0.610352,0.396729,29.962891
23600,-4.031836,7.474698,4.946421,-1.464844,-0.793457,0.335693,29.982422
23640,-4.046201,7.522582,4.960786,-0.366211,0.396729,-0.610352,29.974609
23680,-4.070143,7.556100,4.970363,1.281738,1.068115,-1.983643,29.982422
23720,-4.074931,7.546524,4.960786,0.030518,-0.152588,-1.922607,29.976562
23760,-4.108450,7.469909,4.989516,0.152588,1.861572,-0.030518,29.957031
23800,-4.055778,7.374141,4.936844,-0.305176,0.518799,-0.946045,29.986328
23840,-4.017470,7.426814,4.955997,-3.143311,0.793457,0.946045,29.984375
23880,-4.079720,7.479486,5.032612,-0.671387,0.183105,-0.915527,29.978516
23920,-4.084508,7.493851,5.032612,-2.166748,-2.929688,0.122070,29.996094
23960,-4.041412,7.493851,5.037400,-1.556396,-0.549316,1.434326,29.984375
24000,-4.036624,7.508216,5.061342,-1.678467,-2.044678,1.464844,30.003906
24040,-4.036624,7.508216,5.008670,-0.671387,-0.701904,1.068115,29.986328
24080,-4.050989,7.513005,5.008670,0.213623,0.030518,0.579834,30.005859
24120,-4.079720,7.503428,5.046977,0.518799,0.762939,0.854492,29.986328
24160,-4.084508,7.465121,5.032612,-0.274658,-0.183105,1.434326,29.976562
24200,-4.027047,7.426814,5.023035,-0.915527,0.152588,1.739502,30.001953
24240,-3.964798,7.407660,4.999093,-3.112793,-0.701904,0.915527,30.007812
24280,-3.950433,7.431602,4.994305,-3.936768,-0.335693,-0.946045,29.980469
24320,-3.940856,7.383718,4.841076,-10.284424,5.432129,0.305176,30.001953
24360,-4.199430,7.541735,5.185841,-3.479004,-2.777100,2.563477,29.998047
24400,-4.271256,7.656657,5.137957,-7.537842,0.457764,6.500244,30.000000
24440,-4.098873,7.407660,4.979939,-10.925293,-2.319336,8.300781,30.005859
24480,-3.835511,7.393295,5.473145,-7.904053,-11.199951,7.812500,30.015625
24520,-3.634398,7.426814,5.521029,-4.730225,-9.063721,5.340576,30.019531
24560,-3.591303,7.350199,5.310339,-6.103516,-8.270264,2.807617,30.015625
24600,-3.653552,7.278373,5.363012,-5.279541,-7.507324,3.173828,30.013672
24640,-3.667917,7.350199,5.573701,-3.723145,-10.284424,3.448486,30.011719
24680,-3.600879,7.398083,5.607220,0.885010,-3.417969,0.427246,30.003906
24720,-3.543418,7.302315,5.334281,0.793457,3.875732,-0.549316,29.990234
24760,-3.677494,7.393295,5.453991,-1.190186,-5.096436,3.570557,30.000000
24800,-3.629610,7.431602,5.540183,2.655029,3.601074,1.007080,30.039062
24840,-3.567361,7.359776,5.458780,-0.671387,-4.058838,2.258301,29.996094
24880,-3.490746,7.359776,5.473145,1.647949,1.922607,0.335693,30.033203
24920,-3.490746,7.345411,5.439626,3.601074,3.448486,-1.190186,30.019531
24960,-3.557784,7.335834,5.391742,1.159668,3.143311,-0.854492,30.003906
25000,-3.653552,7.378930,5.434838,-0.946045,-1.708984,0.823975,30.121094
25040,-3.581726,7.402872,5.453991,-0.762939,-0.457764,0.335693,30.117188
25080,-3.529053,7.422025,5.449203,0.183105,0.213623,0.396729,30.095703
25120,-3.533842,7.431602,5.434838,0.457764,0.427246,0.152588,30.111328
25160,-3.529053,7.426814,5.420473,0.640869,0.793457,-0.183105,30.105469
25200,-3.552995,7.450756,5.420473,-0.610352,-0.152588,0.152588,30.117188
25240,-3.567361,7.445967,5.434838,0.244141,0.915527,0.061035,30.123047
25280,-3.557784,7.431602,5.425261,0.579834,0.549316,-0.213623,30.117188
25320,-3.572149,7.426814,5.444415,-0.396729,-0.732422,0.885010,30.130859
25360,-3.552995,7.402872,5.434838,0.183105,0.000000,0.518799,30.121094
25400,-3.529053,7.402872,5.415684,-0.305176,0.000000,0.152588,30.115234
25440,-3.548207,7.417237,5.444415,0.335693,0.518799,-0.701904,30.115234
25480,-3.538630,7.393295,5.386954,-0.427246,-0.091553,0.213623,30.105469
25520,-3.548207,7.417237,5.401319,-0.183105,2.014160,-0.488281,30.136719
25560,-3.610456,7.489063,5.473145,0.396729,2.136230,-0.488281,30.134766
25600,-3.610456,7.489063,5.420473,0.732422,4.180908,-0.305176,30.123047
25640,-3.620033,7.493851,5.372589,0.152588,2.899170,0.335693,30.115234
25680,-3.624821,7.469909,5.401319,0.091553,2.655029,0.793457,30.134766
25720,-3.591303,7.359776,5.401319,1.678467,4.272461,-0.305176,30.117188
25760,-3.639187,7.345411,5.386954,1.037598,2.838135,-0.732422,30.123047
25800,-3.696647,7.359776,5.391742,0.061035,0.457764,-1.159668,30.126953
25840,-3.629610,7.307104,5.363012,-1.220703,-0.183105,-0.579834,30.119141
25880,-3.562572,7.311892,5.334281,-2.227783,-0.213623,-1.434326,30.119141
25920,-3.591303,7.412448,5.319916,-1.708984,0.823975,-2.716064,30.134766
25960,-3.667917,7.498640,5.430049,-0.457764,-0.213623,-2.258301,30.128906
26000,-3.696647,7.465121,5.449203,-0.488281,-1.892090,-0.396729,30.144531
26040,-3.682282,7.402872,5.420473,-0.244141,-0.427246,0.091553,30.148438
26080,-3.701436,7.402872,5.396531,-0.885010,-1.678467,0.427246,30.125000
26120,-3.677494,7.393295,5.329493,-0.274658,-1.007080,-0.457764,30.146484
26160,-3.663129,7.398083,5.334281,-0.915527,1.220703,-0.183105,30.144531
26200,-3.696647,7.383718,5.382165,-0.823975,-0.183105,-0.030518,30.117188
26240,-3.696647,7.383718,5.444415,-0.610352,-0.488281,0.885010,30.132812
26280,-3.658340,7.393295,5.477933,-0.030518,-0.152588,0.549316,30.138672
26320,-3.629610,7.393295,5.415684,-0.762939,-1.129150,0.152588,30.130859
26360,-3.629610,7.374141,5.367800,-0.671387,0.701904,-1.007080,30.148438
26400,-3.663129,7.374141,5.343858,-1.251221,0.122070,-0.488281,30.152344
26440,-3.677494,7.417237,5.439626,-0.305176,2.014160,-0.457764,30.146484
26480,-3.706224,7.460332,5.554548,0.854492,1.739502,-0.152588,30.173828
26520,-3.720589,7.393295,5.477933,1.678467,0.823975,0.854492,30.162109
26560,-3.658340,7.307104,5.358223,0.762939,0.518799,0.854492,30.160156
26600,-3.620033,7.311892,5.334281,-1.892090,-0.671387,-0.152588,30.162109
26640,-3.605668,7.359776,5.386954,0.274658,0.396729,-2.105713,30.164062
26680,-3.643975,7.431602,5.449203,1.464844,-0.183105,-2.014160,30.181641
26720,-3.634398,7.441179,5.439626,1.678467,0.366211,-1.892090,30.169922
26760,-3.677494,7.383718,5.410896,0.457764,-0.518799,-0.366211,30.156250
26800,-3.730166,7.350199,5.377377,0.640869,-1.037598,-0.305176,30.181641
26840,-3.725378,7.364564,5.372589,0.671387,-0.549316,-0.915527,30.175781
26880,-3.687071,7.383718,5.343858,1.159668,0.274658,-1.495361,30.166016
26920,-3.696647,7.398083,5.295974,-0.152588,0.244141,-1.037598,30.166016
26960,-3.758897,7.412448,5.281609,0.701904,0.915527,-0.854492,30.171875
27000,-3.730166,7.374141,5.401319,4.760742,-3.234863,0.030518,30.248047
27040,-3.653552,7.354988,5.578490,15.258789,-11.627197,-3.265381,30.238281
27080,-3.610456,7.450756,5.588067,26.824951,-17.578125,-4.791260,30.232422
27120,-3.629610,7.532158,5.310339,29.479980,-13.854980,-19.195557,30.253906
27160,-3.744531,7.733272,4.979939,11.932373,-6.500244,-12.847900,30.253906
27200,-3.629610,7.704541,4.960786,0.427246,-4.638672,-1.373291,30.244141
27240,-3.672705,7.498640,4.932055,3.204346,-1.556396,-4.180908,30.271484
27280,-3.840300,7.580042,4.836287,-12.298584,1.525879,5.310059,30.269531
27320,-3.773262,7.651869,5.090073,-9.246826,0.854492,1.251221,30.257812
27360,-3.730166,7.594408,5.339070,-3.936768,-6.958008,4.302979,30.234375
27400,-3.557784,7.522582,5.391742,-1.129150,-4.119873,1.373291,30.255859
27440,-3.624821,7.498640,5.195418,2.349854,-2.410889,-0.274658,30.263672
27480,-3.687071,7.556100,5.099649,2.655029,1.556396,1.434326,30.267578
27520,-3.653552,7.603985,5.157111,-0.183105,1.434326,1.739502,30.261719
27560,-3.615245,7.546524,5.142745,-1.464844,-0.213623,1.586914,30.265625
27600,-3.610456,7.556100,5.195418,-0.122070,2.105713,1.983643,30.255859
27640,-3.615245,7.584831,5.219360,1.739502,2.319336,1.434326,30.261719
27680,-3.591303,7.613562,5.214571,0.732422,1.983643,0.579834,30.289062
27720,-3.581726,7.594408,5.128380,-0.579834,1.220703,1.556396,30.257812
27760,-3.552995,7.565677,5.123591,-0.488281,2.960205,1.525879,30.269531
27800,-3.543418,7.541735,5.070919,-2.532959,2.899170,-0.701904,30.242188
27840,-3.691859,7.623138,5.142745,-7.659912,-7.629395,3.356934,30.296875
27880,-3.778050,7.723695,5.161899,-5.676270,0.366211,5.889893,30.277344
27920,-3.667917,7.637504,5.142745,-7.476807,-3.997803,7.720947,30.291016
27960,-3.361459,7.450756,5.310339,-5.279541,-2.838135,6.896973,30.281250
28000,-3.318364,7.455544,5.439626,-1.007080,0.457764,7.537842,30.275391
28040,-3.447650,7.651869,5.449203,-2.319336,-2.044678,7.690430,30.277344
28080,-3.318364,7.690176,5.468357,-3.509521,-7.781982,4.211426,30.287109
28120,-3.107674,7.536947,5.425261,0.762939,1.556396,-0.122070,30.294922
28160,-3.107674,7.364564,5.209783,5.615234,11.657715,-5.126953,30.273438
28200,-3.356671,7.589619,5.353435,-4.364014,-8.087158,1.159668,30.291016
28240,-3.270479,7.556100,5.477933,1.922607,1.281738,-2.777100,30.271484
28280,-3.270479,7.503428,5.396531,5.432129,4.791260,-3.326416,30.296875
28320,-3.394978,7.618350,5.348647,4.180908,1.861572,-3.234863,30.306641
28360,-3.394978,7.580042,5.267244,8.483887,6.195068,-5.645752,30.257812
28400,-3.495534,7.637504,5.219360,7.110596,6.927490,-3.936768,30.294922
28440,-3.701436,7.728483,5.085284,2.227783,0.640869,0.946045,30.304688
28480,-3.586514,7.685388,5.090073,2.166748,-1.220703,-0.671387,30.296875
28520,-3.457227,7.656657,5.109226,2.258301,2.319336,0.640869,30.304688
28560,-3.438074,7.675811,5.104438,1.983643,2.136230,-0.183105,30.287109
28600,-3.438074,7.666234,5.080496,0.305176,0.762939,-0.213623,30.306641
28640,-3.519476,7.718906,5.099649,0.610352,1.770020,0.061035,30.294922
28680,-3.442862,7.671022,5.142745,2.593994,1.159668,-1.617432,30.320312
28720,-3.442862,7.666234,5.070919,2.929688,5.767822,-1.617432,30.310547
28760,-3.552995,7.685388,4.955997,2.075195,4.974365,-3.936768,30.320312
28800,-3.715801,7.699753,4.879383,-7.019043,-9.185791,0.976562,30.314453
28840,-3.778050,7.781156,5.075707,-4.333496,-3.387451,4.180908,30.324219
28880,-3.782839,7.824251,5.070919,-8.422852,-4.486084,6.805420,30.335938
28920,-3.442862,7.632715,5.142745,-7.781982,-7.324219,4.852295,30.345703
28960,-3.136404,7.498640,5.295974,-4.150391,-2.166748,1.281738,30.378906
29000,-3.145981,7.527370,5.391742,-3.112793,-1.159668,0.000000,30.402344
29040,-3.371036,7.618350,5.343858,-1.373291,-0.732422,-0.091553,30.396484
29080,-3.438074,7.627927,5.233725,-0.610352,-0.396729,-0.579834,30.394531
29120,-3.399766,7.608773,5.281609,0.701904,1.617432,-1.159668,30.398438
29160,-3.414132,7.618350,5.319916,1.373291,3.265381,-2.471924,30.378906
29200,-3.447650,7.580042,5.228937,0.793457,3.631592,-3.112793,30.396484
29240,-3.490746,7.522582,5.104438,-3.417969,1.342773,-2.655029,30.398438
29280,-3.624821,7.647080,5.267244,-4.180908,-3.845215,2.777100,30.394531
29320,-3.600879,7.709330,5.363012,0.244141,-1.800537,1.647949,30.402344
29360,-3.366248,7.647080,5.343858,-6.744385,-7.263184,4.760742,30.406250
29400,-3.227384,7.536947,5.319916,-3.051758,-0.213623,2.288818,30.416016
29440,-3.236961,7.517793,5.348647,-0.793457,1.495361,0.732422,30.410156
29480,-3.342306,7.536947,5.319916,-0.274658,1.037598,-0.335693,30.410156
29520,-3.375824,7.546524,5.339070,-0.183105,1.342773,-0.793457,30.400391
29560,-3.337517,7.541735,5.434838,0.427246,0.854492,-0.427246,30.402344
29600,-3.289633,7.532158,5.382165,1.068115,2.777100,-1.525879,30.441406
29640,-3.380613,7.575254,5.305551,0.335693,0.793457,-1.708984,30.416016
29680,-3.423708,7.608773,5.343858,0.518799,-0.793457,-1.342773,30.423828
29720,-3.418920,7.575254,5.329493,0.854492,0.915527,-1.312256,30.417969
29760,-3.414132,7.584831,5.315128,0.457764,-0.091553,-1.129150,30.410156
29800,-3.385401,7.589619,5.319916,0.885010,0.732422,-0.885010,30.441406
29840,-3.414132,7.594408,5.319916,1.556396,-0.122070,-0.946045,30.416016
29880,-3.447650,7.580042,5.295974,0.885010,1.068115,-1.586914,30.414062
29920,-3.466804,7.513005,5.300763,0.488281,-0.061035,-0.823975,30.414062
29960,-3.418920,7.493851,5.257667,-0.427246,-0.396729,-0.732422,30.425781
30000,-3.433285,7.551312,5.310339,-0.396729,0.091553,-1.098633,30.435547
30040,-3.471592,7.580042,5.329493,-1.251221,-1.129150,-0.274658,30.423828
30080,-3.490746,7.584831,5.329493,-0.091553,0.061035,-0.579834,30.425781
30120,-3.514688,7.594408,5.329493,0.366211,0.061035,-0.213623,30.455078
30160,-3.476381,7.560889,5.305551,0.152588,-1.037598,0.610352,30.470703
30200,-3.409343,7.541735,5.305551,-0.854492,-0.061035,0.335693,30.447266
30240,-3.423708,7.570466,5.382165,0.030518,0.671387,0.091553,30.455078
30280,-3.438074,7.565677,5.363012,0.518799,1.190186,0.091553,30.427734
30320,-3.438074,7.541735,5.291186,-0.030518,-0.579834,-0.823975,30.427734
30360,-3.371036,7.422025,5.099649,0.000000,6.195068,-3.112793,30.441406
30400,-3.615245,7.651869,5.377377,-4.943848,-9.033203,3.509521,30.443359
30440,-3.620033,7.757214,5.506664,4.516602,1.525879,0.885010,30.435547
30480,-3.342306,7.527370,5.372589,-0.274658,-5.218506,0.518799,30.441406
30520,-3.265691,7.465121,5.358223,-3.173828,-3.448486,2.380371,30.455078
30560,-3.366248,7.594408,5.310339,-1.037598,-1.068115,2.563477,30.439453
30600,-3.385401,7.589619,5.276821,0.488281,0.610352,-0.640869,30.447266
30640,-3.375824,7.479486,5.353435,-0.946045,-2.288818,-0.762939,30.464844
30680,-3.366248,7.474698,5.434838,-0.976562,-2.166748,-0.152588,30.447266
30720,-3.375824,7.556100,5.401319,-0.610352,-0.549316,-0.061035,30.439453
30760,-3.337517,7.560889,5.377377,-0.427246,-0.396729,0.000000,30.458984
30800,-3.347094,7.570466,5.453991,-0.701904,-1.403809,0.396729,30.453125
30840,-3.332729,7.570466,5.377377,-1.647949,-2.136230,0.671387,30.468750
30880,-3.366248,7.589619,5.363012,-2.655029,-2.624512,1.434326,30.460938
30920,-3.366248,7.541735,5.410896,-0.274658,0.762939,0.732422,30.460938
30960,-3.385401,7.498640,5.420473,-2.716064,-1.403809,2.197266,30.539062
31000,-3.361459,7.469909,5.401319,-4.394531,-2.746582,2.410889,30.533203
31040,-3.270479,7.412448,5.420473,-3.173828,-0.549316,1.953125,30.521484
31080,-3.236961,7.460332,5.487510,-4.638672,-2.563477,2.105713,30.542969
31120,-3.193865,7.517793,5.535394,-3.967285,-1.373291,0.488281,30.529297
31160,-3.174711,7.503428,5.549759,-0.946045,0.122070,-0.579834,30.556641
31200,-3.160346,7.465121,5.549759,0.732422,1.831055,-0.885010,30.541016
31240,-3.213019,7.498640,5.530606,-0.030518,1.464844,-0.701904,30.533203
31280,-3.241749,7.517793,5.501875,-1.434326,0.915527,-0.579834,30.546875
31320,-3.208230,7.503428,5.554548,-1.495361,1.464844,-0.366211,30.517578
31360,-3.189077,7.455544,5.564125,-1.678467,0.091553,-1.251221,30.570312
31400,-3.256114,7.455544,5.535394,-2.502441,0.366211,-1.678467,30.539062
31440,-3.366248,7.465121,5.521029,-2.258301,-0.061035,-1.373291,30.556641
31480,-3.414132,7.465121,5.554548,-2.532959,-0.488281,0.305176,30.564453
31520,-3.318364,7.436390,5.597643,-2.624512,-1.373291,0.030518,30.572266
31560,-3.246537,7.426814,5.616797,-1.922607,-2.136230,0.396729,30.570312
31600,-3.198653,7.426814,5.669470,0.183105,0.335693,-0.610352,30.552734
31640,-3.165135,7.292738,5.477933,7.232666,16.693115,-7.171631,30.550781
31680,-3.442862,7.474698,5.559336,-6.134033,-4.760742,2.655029,30.558594
31720,-3.557784,7.546524,5.693412,-2.746582,-10.314941,3.234863,30.541016
31760,-3.299210,7.378930,5.597643,4.913330,2.044678,-0.122070,30.564453
31800,-3.126827,7.469909,5.760449,-2.441406,-4.364014,4.058838,30.550781
31840,-3.145981,7.522582,5.650316,1.495361,-0.946045,0.610352,30.546875
31880,-3.198653,7.450756,5.449203,3.051758,-0.549316,-1.831055,30.568359
31920,-3.270479,7.441179,5.564125,6.256104,-3.479004,-1.281738,30.560547
31960,-3.189077,7.445967,5.717354,15.441895,1.586914,-1.953125,30.568359
32000,-3.241749,7.522582,5.607220,16.815186,-5.035400,-4.486084,30.568359
32040,-3.227384,7.599196,5.329493,9.979248,-4.882812,-4.089355,30.568359
32080,-3.222595,7.608773,5.137957,0.396729,-2.929688,-0.335693,30.568359
32120,-3.160346,7.580042,5.276821,-0.335693,0.152588,-0.762939,30.572266
32160,-3.184288,7.556100,5.415684,1.861572,0.762939,-0.457764,30.599609
32200,-3.280056,7.575254,5.439626,2.319336,-1.098633,-0.640869,30.566406
32240,-3.280056,7.589619,5.348647,1.434326,-0.549316,0.366211,30.578125
32280,-3.327940,7.666234,5.310339,2.532959,-3.540039,1.800537,30.589844
32320,-3.289633,7.699753,5.238513,2.258301,0.915527,-2.441406,30.572266
32360,-3.323152,7.771579,5.214571,-14.801025,-7.598877,2.899170,30.570312
32400,-3.055001,7.522582,5.358223,-0.244141,4.333496,-2.624512,30.597656
32440,-3.131616,7.517793,5.506664,1.586914,4.943848,-0.244141,30.589844
32480,-3.260903,7.627927,5.477933,-0.976562,3.204346,0.213623,30.589844
32520,-3.203442,7.575254,5.348647,0.152588,5.767822,-0.274658,30.578125
32560,-3.222595,7.503428,5.214571,-5.432129,2.136230,-1.617432,30.576172
32600,-3.409343,7.599196,5.391742,-9.704590,-5.065918,4.852295,30.603516
32640,-3.423708,7.656657,5.554548,-0.671387,1.281738,3.662109,30.589844
32680,-3.232172,7.584831,5.425261,-3.906250,-6.072998,1.800537,30.585938
32720,-3.098097,7.556100,5.439626,-8.300781,-4.974365,5.767822,30.585938
32760,-2.987964,7.503428,5.592855,1.190186,5.157471,0.946045,30.597656
32800,-3.026271,7.460332,5.530606,2.105713,7.965088,-1.953125,30.585938
32840,-3.241749,7.599196,5.588067,-5.310059,-7.476807,3.051758,30.587891
32880,-3.208230,7.656657,5.674258,-1.556396,-4.119873,3.021240,30.615234
32920,-3.074155,7.536947,5.439626,5.615234,7.720947,-3.082275,30.677734
32960,-3.198653,7.570466,5.468357,-1.556396,-3.997803,0.823975,30.664062
33000,-3.083732,7.498640,5.607220,0.610352,-0.823975,-1.007080,30.703125
33040,-2.944868,7.340622,5.477933,6.530762,10.284424,-6.469727,30.687500
33080,-3.294421,7.474698,5.367800,-0.122070,0.366211,-1.647949,30.669922
33120,-3.452439,7.671022,5.568913,-2.960205,-11.535645,1.342773,30.673828
33160,-3.198653,7.546524,5.516241,4.455566,2.685547,-1.586914,30.673828
33200,-3.145981,7.599196,5.477933,0.732422,-1.586914,2.288818,30.691406
33240,-3.198653,7.699753,5.468357,1.647949,-0.823975,0.885010,30.683594
33280,-3.179500,7.618350,5.415684,2.227783,1.098633,0.274658,30.691406
33320,-3.179500,7.536947,5.401319,1.800537,0.457764,0.671387,30.693359
33360,-3.184288,7.570466,5.425261,-0.122070,-1.281738,1.281738,30.708984
33400,-3.122039,7.565677,5.430049,-0.335693,-1.434326,0.732422,30.701172
33440,-3.040636,7.546524,5.401319,0.579834,1.495361,0.000000,30.683594
33480,-3.107674,7.594408,5.396531,0.793457,1.129150,-0.488281,30.689453
33520,-3.136404,7.627927,5.444415,-1.007080,-1.495361,-0.396729,30.701172
33560,-3.131616,7.570466,5.410896,-0.579834,-1.525879,0.305176,30.707031
33600,-3.122039,7.599196,5.415684,-0.244141,-0.762939,0.396729,30.697266
33640,-3.122039,7.647080,5.449203,0.122070,0.122070,-0.152588,30.712891
33680,-3.126827,7.632715,5.425261,-0.488281,-0.091553,-0.213623,30.714844
33720,-3.145981,7.632715,5.401319,-0.488281,-0.823975,0.122070,30.708984
33760,-3.145981,7.627927,5.449203,0.396729,-0.335693,0.091553,30.710938
33800,-3.131616,7.608773,5.482722,0.427246,0.457764,0.762939,30.714844
33840,-3.117251,7.599196,5.439626,0.549316,0.457764,0.701904,30.707031
33880,-3.126827,7.603985,5.420473,-0.030518,0.030518,0.579834,30.708984
33920,-3.088520,7.560889,5.420473,0.122070,1.586914,0.610352,30.712891
33960,-3.083732,7.551312,5.391742,-0.396729,1.861572,0.061035,30.703125
34000,-3.102885,7.594408,5.391742,-1.464844,0.244141,-0.701904,30.736328
34040,-3.069367,7.594408,5.439626,-1.220703,1.129150,-0.579834,30.730469
34080,-3.059790,7.608773,5.482722,-0.701904,3.204346,-0.335693,30.712891
34120,-3.131616,7.627927,5.458780,-0.976562,1.861572,-0.366211,30.710938
34160,-3.213019,7.603985,5.425261,-1.159668,1.098633,-0.152588,30.714844
34200,-3.203442,7.594408,5.482722,1.739502,2.166748,-1.403809,30.742188
34240,-3.174711,7.608773,5.482722,2.838135,0.396729,-1.464844,30.720703
34280,-3.155558,7.642292,5.444415,3.173828,-0.122070,-1.831055,30.722656
34320,-3.093309,7.599196,5.492299,7.843018,1.617432,-3.326416,30.744141
34360,-3.169923,7.623138,5.449203,3.204346,-5.767822,-2.746582,30.726562
34400,-3.241749,7.642292,5.233725,-3.509521,-2.227783,3.295898,30.728516
34440,-3.169923,7.584831,5.176264,-6.835938,2.441406,3.509521,30.736328
34480,-3.213019,7.613562,5.353435,-1.983643,3.845215,-1.922607,30.734375
34520,-3.217807,7.661446,5.434838,-2.258301,1.068115,-2.319336,30.730469
34560,-3.189077,7.623138,5.511452,-3.082275,-1.342773,-1.586914,30.746094
34600,-3.203442,7.565677,5.516241,1.708984,0.213623,-1.831055,30.738281
34640,-3.256114,7.560889,5.430049,5.462646,3.234863,-1.831055,30.736328
34680,-3.308787,7.608773,5.324705,2.258301,0.854492,-1.037598,30.724609
34720,-3.213019,7.546524,5.329493,2.471924,4.058838,-2.197266,30.742188
34760,-3.203442,7.541735,5.377377,0.762939,3.967285,-1.159668,30.746094
34800,-3.246537,7.584831,5.406107,1.129150,4.486084,-0.976562,30.738281
34840,-3.246537,7.584831,5.382165,4.638672,6.835938,-2.105713,30.746094
34880,-3.351882,7.661446,5.305551,3.387451,5.432129,-1.220703,30.740234
34920,-3.442862,7.699753,5.171476,0.579834,3.936768,0.488281,30.808594
34960,-3.409343,7.613562,5.051765,-1.678467,4.516602,-2.960205,30.812500
35000,-3.591303,7.757214,5.204995,-11.444092,-9.185791,5.310059,30.810547
35040,-3.610456,7.762002,5.257667,-3.631592,-1.739502,3.601074,30.818359
35080,-3.294421,7.532158,5.401319,2.532959,-3.265381,1.159668,30.820312
35120,-3.059790,7.556100,5.674258,1.190186,-3.875732,5.584717,30.820312
35160,-2.992752,7.551312,5.415684,3.967285,5.157471,-1.647949,30.804688
35200,-3.031059,7.412448,4.999093,-3.509521,6.988525,-7.476807,30.837891
35240,-3.567361,7.642292,5.195418,-11.566162,-8.911133,3.662109,30.837891
35280,-3.533842,7.580042,5.310339,10.223389,16.906738,-6.561279,30.830078
35320,-3.428497,7.666234,5.434838,-1.068115,3.112793,-0.549316,30.835938
35360,-3.308787,7.685388,5.588067,-0.823975,-1.983643,0.213623,30.822266
35400,-3.251326,7.608773,5.425261,3.204346,0.244141,-2.380371,30.826172
35440,-3.332729,7.508216,5.152322,1.251221,2.655029,-2.105713,30.820312
35480,-3.529053,7.532158,5.133168,-0.457764,4.272461,-1.861572,30.853516
35520,-3.591303,7.551312,5.262455,0.061035,4.333496,-2.105713,30.822266
35560,-3.524265,7.513005,5.267244,0.091553,4.882812,-2.960205,30.824219
35600,-3.485958,7.536947,5.238513,0.335693,7.385254,-4.699707,30.820312
35640,-3.529053,7.575254,5.195418,1.068115,8.941650,-5.126953,30.826172
35680,-3.567361,7.527370,5.123591,7.781982,15.319824,-11.077881,30.830078
35720,-3.643975,7.508216,5.008670,17.303467,30.151367,-21.545410,30.847656
35760,-3.950433,7.656657,5.027823,20.599365,38.238525,-20.324707,30.843750
35800,-4.252102,7.771579,4.927267,17.089844,35.278320,-14.343262,30.845703
35840,-4.438850,7.661446,4.587290,6.958008,18.005371,-6.591797,30.832031
35880,-4.491522,7.546524,4.371812,5.004883,11.566162,-3.173828,30.853516
35920,-4.587290,7.556100,4.285621,2.288818,5.706787,-1.770020,30.851562
35960,-4.625597,7.575254,4.276044,-1.312256,0.823975,0.549316,30.843750
36000,-4.587290,7.580042,4.319140,-0.091553,2.502441,-1.495361,30.861328
36040,-4.611232,7.613562,4.328717,-0.427246,1.922607,-0.854492,30.833984
36080,-4.635174,7.637504,4.319140,-2.685547,-0.213623,1.281738,30.839844
36120,-4.606444,7.647080,4.357447,-1.403809,0.244141,0.396729,30.861328
36160,-4.587290,7.618350,4.386178,-1.373291,-0.396729,0.762939,30.841797
36200,-4.534618,7.570466,4.352659,-0.946045,0.396729,0.366211,30.853516
36240,-4.558560,7.580042,4.323928,-0.122070,1.708984,-0.488281,30.867188
36280,-4.572925,7.580042,4.304775,-0.091553,3.234863,-1.068115,30.863281
36320,-4.563348,7.522582,4.304775,-1.434326,3.906250,-1.525879,30.869141
36360,-4.563348,7.508216,4.290410,-2.044678,2.929688,-1.312256,30.873047
36400,-4.572925,7.541735,4.328717,-1.647949,2.777100,-2.410889,30.853516
36440,-4.616021,7.580042,4.400543,-1.281738,1.525879,-2.960205,30.853516
36480,-4.625597,7.575254,4.400543,-0.640869,4.333496,-3.021240,30.871094
36520,-4.702212,7.599196,4.376601,0.579834,5.462646,-2.929688,30.843750
36560,-4.735731,7.613562,4.376601,5.401611,15.838623,-3.753662,30.867188
36600,-4.707001,7.541735,4.299986,6.591797,20.416260,-6.469727,30.876953
36640,-4.812346,7.484274,4.180276,-3.906250,19.165039,-4.974365,30.876953
36680,-4.984728,7.364564,4.055778,-8.605957,23.132324,-11.016846,30.884766
36720,-5.032612,7.321469,4.094085,1.068115,43.518066,-12.512207,30.884766
36760,-5.224148,7.354988,3.892972,-0.732422,25.299072,0.701904,30.871094
36800,-5.535394,7.445967,3.720589,-5.584717,7.232666,1.403809,30.871094
36840,-5.468357,7.412448,3.672705,-3.753662,-2.593994,0.122070,30.882812
36880,-5.382165,7.388506,3.763685,-1.403809,-3.509521,-0.976562,30.939453
36920,-5.477933,7.436390,3.964798,14.984131,-8.422852,8.972168,30.935547
36960,-5.453991,7.383718,3.701436,3.265381,-35.644531,0.976562,30.958984
37000,-5.272032,7.422025,3.620033,-10.437012,-18.951416,14.312744,30.947266
37040,-4.955997,7.426814,3.643975,-3.784180,17.730713,2.075195,30.958984
37080,-5.252879,7.733272,3.797204,-9.002686,6.744385,-3.051758,30.957031
37120,-5.185841,7.685388,4.242526,-7.873535,-10.711670,0.854492,30.953125
37160,-4.797980,7.364564,4.462792,7.293701,7.232666,-2.532959,30.957031
37200,-4.702212,7.196970,4.247314,13.916016,24.932861,-8.911133,30.953125
37240,-5.267244,7.407660,3.983952,-3.173828,15.167236,-11.322021,30.943359
37280,-5.348647,7.369353,3.773262,5.157471,32.135010,-20.141602,30.964844
37320,-5.281609,7.287950,3.706224,1.129150,45.684814,-20.446777,30.974609
37360,-5.559336,7.283162,3.476381,-12.542725,44.738770,-6.805420,30.953125
37400,-6.200983,7.383718,3.256114,-11.657715,42.602539,-6.591797,30.970703
37440,-6.469133,7.321469,3.232172,-6.256104,-13.458252,1.800537,30.978516
37480,-6.090849,7.125144,3.337517,-5.950928,-11.566162,3.723145,31.000000
37520,-5.837064,6.962338,3.438074,5.798340,12.786865,-4.211426,30.972656
37560,-5.975927,7.058106,3.313575,-0.793457,3.997803,-1.739502,30.972656
37600,-6.014235,7.058106,3.203442,5.706787,25.543213,-6.317139,30.988281
37640,-6.004658,7.038953,3.227384,2.288818,20.111084,-8.483887,30.982422
37680,-5.966351,6.919243,3.179500,12.023926,51.605225,-16.448975,30.964844
37720,-6.167464,6.904878,2.906561,3.326416,41.870117,-13.916016,30.976562
37760,-6.397307,7.082048,2.513912,-4.150391,69.152832,-2.929688,30.972656
37800,-6.756437,7.115568,2.202666,4.394531,65.643311,-9.216309,30.988281
37840,-7.029376,7.144298,1.920150,-8.850098,5.432129,-4.364014,30.982422
37880,-6.962338,7.062895,2.102109,-3.814697,-6.652832,-1.678467,30.982422
37920,-6.938396,6.995857,2.351106,0.976562,-23.193359,8.850098,30.988281
37960,-6.651093,6.804321,2.293645,8.972168,-8.758545,8.728027,30.962891
38000,-6.766014,6.861782,2.159570,-9.979248,-41.961670,12.451172,30.988281
38040,-6.627151,6.928820,2.317587,2.105713,-22.583008,7.293701,30.978516
38080,-6.426037,7.091625,2.427721,-0.091553,-10.711670,8.666992,30.984375
38120,-6.344635,7.196970,2.580950,-12.603760,-26.397705,9.460449,30.980469
38160,-6.239290,7.115568,2.753332,-4.150391,-23.468018,4.608154,30.974609
38200,-6.157887,7.072472,2.758120,-0.122070,-3.387451,3.692627,30.982422
38240,-6.234501,7.134721,2.724602,-6.500244,-13.427734,3.814697,30.970703
38280,-6.248867,7.158663,2.868254,-7.202148,-15.533447,3.082275,31.001953
38320,-6.129156,7.163452,3.078943,-0.518799,-4.730225,1.861572,30.978516
38360,-6.090849,7.211336,3.074155,-5.432129,-9.582520,3.692627,30.994141
38400,-6.100426,7.225701,3.093309,-1.831055,-5.432129,2.624512,31.013672
38440,-6.019023,7.196970,3.165135,0.457764,-4.638672,1.281738,30.992188
38480,-5.985504,7.168240,3.189077,2.655029,-13.610840,4.547119,31.003906
38520,-5.980716,7.192182,3.198653,8.789062,-18.157959,5.340576,31.007812
38560,-5.865794,7.187394,3.265691,17.517090,-16.265869,4.302979,30.978516
38600,-5.779603,7.307104,3.327940,15.563965,-13.275146,4.791260,30.994141
38640,-5.664681,7.417237,3.380613,22.674561,-13.366699,8.880615,30.984375
38680,-5.722142,7.493851,3.107674,13.549805,-12.023926,14.251709,30.988281
38720,-5.554548,7.603985,2.997540,-2.258301,1.708984,6.591797,30.998047
38760,-5.458780,7.603985,3.093309,-13.519287,-9.246826,-7.537842,31.009766
38800,-5.540183,7.436390,3.045424,7.751465,11.535645,2.593994,30.998047
38840,-5.770026,7.426814,3.002329,2.441406,-2.197266,-3.082275,31.009766
38880,-5.774815,7.460332,2.772485,-17.272949,-5.767822,-4.028320,31.080078
38920,-5.822699,7.517793,2.853889,-9.582520,8.239746,-2.868652,31.074219
38960,-5.736507,7.527370,2.916138,-11.138916,10.437012,-3.540039,31.107422
39000,-5.573701,7.469909,3.265691,1.007080,2.960205,-3.204346,31.087891
39040,-5.406107,7.292738,3.706224,16.113281,14.190674,-9.216309,31.078125
39080,-5.358223,7.240066,3.562572,-0.213623,6.439209,-6.072998,31.080078
39120,-5.726931,7.455544,3.280056,-14.831543,-17.761230,4.333496,31.078125
39160,-6.004658,7.627927,3.361459,-2.105713,-9.429932,2.563477,31.103516
39200,-5.837064,7.580042,3.342306,0.762939,-13.000488,1.953125,31.091797
39240,-5.746084,7.532158,3.179500,4.516602,-1.373291,2.624512,31.087891
39280,-5.578490,7.340622,3.074155,4.425049,4.974365,-3.417969,31.095703
39320,-5.803545,7.240066,2.959233,-1.098633,-0.671387,2.410889,31.103516
39360,-5.937620,7.364564,3.165135,3.143311,4.547119,1.068115,31.101562
39400,-5.621585,7.331046,3.241749,6.225586,11.138916,-3.601074,31.072266
39440,-5.559336,7.340622,3.241749,-4.364014,-5.371094,-0.549316,31.083984
39480,-5.631162,7.345411,3.078943,-6.225586,5.554199,-2.624512,31.111328
39520,-5.741296,7.345411,3.035848,-13.214111,-1.464844,-3.997803,31.105469
39560,-5.942409,7.402872,3.174711,-6.408691,5.310059,-1.464844,31.095703
39600,-5.899313,7.316680,3.136404,-4.058838,7.415771,-3.417969,31.089844
39640,-5.779603,7.374141,3.332729,-3.021240,9.918213,2.349854,31.103516
39680,-5.540183,7.177817,3.318364,7.171631,33.111572,-14.526367,31.111328
39720,-5.736507,7.230489,3.098097,-15.747070,24.627686,-6.469727,31.103516
39760,-6.062119,7.316680,3.117251,-12.115479,37.445068,0.854492,31.121094
39800,-6.335058,7.335834,2.892196,-2.929688,30.334473,-4.241943,31.099609
39840,-6.560112,7.374141,2.930503,-1.251221,-3.631592,5.126953,31.123047
39880,-6.172252,7.182605,3.016694,-0.488281,-8.300781,5.218506,31.105469
39920,-6.081272,7.110779,2.997540,8.087158,-3.723145,4.699707,31.113281
39960,-6.181829,7.244854,2.954445,2.807617,-13.061523,2.929688,31.107422
40000,-5.971139,7.278373,2.829947,-4.028320,-12.664795,3.753662,31.113281
40040,-5.942409,7.259220,2.858677,-6.011963,-7.598877,3.265381,31.085938
40080,-6.023811,7.268796,3.011906,-7.629395,-11.260986,3.173828,31.109375
40120,-5.990293,7.307104,3.150769,-6.500244,-11.535645,2.716064,31.109375
40160,-5.913678,7.311892,3.256114,-9.826660,-17.028809,4.974365,31.113281
40200,-5.750873,7.244854,3.318364,-3.509521,-8.880615,0.885010,31.126953
40240,-5.679047,7.211336,3.303998,-4.150391,-5.035400,0.701904,31.134766
40280,-5.760449,7.249643,3.366248,-2.044678,-3.265381,-0.366211,31.138672
40320,-5.822699,7.278373,3.462016,-2.655029,-5.187988,3.112793,31.125000
40360,-5.784391,7.273585,3.495534,-2.960205,-5.493164,2.105713,31.136719
40400,-5.760449,7.249643,3.390190,-2.960205,-2.716064,2.502441,31.146484
40440,-5.765238,7.268796,3.313575,-6.408691,-3.845215,3.814697,31.128906
40480,-5.746084,7.359776,3.538630,-8.544922,-10.681152,4.974365,31.162109
40520,-5.655105,7.364564,3.787627,-9.277344,-14.739990,4.852295,31.136719
40560,-5.444415,7.264008,3.931279,-6.195068,-10.528564,4.028320,31.156250
40600,-5.300763,7.158663,3.907337,-5.218506,-5.279541,1.892090,31.146484
40640,-5.430049,7.182605,3.864242,-5.401611,-7.934570,1.861572,31.158203
40680,-5.468357,7.225701,3.974375,-5.249023,-11.474609,1.861572,31.156250
40720,-5.315128,7.196970,4.108450,-1.739502,-9.155273,0.610352,31.166016
40760,-5.185841,7.062895,3.897760,6.988525,18.737793,-5.065918,31.148438
40800,-5.621585,7.321469,3.859453,-4.272461,-5.889893,2.136230,31.167969
40840,-5.679047,7.455544,4.185065,-1.129150,-12.664795,3.570557,31.240234
40880,-5.233725,7.216124,4.055778,4.241943,5.371094,-0.915527,31.214844
40920,-5.200206,7.120356,3.988740,-1.464844,-1.708984,0.793457,31.232422
40960,-5.310339,7.216124,4.084508,-0.152588,0.793457,0.274658,31.191406
41000,-5.339070,7.249643,3.969586,2.380371,2.166748,-1.159668,31.214844
41040,-5.339070,7.230489,3.907337,2.349854,-0.305176,0.335693,31.224609
41080,-5.291186,7.230489,3.964798,1.586914,-1.281738,0.366211,31.218750
41120,-5.315128,7.335834,4.108450,0.366211,-0.335693,-1.525879,31.208984
41160,-5.363012,7.426814,4.199430,1.525879,-1.464844,-1.373291,31.214844
41200,-5.406107,7.431602,4.103662,4.974365,-0.213623,-0.640869,31.228516
41240,-5.482722,7.393295,3.960010,6.195068,-0.915527,0.793457,31.253906
41280,-5.463568,7.311892,3.849876,5.584717,0.701904,0.579834,31.228516
41320,-5.372589,7.244854,3.816358,4.333496,1.892090,-0.061035,31.244141
41360,-5.334281,7.240066,3.830723,5.096436,3.601074,-0.488281,31.253906
41400,-5.377377,7.307104,3.869030,3.814697,1.037598,-0.732422,31.226562
41440,-5.391742,7.340622,3.859453,2.502441,0.366211,-0.213623,31.242188
41480,-5.367800,7.302315,3.754108,4.272461,2.349854,-0.335693,31.240234
41520,-5.353435,7.273585,3.730166,4.425049,4.547119,-2.838135,31.236328
41560,-5.401319,7.321469,3.768473,1.281738,-0.915527,-2.716064,31.250000
41600,-5.458780,7.388506,3.758897,2.685547,-0.549316,-0.305176,31.240234
41640,-5.425261,7.388506,3.677494,4.364014,3.753662,-1.281738,31.240234
41680,-5.386954,7.369353,3.667917,2.990723,2.746582,-1.434326,31.240234
41720,-5.401319,7.354988,3.615245,-0.396729,-3.173828,-0.152588,31.244141
41760,-5.396531,7.359776,3.629610,-2.319336,-4.852295,0.640869,31.238281
41800,-5.430049,7.393295,3.787627,8.392334,11.627197,2.716064,31.275391
41840,-5.468357,7.445967,3.720589,9.490967,9.979248,3.784180,31.257812
41880,-5.477933,7.508216,3.500323,-0.671387,-4.943848,2.258301,31.292969
41920,-5.372589,7.484274,3.404555,1.708984,1.403809,-1.831055,31.257812
41960,-5.430049,7.517793,3.471592,2.136230,0.183105,-1.495361,31.246094
42000,-5.477933,7.551312,3.495534,2.410889,-0.976562,-2.258301,31.267578
42040,-5.492299,7.527370,3.519476,6.683350,4.699707,-1.800537,31.255859
42080,-5.439626,7.479486,3.543418,11.260986,7.659912,-1.800537,31.246094
42120,-5.358223,7.450756,3.447650,11.657715,3.265381,-3.234863,31.269531
42160,-5.444415,7.484274,3.332729,14.099121,4.638672,-4.333496,31.250000
42200,-5.621585,7.551312,3.198653,6.042480,-3.326416,-3.601074,31.265625
42240,-5.621585,7.517793,3.117251,6.134033,-1.525879,-4.791260,31.259766
42280,-5.607220,7.489063,3.069367,3.356934,-1.739502,-5.126953,31.257812
42320,-5.650316,7.503428,3.069367,3.845215,-1.708984,-5.493164,31.285156
42360,-5.702989,7.546524,3.088520,8.209229,1.586914,-3.723145,31.265625
42400,-5.712565,7.527370,3.155558,10.162354,-0.946045,-3.723145,31.269531
42440,-5.726931,7.493851,3.251326,10.101318,-2.807617,-0.518799,31.312500
42480,-5.640739,7.460332,3.102885,9.185791,-2.166748,0.732422,31.244141
42520,-5.501875,7.469909,2.825158,3.875732,0.976562,-3.692627,31.292969
42560,-5.501875,7.489063,2.753332,6.713867,2.532959,-8.239746,31.285156
42600,-5.789180,7.618350,2.786851,6.469727,3.479004,-6.347656,31.273438
42640,-5.932832,7.651869,2.753332,5.218506,3.112793,-4.791260,31.279297
42680,-5.789180,7.503428,2.734178,8.575439,7.720947,-2.990723,31.275391
42720,-5.712565,7.393295,2.796427,6.866455,7.965088,-5.401611,31.289062
42760,-5.736507,7.350199,2.719813,0.244141,1.647949,-6.561279,31.275391
42800,-5.793968,7.321469,2.667141,1.281738,1.983643,-7.080078,31.273438
42840,-5.884948,7.431602,2.686294,2.502441,1.922607,-6.011963,31.353516
42880,-5.985504,7.532158,2.671929,0.793457,-1.312256,-8.117676,31.335938
42920,-5.971139,7.522582,2.633622,1.892090,0.030518,-7.812500,31.355469
42960,-6.014235,7.527370,2.595315,-2.044678,-1.556396,-7.202148,31.355469
43000,-6.157887,7.522582,2.600103,-2.166748,-2.960205,-5.737305,31.361328
43040,-6.167464,7.469909,2.667141,0.244141,-2.044678,-2.593994,31.341797
43080,-6.143522,7.417237,2.700660,0.427246,-2.166748,-1.861572,31.353516
43120,-6.138733,7.350199,2.695871,1.251221,-1.739502,-3.082275,31.357422
43160,-6.229713,7.259220,2.691083,2.990723,-3.356934,2.685547,31.353516
43200,-5.985504,7.264008,2.738967,-2.136230,0.396729,1.739502,31.347656
43240,-5.956774,7.273585,2.719813,-3.906250,-3.234863,-0.549316,31.357422
43280,-6.019023,7.249643,2.734178,-0.335693,-4.272461,-0.579834,31.355469
43320,-6.086061,7.292738,2.796427,0.854492,-4.241943,-2.288818,31.357422
43360,-6.181829,7.307104,2.762909,1.129150,-3.997803,-2.105713,31.347656
43400,-6.239290,7.311892,2.652776,0.427246,-3.234863,-2.288818,31.378906
43440,-6.205771,7.335834,2.595315,-1.342773,-0.549316,-3.387451,31.367188
43480,-6.272809,7.340622,2.643199,-3.356934,0.579834,-1.831055,31.345703
43520,-6.330269,7.278373,2.729390,-2.593994,-0.701904,0.854492,31.378906
43560,-6.181829,7.201759,2.743755,-3.204346,-0.152588,1.556396,31.365234
43600,-6.014235,7.163452,2.772485,-5.706787,-1.586914,-1.373291,31.349609
43640,-6.033388,7.182605,2.863465,-2.258301,-3.479004,-0.610352,31.373047
43680,-6.076484,7.254431,2.882619,0.854492,0.549316,-0.244141,31.396484
43720,-6.100426,7.297527,2.839523,0.152588,1.464844,-0.549316,31.376953
43760,-6.157887,7.254431,2.834735,0.457764,-0.030518,-0.244141,31.357422
43800,-6.172252,7.192182,2.820370,0.183105,-0.732422,0.579834,31.375000
43840,-6.100426,7.149086,2.806004,0.030518,0.152588,-1.037598,31.394531
43880,-6.071695,7.149086,2.829947,0.335693,0.427246,-0.854492,31.404297
43920,-6.086061,7.206547,2.853889,1.190186,1.434326,-1.068115,31.386719
43960,-6.138733,7.268796,2.873042,0.701904,0.091553,-1.373291,31.380859
44000,-6.172252,7.287950,2.829947,0.488281,-1.556396,-1.403809,31.376953
44040,-6.162675,7.278373,2.791639,0.213623,-2.563477,-0.671387,31.375000
44080,-6.143522,7.268796,2.815581,0.885010,-1.708984,-0.549316,31.384766
44120,-6.114791,7.235278,2.820370,0.640869,-1.403809,0.366211,31.384766
44160,-6.119579,7.201759,2.806004,3.662109,1.892090,-0.549316,31.384766
44200,-6.172252,7.187394,2.839523,9.307861,9.033203,-3.143311,31.380859
44240,-6.153099,7.139510,2.786851,14.343262,13.763428,-4.089355,31.376953
44280,-6.052542,7.101202,2.638410,16.204834,21.087646,-6.134033,31.380859
44320,-6.196194,7.120356,2.442086,13.305664,15.625000,-7.049561,31.396484
44360,-6.359000,7.153875,2.303222,9.918213,8.697510,-8.544922,31.371094
44400,-6.464345,7.211336,2.255338,6.866455,-1.007080,-8.300781,31.376953
44440,-6.521805,7.297527,2.217031,2.044678,-6.469727,-6.530762,31.384766
44480,-6.584054,7.331046,2.173935,3.936768,-5.065918,-4.638672,31.384766
44520,-6.497863,7.259220,2.097321,5.828857,-1.922607,-3.082275,31.386719
44560,-6.354211,7.134721,2.011129,4.089355,-0.396729,-2.990723,31.410156
44600,-6.215348,7.072472,2.102109,5.584717,0.366211,-8.300781,31.390625
44640,-6.325481,7.086837,2.030283,-1.220703,4.608154,-9.094238,31.419922
44680,-6.540959,7.038953,1.982399,0.671387,10.131836,-6.469727,31.414062
44720,-6.722919,7.077260,2.130840,8.026123,5.004883,-8.300781,31.396484
44760,-6.718130,7.043741,2.106898,2.227783,-2.441406,-10.742188,31.412109
44800,-6.852205,7.015011,1.991976,3.021240,3.753662,-6.866455,31.466797
44840,-6.933608,6.924031,1.996764,2.227783,-3.448486,-4.180908,31.494141
44880,-6.823475,6.847417,2.183512,4.455566,-7.568359,-6.011963,31.472656
44920,-6.665458,6.828263,2.145205,-0.213623,-12.664795,-8.880615,31.457031
44960,-6.713342,6.866570,1.910573,-1.007080,-15.899658,-10.772705,31.476562
45000,-6.789956,6.775591,1.532289,-7.598877,-18.920898,-17.700195,31.474609
45040,-6.718130,6.359000,1.403002,-22.949219,-33.905029,-30.883789,31.458984
45080,-6.789956,5.942409,1.723825,-38.940430,-28.137207,-32.531738,31.482422
45120,-6.828263,5.525817,2.762909,-27.740479,-9.582520,-67.779541,31.515625
45160,-6.991069,5.209783,3.572149,10.437012,3.204346,-85.449219,31.478516
45200,-7.479486,5.386954,3.706224,18.463135,6.530762,-95.184326,31.478516
45240,-9.935937,5.525817,2.892196,-33.905029,-25.115967,-19.989014,31.501953
45280,-9.935937,5.674258,3.447650,-73.211670,-116.729736,32.012939,31.492188
45320,-7.570466,5.243302,3.840300,-29.296875,0.610352,13.977051,31.486328
45360,-7.120356,5.090073,4.041412,-4.089355,27.832031,12.481689,31.500000
45400,-7.560889,5.171476,4.027047,-4.302979,20.782471,31.646729,31.488281
45440,-8.015787,5.046977,4.132392,15.869141,-11.688232,27.801514,31.501953
45480,-7.656657,5.090073,4.247314,32.989502,0.122070,13.732910,31.494141
45520,-7.594408,5.267244,4.108450,31.982422,-0.061035,19.256592,31.482422
45560,-7.445967,5.430049,3.687071,21.026611,-8.453369,19.653320,31.486328
45600,-7.058106,5.391742,3.462016,28.198242,-14.251709,13.092041,31.505859
45640,-6.742072,5.535394,3.428497,31.524658,-10.467529,9.979248,31.490234
45680,-6.775591,5.856217,3.394978,20.568848,2.532959,14.923096,31.476562
45720,-6.952762,6.143522,3.524265,16.143799,-4.547119,9.979248,31.511719
45760,-7.034164,6.320693,3.591303,23.925781,-18.005371,6.439209,31.492188
45800,-6.842628,6.564901,3.414132,19.866943,-5.584717,2.563477,31.492188
45840,-6.785168,6.536170,3.198653,15.991211,-5.950928,1.495361,31.500000
45880,-6.818686,6.512228,3.064578,15.197754,-7.232666,1.068115,31.503906
45920,-6.909666,6.531382,3.002329,16.387939,-5.004883,1.739502,31.509766
45960,-6.971915,6.526594,2.930503,18.157959,-3.784180,-0.305176,31.527344
46000,-7.029376,6.526594,2.810793,14.739990,-2.593994,5.432129,31.513672
46040,-6.971915,6.421249,2.676718,11.413574,-1.068115,6.713867,31.527344
46080,-6.852205,6.363788,2.590526,8.697510,1.831055,3.356934,31.525391
46120,-6.775591,6.402095,2.513912,1.495361,1.800537,5.981445,31.498047
46160,-6.646304,6.430826,2.480393,-2.288818,3.326416,6.164551,31.531250
46200,-6.540959,6.507440,2.561796,-3.814697,2.868652,2.899170,31.525391
46240,-6.555324,6.660669,2.724602,-3.845215,1.556396,2.105713,31.511719
46280,-6.665458,6.842628,2.882619,-2.563477,1.647949,3.356934,31.517578
46320,-6.670246,6.876147,2.944868,-1.190186,-2.105713,6.378174,31.527344
46360,-6.512228,6.856994,2.954445,-0.183105,-1.800537,6.866455,31.515625
46400,-6.445191,6.785168,2.935291,1.708984,-2.838135,2.777100,31.517578
46440,-6.540959,6.737284,2.858677,1.678467,-1.953125,2.929688,31.519531
46480,-6.617573,6.684611,2.791639,1.678467,-0.457764,2.807617,31.527344
46520,-6.641516,6.756437,2.796427,-1.922607,-3.112793,2.075195,31.541016
46560,-6.593631,6.799533,2.806004,0.335693,0.030518,-1.190186,31.523438
46600,-6.550536,6.828263,2.882619,-0.122070,0.122070,-2.746582,31.527344
46640,-6.536170,6.880936,3.031059,1.892090,-2.349854,-3.356934,31.515625
46680,-6.536170,6.914454,3.098097,6.134033,-4.364014,-5.462646,31.541016
46720,-6.569689,6.914454,3.021482,9.155273,-3.509521,-7.080078,31.511719
46760,-6.646304,6.890512,2.877831,9.826660,-3.753662,-7.629395,31.531250
46800,-6.689400,6.861782,2.719813,8.789062,-4.211426,-6.958008,31.634766
46840,-6.770802,6.861782,2.614468,8.850098,0.610352,-6.164551,31.603516
46880,-6.924031,6.813898,2.604892,6.530762,1.281738,-4.486084,31.607422
46920,-6.947973,6.675035,2.614468,6.072998,4.211426,-4.882812,31.607422
46960,-6.880936,6.555324,2.619257,3.906250,4.638672,-4.608154,31.619141
47000,-6.718130,6.454768,2.609680,-0.549316,5.615234,-5.249023,31.603516
47040,-6.607996,6.430826,2.695871,-2.502441,5.279541,-8.178711,31.603516
47080,-6.703765,6.574478,2.815581,-2.532959,2.777100,-7.507324,31.613281
47120,-6.828263,6.641516,2.758120,-1.800537,2.502441,-6.530762,31.617188
47160,-6.938396,6.607996,2.604892,-3.784180,4.211426,-5.035400,31.609375
47200,-7.105990,6.545747,2.518700,-5.035400,4.730225,-2.624512,31.632812
47240,-7.158663,6.464345,2.418144,-7.568359,5.859375,-0.671387,31.626953
47280,-7.096414,6.339846,2.351106,-7.659912,9.185791,-0.854492,31.623047
47320,-7.034164,6.277597,2.375048,-6.683350,13.427734,-2.380371,31.625000
47360,-7.038953,6.320693,2.470816,-10.345459,9.216309,-1.647949,31.599609
47400,-6.995857,6.368577,2.580950,-10.620117,6.958008,-1.068115,31.625000
47440,-6.943185,6.440403,2.705448,-6.408691,4.882812,-2.502441,31.603516
47480,-6.967127,6.536170,2.758120,-5.523682,0.915527,-1.495361,31.619141
47520,-6.952762,6.584054,2.710236,-4.577637,-0.579834,-0.488281,31.628906
47560,-7.019799,6.627151,2.715025,-1.525879,-2.868652,-0.183105,31.611328
47600,-7.048530,6.636727,2.715025,2.777100,-5.737305,0.488281,31.638672
47640,-6.991069,6.607996,2.633622,5.920410,-5.645752,0.732422,31.634766
47680,-7.024588,6.560112,2.628834,7.873535,-7.904053,0.976562,31.642578
47720,-7.048530,6.521805,2.681506,9.246826,-8.728027,2.410889,31.642578
47760,-7.053318,6.473921,2.686294,10.345459,-10.101318,2.899170,31.640625
47800,-7.024588,6.387730,2.619257,11.016846,-10.986328,1.983643,31.654297
47840,-6.914454,6.320693,2.533065,8.056641,-11.291504,1.861572,31.648438
47880,-6.804321,6.330269,2.590526,7.873535,-11.901855,-0.610352,31.636719
47920,-6.828263,6.469133,2.738967,10.009766,-13.732910,-1.739502,31.648438
47960,-6.871359,6.584054,2.772485,10.711670,-16.235352,-1.373291,31.642578
48000,-6.876147,6.636727,2.743755,10.406494,-15.716553,-0.640869,31.656250
48040,-6.943185,6.684611,2.762909,10.620117,-15.930176,1.129150,31.634766
48080,-6.986280,6.713342,2.786851,10.528564,-15.075684,2.655029,31.656250
48120,-6.924031,6.694188,2.782062,10.253906,-13.946533,4.119873,31.662109
48160,-6.809110,6.631939,2.782062,10.192871,-12.512207,3.845215,31.650391
48200,-6.770802,6.631939,2.815581,9.948730,-11.932373,3.173828,31.642578
48240,-6.756437,6.670246,2.839523,8.636475,-10.559082,3.570557,31.636719
48280,-6.756437,6.679823,2.834735,7.110596,-9.094238,4.180908,31.660156
48320,-6.679823,6.679823,2.820370,4.241943,-8.361816,4.058838,31.652344
48360,-6.598420,6.703765,2.892196,3.448486,-7.659912,3.082275,31.662109
48400,-6.555324,6.766014,2.944868,3.326416,-6.622314,3.295898,31.634766
48440,-6.521805,6.833052,2.892196,3.387451,-4.699707,2.990723,31.666016
48480,-6.560112,6.895301,2.810793,-1.556396,-4.302979,4.669189,31.673828
48520,-6.655881,7.000646,2.935291,-11.901855,-17.150879,8.758545,31.666016
48560,-6.641516,7.048530,3.131616,-17.913818,-30.426025,11.749268,31.675781
48600,-6.339846,6.924031,3.246537,-12.176514,-20.812988,8.575439,31.662109
48640,-6.042965,6.818686,3.337517,-5.126953,-8.666992,4.394531,31.656250
48680,-5.908890,6.852205,3.414132,-0.457764,0.579834,2.380371,31.666016
48720,-5.932832,6.976704,3.485958,-0.183105,1.159668,3.326416,31.679688
48760,-5.961562,7.091625,3.519476,-0.061035,1.434326,4.516602,31.705078
48800,-5.995081,7.158663,3.562572,1.007080,2.655029,5.676270,31.710938
48840,-5.966351,7.177817,3.567361,1.953125,1.678467,5.889893,31.712891
48880,-5.932832,7.192182,3.529053,3.723145,2.136230,5.584717,31.728516
48920,-5.908890,7.206547,3.462016,3.997803,1.129150,6.286621,31.732422
48960,-5.832275,7.196970,3.380613,3.448486,1.708984,6.500244,31.726562
49000,-5.726931,7.206547,3.385401,1.922607,0.122070,6.835938,31.728516
49040,-5.621585,7.225701,3.418920,2.868652,0.122070,5.554199,31.724609
49080,-5.621585,7.292738,3.471592,3.997803,-1.464844,4.577637,31.742188
49120,-5.669470,7.378930,3.462016,4.516602,-1.373291,4.821777,31.742188
49160,-5.683835,7.398083,3.438074,4.882812,-1.922607,4.364014,31.720703
49200,-5.698200,7.402872,3.423708,6.042480,-1.434326,4.150391,31.755859
49240,-5.664681,7.402872,3.347094,5.187988,-0.396729,4.486084,31.726562
49280,-5.640739,7.393295,3.299210,4.455566,0.305176,3.662109,31.734375
49320,-5.631162,7.398083,3.275268,2.929688,0.610352,4.028320,31.757812
49360,-5.597643,7.388506,3.275268,1.678467,1.281738,3.784180,31.716797
49400,-5.549759,7.388506,3.280056,1.129150,0.762939,2.288818,31.742188
49440,-5.540183,7.412448,3.280056,0.518799,1.342773,1.983643,31.740234
49480,-5.511452,7.445967,3.246537,-0.244141,0.732422,1.586914,31.730469
49520,-5.473145,7.503428,3.217807,-2.349854,-0.823975,2.075195,31.750000
49560,-5.430049,7.551312,3.217807,-3.173828,-0.976562,2.258301,31.726562
49600,-5.420473,7.613562,3.275268,-1.922607,-0.915527,2.105713,31.781250
49640,-5.425261,7.690176,3.323152,0.000000,0.701904,1.983643,31.740234
49680,-5.497087,7.733272,3.270479,0.427246,1.464844,3.631592,31.759766
49720,-5.506664,7.728483,3.179500,-0.488281,2.838135,5.157471,31.744141
49760,-5.463568,7.685388,3.174711,-1.953125,3.906250,6.164551,31.753906
49800,-5.372589,7.623138,3.232172,-0.854492,4.150391,5.737305,31.755859
49840,-5.348647,7.603985,3.251326,0.000000,3.692627,4.577637,31.748047
49880,-5.367800,7.632715,3.189077,-0.885010,4.119873,4.699707,31.781250
49920,-5.377377,7.666234,3.131616,-1.800537,4.852295,5.126953,31.750000
49960,-5.391742,7.723695,3.136404,-1.617432,5.676270,6.072998,31.769531
50000,-5.410896,7.718906,3.150769,-2.655029,3.112793,7.598877,31.783203
50040,-5.315128,7.680599,3.112462,-2.532959,4.943848,7.202148,31.771484
50080,-5.248090,7.656657,3.093309,-2.838135,4.577637,6.530762,31.775391
50120,-5.252879,7.671022,3.102885,-3.204346,3.112793,5.493164,31.771484
50160,-5.252879,7.709330,3.093309,-2.777100,1.770020,4.699707,31.755859
50200,-5.233725,7.747637,3.026271,-3.051758,1.739502,3.662109,31.783203
50240,-5.286397,7.795521,3.007117,-2.075195,1.739502,3.265381,31.759766
50280,-5.267244,7.824251,2.983175,-2.349854,2.960205,3.356934,31.789062
50320,-5.248090,7.838616,2.983175,-1.647949,3.234863,2.868652,31.761719
50360,-5.224148,7.862558,3.026271,-1.953125,2.380371,2.807617,31.783203
50400,-5.171476,7.862558,3.074155,-1.007080,1.617432,2.014160,31.773438
50440,-5.137957,7.872135,3.107674,-0.213623,0.793457,1.647949,31.769531
50480,-5.118803,7.867347,3.117251,0.457764,-0.518799,1.098633,31.783203
50520,-5.090073,7.872135,3.112462,0.244141,-1.831055,1.037598,31.779297
50560,-5.051765,7.872135,3.131616,1.129150,-2.502441,0.244141,31.765625
50600,-5.075707,7.886500,3.141193,1.251221,-3.448486,0.244141,31.773438
50640,-5.099649,7.867347,3.112462,1.617432,-3.723145,-0.091553,31.787109
50680,-5.109226,7.867347,3.088520,1.342773,-3.479004,0.762939,31.783203
50720,-5.114015,7.862558,3.098097,1.739502,-3.234863,0.061035,31.789062
50760,-5.166687,7.867347,3.141193,1.281738,-2.807617,0.518799,31.851562
50800,-5.190629,7.843405,3.165135,1.617432,-4.089355,0.885010,31.839844
50840,-5.085284,7.809886,3.102885,1.068115,-1.953125,-0.213623,31.857422
50880,-5.099649,7.833828,3.112462,0.457764,-1.922607,-0.488281,31.861328
50920,-5.109226,7.872135,3.155558,0.366211,-1.800537,-0.305176,31.851562
50960,-5.037400,7.881712,3.155558,0.549316,-1.464844,-0.701904,31.857422
51000,-5.023035,7.896077,3.174711,1.007080,-1.281738,-0.854492,31.865234
51040,-5.037400,7.900866,3.179500,0.000000,-1.617432,0.274658,31.869141
51080,-5.003881,7.900866,3.203442,-0.152588,-1.007080,0.457764,31.865234
51120,-5.027823,7.934384,3.246537,0.000000,-1.678467,0.793457,31.857422
51160,-5.051765,7.934384,3.222595,0.122070,-1.586914,1.281738,31.884766
51200,-5.037400,7.924808,3.179500,-0.274658,-1.007080,1.495361,31.880859
51240,-4.994305,7.910442,3.189077,-0.518799,-0.915527,0.946045,31.861328
51280,-4.946421,7.924808,3.227384,0.305176,-0.488281,0.488281,31.863281
51320,-4.946421,7.958326,3.241749,0.946045,-0.427246,0.396729,31.882812
51360,-4.970363,7.982268,3.241749,-0.091553,-2.319336,1.556396,31.871094
51400,-4.946421,7.958326,3.222595,-0.518799,-1.403809,2.075195,31.871094
51440,-4.912902,7.929596,3.241749,-0.396729,-0.915527,1.861572,31.871094
51480,-4.874595,7.910442,3.270479,-0.274658,-1.464844,1.220703,31.880859
51520,-4.874595,7.915231,3.260903,-0.122070,-1.434326,0.427246,31.884766
51560,-4.903325,7.905654,3.236961,-0.244141,-1.922607,-0.122070,31.878906
51600,-4.917690,7.915231,3.198653,-0.152588,-0.762939,-0.549316,31.890625
51640,-4.927267,7.963115,3.174711,-1.220703,0.427246,-0.091553,31.880859
51680,-4.898537,7.987057,3.241749,-0.915527,-0.122070,-0.183105,31.884766
51720,-4.841076,7.963115,3.289633,0.396729,0.152588,-1.861572,31.888672
51760,-4.879383,7.972692,3.294421,0.854492,-0.640869,-1.892090,31.863281
51800,-4.946421,7.972692,3.251326,0.457764,0.213623,-1.281738,31.880859
51840,-4.917690,7.915231,3.217807,-0.335693,-0.244141,-1.373291,31.871094
51880,-4.850653,7.867347,3.246537,-0.762939,0.549316,-2.899170,31.863281
51920,-4.893748,7.876924,3.327940,-0.122070,-1.403809,-3.387451,31.875000
51960,-4.888960,7.891289,3.318364,0.366211,-1.373291,-4.211426,31.892578
52000,-4.922479,7.920019,3.275268,-0.152588,-1.861572,-4.364014,31.888672
52040,-4.951209,7.924808,3.256114,-0.122070,-1.525879,-4.272461,31.869141
52080,-4.984728,7.920019,3.294421,0.091553,-1.678467,-4.364014,31.898438
52120,-5.023035,7.924808,3.366248,1.251221,-2.044678,-4.669189,31.900391
52160,-5.051765,7.886500,3.371036,2.166748,-2.258301,-5.279541,31.884766
52200,-5.109226,7.833828,3.318364,1.586914,-2.349854,-5.218506,31.904297
52240,-5.123591,7.776367,3.280056,1.617432,-2.014160,-5.676270,31.902344
52280,-5.128380,7.752425,3.303998,2.075195,-0.915527,-5.920410,31.904297
52320,-5.204995,7.757214,3.337517,3.448486,-0.457764,-5.920410,31.929688
52360,-5.315128,7.718906,3.303998,2.258301,-1.220703,-3.997803,31.912109
52400,-5.319916,7.584831,3.193865,0.823975,-0.183105,-2.929688,31.914062
52440,-5.276821,7.508216,3.098097,-3.112793,0.793457,-1.617432,31.904297
52480,-5.214571,7.484274,3.107674,-7.263184,1.190186,-3.021240,31.908203
52520,-5.128380,7.493851,3.256114,-8.483887,0.274658,-6.835938,31.894531
52560,-5.157111,7.556100,3.418920,-5.340576,-0.213623,-11.322021,31.916016
52600,-5.262455,7.613562,3.442862,-4.150391,-1.556396,-14.434814,31.882812
52640,-5.291186,7.637504,3.418920,-3.051758,-2.899170,-16.998291,31.900391
52680,-5.434838,7.694964,3.447650,-1.373291,-1.434326,-17.425537,31.896484
52720,-5.554548,7.637504,3.581726,0.244141,-5.615234,-16.143799,31.992188
52760,-5.540183,7.465121,3.538630,2.258301,-4.608154,-17.730713,31.988281
52800,-5.693412,7.354988,3.505111,2.410889,-5.310059,-17.883301,31.968750
52840,-5.928043,7.326257,3.457227,2.593994,-4.333496,-16.021729,32.001953
52880,-6.076484,7.259220,3.366248,2.471924,-1.281738,-14.190674,31.976562
52920,-6.181829,7.182605,3.280056,0.854492,2.197266,-11.230469,31.996094
52960,-6.263232,7.086837,3.241749,-1.586914,5.004883,-7.965088,32.005859
53000,-6.234501,6.947973,3.232172,-4.699707,7.049561,-5.950928,31.982422
53040,-6.177041,6.804321,3.275268,-7.415771,9.460449,-5.798340,31.980469
53080,-6.181829,6.727707,3.385401,-8.911133,8.239746,-6.195068,31.996094
53120,-6.153099,6.684611,3.414132,-9.277344,8.819580,-8.148193,31.996094
53160,-6.200983,6.722919,3.452439,-10.223389,8.117676,-8.453369,31.996094
53200,-6.291962,6.746861,3.514688,-9.643555,6.530762,-7.995605,31.980469
53240,-6.315904,6.732495,3.485958,-8.972168,7.141113,-8.728027,32.005859
53280,-6.478710,6.751649,3.500323,-7.629395,7.141113,-7.476807,31.998047
53320,-6.588843,6.727707,3.505111,-7.476807,6.561279,-5.645752,32.009766
53360,-6.593631,6.641516,3.466804,-6.317139,6.896973,-4.913330,31.986328
53400,-6.579266,6.550536,3.476381,-5.767822,6.652832,-4.150391,32.000000
53440,-6.555324,6.459556,3.529053,-5.371094,5.981445,-3.784180,32.009766
53480,-6.550536,6.387730,3.538630,-4.119873,5.462646,-4.791260,32.015625
53520,-6.631939,6.392519,3.495534,-3.967285,5.767822,-5.096436,32.009766
53560,-6.742072,6.430826,3.466804,-4.211426,5.523682,-3.753662,32.005859
53600,-6.722919,6.406884,3.452439,-2.532959,8.392334,-3.662109,32.005859
53640,-6.660669,6.335058,3.428497,8.514404,25.970459,-8.239746,32.029297
53680,-6.746861,6.287174,3.260903,11.810303,29.449463,-9.674072,32.023438
53720,-6.986280,6.291962,3.117251,-0.671387,5.645752,-4.119873,32.000000
53760,-7.072472,6.277597,3.069367,-3.723145,-0.640869,-2.838135,32.017578
53800,-7.058106,6.287174,3.093309,-1.892090,1.220703,-3.936768,32.019531
53840,-7.091625,6.306327,3.117251,-2.777100,-0.976562,-2.349854,31.982422
53880,-7.072472,6.258443,3.098097,-2.807617,0.183105,-1.373291,32.023438
53920,-7.086837,6.200983,3.088520,-3.204346,2.929688,-0.885010,32.019531
53960,-7.196970,6.162675,3.078943,-2.838135,5.004883,-0.762939,31.996094
54000,-7.345411,6.138733,3.045424,-4.394531,6.652832,0.427246,32.021484
54040,-7.335834,6.038177,2.949656,-5.249023,8.209229,0.793457,32.011719
54080,-7.158663,5.961562,2.825158,-6.835938,9.613037,0.183105,32.015625
54120,-7.015011,6.004658,2.844312,-9.552002,8.239746,-0.305176,32.013672
54160,-7.019799,6.133945,3.021482,-9.704590,4.455566,-1.068115,32.042969
54200,-7.110779,6.229713,3.117251,-5.340576,4.882812,-2.105713,32.021484
54240,-7.177817,6.229713,3.069367,-3.540039,2.624512,-1.922607,32.039062
54280,-7.182605,6.129156,2.949656,-3.509521,2.075195,-0.946045,32.011719
54320,-7.120356,6.047753,2.916138,-3.997803,1.464844,-0.823975,32.025391
54360,-7.120356,6.042965,2.983175,-3.540039,1.556396,-1.403809,32.021484
54400,-7.211336,6.086061,3.074155,-2.899170,0.274658,-0.701904,32.039062
54440,-7.225701,6.062119,3.031059,-3.082275,0.183105,-0.549316,32.033203
54480,-7.201759,6.023811,2.997540,-2.044678,1.251221,-1.464844,32.029297
54520,-7.268796,6.028600,3.021482,-1.922607,0.549316,-0.701904,32.033203
54560,-7.249643,6.004658,3.011906,-1.647949,1.770020,-1.190186,32.042969
54600,-7.230489,5.990293,3.021482,-1.373291,1.525879,-0.854492,32.042969
54640,-7.249643,6.014235,3.050213,-1.312256,0.610352,-0.518799,32.046875
54680,-7.278373,6.033388,3.064578,-0.183105,0.488281,-0.579834,32.042969
54720,-7.273585,5.995081,3.035848,0.640869,-0.823975,-0.610352,32.091797
54760,-7.259220,5.942409,2.992752,1.342773,-1.525879,-1.007080,32.095703
54800,-7.249643,5.956774,3.002329,1.647949,-1.525879,-1.525879,32.105469
54840,-7.264008,6.004658,3.107674,3.417969,-3.631592,-0.976562,32.109375
54880,-7.196970,5.999869,3.093309,5.950928,-5.920410,-1.098633,32.087891
54920,-7.225701,6.014235,2.964022,7.171631,-5.950928,-2.197266,32.109375
54960,-7.388506,6.071695,2.968810,7.690430,-8.972168,-0.305176,32.089844
55000,-7.206547,6.009446,2.983175,10.040283,-11.322021,-0.946045,32.095703
55040,-6.991069,5.951985,3.031059,12.542725,-13.916016,-2.105713,32.095703
55080,-7.024588,5.999869,3.169923,15.899658,-18.859863,-1.525879,32.132812
55120,-7.129933,6.095637,3.184288,19.683838,-22.460938,-0.732422,32.126953
55160,-7.249643,6.210559,3.078943,22.979736,-23.803711,0.793457,32.097656
55200,-7.196970,6.282385,2.973598,24.108887,-25.939941,3.021240,32.117188
55240,-7.029376,6.320693,3.002329,25.848389,-27.008057,2.655029,32.123047
55280,-7.000646,6.378153,3.193865,27.557373,-29.754639,4.028320,32.119141
55320,-6.957550,6.296751,3.208230,28.656006,-32.745361,4.821777,32.107422
55360,-6.880936,6.181829,3.040636,24.780273,-31.158447,3.784180,32.111328
55400,-6.995857,6.258443,3.112462,20.629883,-28.350830,4.028320,32.109375
55440,-6.876147,6.335058,3.294421,17.333984,-29.998779,6.591797,32.134766
55480,-6.339846,6.296751,3.260903,14.312744,-29.724121,5.432129,32.132812
55520,-6.086061,6.435614,3.323152,11.169434,-29.083252,2.716064,32.121094
55560,-6.344635,6.761226,3.634398,10.131836,-31.280518,3.662109,32.113281
55600,-6.440403,6.904878,3.825934,15.197754,-29.724121,3.540039,32.136719
55640,-6.234501,6.909666,3.782839,16.571045,-27.282715,2.227783,32.113281
55680,-6.062119,6.957550,3.797204,17.761230,-24.688721,2.136230,32.146484
55720,-5.947197,7.015011,3.830723,17.059326,-24.932861,2.899170,32.113281
55760,-5.827487,7.029376,3.811569,15.350342,-23.284912,3.295898,32.101562
55800,-5.635951,7.000646,3.792415,13.519287,-22.277832,2.380371,32.142578
55840,-5.391742,7.015011,3.830723,12.725830,-21.362305,-1.251221,32.123047
55880,-5.267244,7.134721,3.950433,11.810303,-22.247314,-4.821777,32.111328
55920,-5.276821,7.259220,4.046201,11.932373,-24.383545,-6.652832,32.128906
55960,-5.214571,7.321469,4.022259,10.559082,-25.024414,-7.354736,32.140625
56000,-5.128380,7.374141,3.960010,10.040283,-23.498535,-9.399414,32.117188
56040,-5.209783,7.474698,3.969586,10.101318,-23.742676,-7.934570,32.140625
56080,-5.295974,7.546524,3.988740,11.047363,-21.423340,-7.476807,32.136719
56120,-5.324705,7.556100,4.017470,11.566162,-18.463135,-5.493164,32.142578
56160,-5.334281,7.546524,4.041412,10.223389,-16.998291,-5.584717,32.144531
56200,-5.477933,7.589619,4.074931,8.422852,-16.235352,-5.096436,32.146484
56240,-5.497087,7.536947,4.007894,11.474609,-14.862061,-3.814697,32.142578
56280,-5.281609,7.402872,3.768473,9.704590,-9.552002,-5.523682,32.146484
56320,-5.152322,7.474698,3.782839,7.476807,-5.554199,-5.371094,32.132812
56360,-5.152322,7.608773,3.950433,6.683350,-3.784180,-2.105713,32.166016
56400,-4.965574,7.608773,3.983952,6.011963,-2.960205,-0.305176,32.150391
56440,-4.960786,7.680599,3.955221,6.591797,3.601074,-0.640869,32.152344
56480,-5.329493,7.752425,4.079720,4.821777,4.486084,3.143311,32.156250
56520,-5.410896,7.627927,4.050989,6.347656,3.906250,7.476807,32.150391
56560,-5.090073,7.398083,3.706224,8.697510,7.293701,5.493164,32.152344
56600,-4.836287,7.393295,3.390190,8.666992,8.300781,4.791260,32.171875
56640,-4.625597,7.603985,3.227384,6.072998,10.498047,3.814697,32.128906
56680,-4.587290,7.881712,3.366248,0.244141,9.124756,3.540039,32.218750
56720,-4.826711,8.030152,3.739743,0.732422,6.072998,2.685547,32.226562
56760,-5.042189,7.958326,3.902549,5.065918,0.488281,3.143311,32.228516
56800,-5.008670,7.685388,3.744531,8.239746,-2.288818,-0.915527,32.232422
56840,-5.051765,7.460332,3.600879,7.507324,-3.784180,-3.540039,32.234375
56880,-5.051765,7.302315,3.500323,7.049561,-5.737305,-5.981445,32.232422
56920,-5.056554,7.331046,3.390190,4.455566,-3.356934,-7.690430,32.220703
56960,-5.377377,7.484274,3.409343,0.457764,-3.753662,-7.324219,32.238281
57000,-5.717354,7.541735,3.390190,-1.831055,-1.068115,-6.622314,32.234375
57040,-5.774815,7.431602,3.275268,-3.814697,-1.159668,-5.340576,32.236328
57080,-5.621585,7.292738,3.236961,-2.777100,-1.159668,-9.094238,32.244141
57120,-5.564125,7.287950,3.366248,0.732422,-1.464844,-13.061523,32.240234
57160,-5.698200,7.402872,3.519476,4.333496,-1.159668,-14.099121,32.251953
57200,-5.908890,7.474698,3.562572,5.828857,-1.281738,-11.413574,32.244141
57240,-6.004658,7.393295,3.462016,4.974365,0.122070,-7.141113,32.232422
57280,-5.923255,7.196970,3.347094,3.662109,0.488281,-3.753662,32.226562
57320,-5.793968,7.053318,3.260903,1.678467,2.990723,-3.082275,32.250000
57360,-5.822699,7.043741,3.270479,-0.640869,3.662109,-3.265381,32.244141
57400,-5.904101,7.105990,3.351882,-1.342773,3.204346,-3.814697,32.261719
57440,-5.865794,7.163452,3.399766,0.488281,2.014160,-4.364014,32.259766
57480,-5.770026,7.235278,3.361459,1.770020,1.403809,-5.157471,32.250000
57520,-5.770026,7.340622,3.337517,1.922607,0.091553,-3.326416,32.220703
57560,-5.803545,7.422025,3.361459,3.265381,-0.671387,-1.922607,32.253906
57600,-5.918467,7.460332,3.423708,5.981445,-1.037598,-0.762939,32.248047
57640,-6.033388,7.374141,3.361459,6.530762,-1.556396,1.647949,32.244141
57680,-5.942409,7.177817,3.217807,4.272461,-0.946045,1.770020,32.248047
57720,-5.904101,7.067683,3.251326,4.150391,-0.305176,0.579834,32.267578
57760,-5.961562,7.067683,3.318364,2.960205,-1.678467,1.129150,32.238281
57800,-5.894525,7.058106,3.260903,0.396729,-1.495361,-0.549316,32.232422
57840,-5.899313,7.105990,3.270479,1.251221,-1.525879,-2.075195,32.250000
57880,-5.928043,7.168240,3.236961,1.190186,-1.403809,-1.770020,32.255859
57920,-5.918467,7.187394,3.141193,-0.732422,-0.091553,-1.037598,32.261719
57960,-5.904101,7.216124,3.126827,-2.807617,0.488281,-0.274658,32.269531
58000,-5.894525,7.254431,3.193865,-4.669189,0.976562,0.427246,32.253906
58040,-5.875371,7.230489,3.313575,-4.119873,-0.061035,-0.030518,32.240234
58080,-5.832275,7.240066,3.337517,-2.685547,-0.671387,-0.061035,32.267578
58120,-5.827487,7.292738,3.265691,-2.624512,0.335693,0.457764,32.257812
58160,-5.899313,7.354988,3.270479,-3.082275,0.488281,2.197266,32.289062
58200,-5.894525,7.369353,3.323152,-2.471924,0.640869,3.326416,32.289062
58240,-5.822699,7.335834,3.327940,-1.586914,0.732422,2.960205,32.269531
58280,-5.750873,7.297527,3.294421,-1.861572,0.640869,3.051758,32.267578
58320,-5.664681,7.287950,3.308787,-1.647949,1.373291,1.861572,32.287109
58360,-5.669470,7.369353,3.394978,-1.586914,-0.488281,2.380371,32.261719
58400,-5.640739,7.393295,3.438074,-0.549316,-0.854492,2.258301,32.291016
58440,-5.602432,7.369353,3.433285,0.244141,-1.770020,1.495361,32.277344
58480,-5.645528,7.383718,3.423708,1.037598,-1.770020,1.037598,32.287109
58520,-5.683835,7.402872,3.418920,1.007080,-3.082275,1.037598,32.271484
58560,-5.640739,7.407660,3.380613,2.410889,-2.258301,-0.061035,32.277344
58600,-5.621585,7.426814,3.361459,2.899170,-3.143311,-0.427246,32.287109
58640,-5.607220,7.431602,3.347094,3.479004,-2.319336,-0.671387,32.294922
58680,-5.592855,7.417237,3.351882,2.807617,-3.570557,-0.335693,32.335938
58720,-5.573701,7.407660,3.375824,3.234863,-2.838135,-0.335693,32.339844
58760,-5.568913,7.426814,3.394978,2.929688,-4.058838,-0.305176,32.314453
58800,-5.607220,7.445967,3.404555,2.777100,-3.479004,0.274658,32.343750
58840,-5.650316,7.417237,3.394978,3.326416,-4.241943,0.488281,32.363281
58880,-5.635951,7.369353,3.308787,2.197266,-3.479004,0.488281,32.373047
58920,-5.621585,7.354988,3.275268,0.885010,-2.319336,0.213623,32.353516
58960,-5.607220,7.378930,3.337517,0.122070,-1.983643,0.122070,32.355469
59000,-5.607220,7.407660,3.404555,0.549316,-1.708984,-0.152588,32.371094
59040,-5.597643,7.422025,3.394978,-0.335693,-1.739502,0.213623,32.367188
59080,-5.559336,7.402872,3.361459,-1.098633,-1.159668,0.030518,32.365234
59120,-5.540183,7.412448,3.366248,-1.281738,-0.213623,-0.640869,32.343750
59160,-5.602432,7.455544,3.394978,-0.671387,0.152588,-0.823975,32.353516
59200,-5.655105,7.498640,3.375824,-1.098633,0.701904,0.091553,32.361328
59240,-5.621585,7.474698,3.332729,-0.823975,1.831055,-0.061035,32.359375
59280,-5.612009,7.450756,3.351882,-0.488281,2.380371,0.091553,32.363281
59320,-5.588067,7.417237,3.371036,-0.579834,1.892090,-0.122070,32.378906
59360,-5.588067,7.364564,3.356671,-2.136230,2.136230,-0.701904,32.349609
59400,-5.616797,7.340622,3.418920,-2.197266,0.671387,-1.190186,32.357422
59440,-5.583278,7.335834,3.404555,-1.770020,0.305176,-1.831055,32.345703
59480,-5.578490,7.364564,3.342306,-1.556396,0.701904,-2.319336,32.373047
59520,-5.592855,7.436390,3.323152,-1.892090,1.495361,-1.281738,32.363281
59560,-5.616797,7.479486,3.366248,-1.251221,0.823975,-1.190186,32.373047
59600,-5.659893,7.489063,3.452439,-0.427246,0.854492,-0.213623,32.375000
59640,-5.650316,7.407660,3.481169,0.732422,-1.037598,0.030518,32.384766
59680,-5.592855,7.340622,3.385401,0.793457,0.762939,-0.610352,32.375000
59720,-5.655105,7.345411,3.371036,-0.488281,0.000000,0.305176,32.375000
59760,-5.683835,7.359776,3.404555,-0.549316,0.671387,0.335693,32.386719
59800,-5.717354,7.378930,3.452439,0.244141,0.061035,0.366211,32.382812
59840,-5.726931,7.369353,3.394978,0.152588,0.213623,0.366211,32.384766
59880,-5.669470,7.307104,3.318364,-0.854492,0.701904,-0.213623,32.361328
59920,-5.592855,7.273585,3.342306,-1.220703,1.007080,-1.831055,32.392578
59960,-5.588067,7.316680,3.423708,-0.366211,0.183105,-3.204346,32.392578
60000,-5.631162,7.378930,3.442862,-0.427246,-0.366211,-2.899170,32.382812
60040,-5.626374,7.402872,3.404555,-0.885010,-0.396729,-2.868652,32.392578
60080,-5.683835,7.417237,3.399766,-0.427246,-0.183105,-2.044678,32.375000
60120,-5.726931,7.378930,3.394978,0.213623,-0.152588,-1.525879,32.404297
60160,-5.693412,7.297527,3.351882,0.152588,0.488281,-2.105713,32.380859
60200,-5.712565,7.273585,3.356671,-0.305176,1.007080,-2.655029,32.406250
60240,-5.789180,7.297527,3.394978,-0.610352,0.885010,-1.739502,32.425781
60280,-5.798757,7.302315,3.394978,-0.640869,1.739502,-1.190186,32.384766
60320,-5.793968,7.292738,3.375824,-1.129150,1.586914,-0.793457,32.392578
60360,-5.784391,7.264008,3.380613,-0.762939,2.563477,-0.671387,32.416016
60400,-5.789180,7.216124,3.385401,-2.136230,2.136230,-0.823975,32.408203
60440,-5.832275,7.187394,3.438074,-1.342773,2.075195,-0.976562,32.416016
60480,-5.784391,7.168240,3.404555,-1.586914,1.403809,-1.251221,32.408203
60520,-5.765238,7.192182,3.327940,-2.197266,3.021240,-1.586914,32.416016
60560,-5.880159,7.283162,3.361459,-2.929688,2.716064,-0.122070,32.404297
60600,-5.932832,7.321469,3.414132,-2.838135,2.685547,1.556396,32.427734
60640,-5.861006,7.249643,3.394978,-2.624512,2.746582,1.617432,32.486328
60680,-5.803545,7.173028,3.347094,-2.960205,2.624512,1.312256,32.464844
60720,-5.770026,7.163452,3.347094,-3.112793,2.777100,0.701904,32.470703
60760,-5.784391,7.211336,3.385401,-3.204346,2.288818,0.518799,32.488281
60800,-5.851429,7.283162,3.452439,-2.319336,1.922607,1.159668,32.486328
60840,-5.904101,7.316680,3.452439,-1.129150,1.373291,2.593994,32.457031
60880,-5.856217,7.273585,3.371036,-1.220703,1.525879,3.295898,32.470703
60920,-5.765238,7.192182,3.337517,-2.685547,1.190186,2.746582,32.478516
60960,-5.688623,7.187394,3.404555,-2.075195,1.495361,1.098633,32.488281
61000,-5.731719,7.273585,3.481169,0.305176,0.213623,0.061035,32.488281
61040,-5.765238,7.354988,3.423708,-0.061035,-0.518799,0.610352,32.460938
61080,-5.746084,7.378930,3.366248,-0.366211,0.640869,1.037598,32.494141
61120,-5.765238,7.354988,3.409343,0.427246,-0.366211,1.403809,32.476562
61160,-5.717354,7.292738,3.433285,0.885010,-0.579834,1.129150,32.494141
61200,-5.707777,7.240066,3.442862,1.647949,-0.854492,-0.335693,32.500000
61240,-5.774815,7.225701,3.438074,0.671387,-1.281738,-0.335693,32.474609
61280,-5.789180,7.187394,3.409343,0.427246,-1.647949,-0.518799,32.472656
61320,-5.688623,7.173028,3.323152,-0.549316,-0.213623,-1.770020,32.500000
61360,-5.712565,7.254431,3.366248,-1.403809,-0.335693,-1.770020,32.490234
61400,-5.793968,7.359776,3.485958,0.061035,-0.427246,-1.068115,32.503906
61440,-5.803545,7.374141,3.509900,1.464844,-1.159668,-0.854492,32.492188
61480,-5.793968,7.316680,3.404555,1.159668,-0.915527,-0.244141,32.496094
61520,-5.784391,7.235278,3.332729,-0.152588,0.152588,0.427246,32.486328
61560,-5.731719,7.206547,3.371036,-1.281738,-0.122070,0.366211,32.488281
61600,-5.683835,7.225701,3.462016,-0.610352,-0.610352,-0.701904,32.517578
61640,-5.683835,7.283162,3.481169,0.396729,-1.434326,-1.281738,32.509766
61680,-5.717354,7.359776,3.438074,1.159668,-0.732422,-1.403809,32.484375
61720,-5.832275,7.431602,3.404555,2.288818,-0.396729,0.854492,32.498047
61760,-5.841852,7.374141,3.332729,0.396729,0.396729,3.631592,32.509766
61800,-5.750873,7.240066,3.351882,-1.068115,1.220703,4.211426,32.498047
61840,-5.688623,7.158663,3.471592,-1.403809,-0.244141,3.265381,32.476562
61880,-5.640739,7.144298,3.505111,-0.549316,-0.701904,0.701904,32.509766
61920,-5.693412,7.220912,3.438074,-0.122070,-0.518799,-0.335693,32.537109
61960,-5.731719,7.340622,3.332729,-1.373291,0.244141,0.549316,32.542969
62000,-5.693412,7.407660,3.342306,-1.403809,1.861572,0.823975,32.486328
62040,-5.683835,7.436390,3.485958,-1.831055,0.610352,1.892090,32.519531
62080,-5.655105,7.364564,3.591303,0.030518,0.183105,1.800537,32.527344
62120,-5.573701,7.254431,3.519476,-0.030518,-0.671387,1.068115,32.519531
62160,-5.607220,7.254431,3.438074,-0.946045,0.457764,0.610352,32.523438
62200,-5.698200,7.307104,3.457227,-1.403809,0.213623,0.671387,32.521484
62240,-5.712565,7.354988,3.495534,-0.244141,0.213623,-0.213623,32.521484
62280,-5.698200,7.393295,3.452439,0.854492,0.671387,-0.823975,32.527344
62320,-5.702989,7.402872,3.380613,0.610352,1.434326,0.030518,32.527344
62360,-5.669470,7.374141,3.375824,0.030518,2.166748,0.274658,32.542969
62400,-5.650316,7.350199,3.466804,0.091553,1.708984,0.274658,32.523438
62440,-5.612009,7.292738,3.509900,0.000000,0.457764,-0.091553,32.533203
62480,-5.568913,7.230489,3.471592,-0.061035,0.152588,-1.861572,32.533203
62520,-5.626374,7.268796,3.452439,-0.244141,-0.946045,-2.166748,32.529297
62560,-5.702989,7.331046,3.423708,0.091553,-0.213623,-1.831055,32.554688
62600,-5.774815,7.374141,3.399766,-0.549316,-0.427246,-0.518799,32.525391
62640,-5.746084,7.354988,3.385401,-0.671387,0.518799,0.305176,32.587891
62680,-5.698200,7.311892,3.423708,-0.152588,0.518799,-0.305176,32.601562
62720,-5.688623,7.302315,3.452439,0.061035,-0.335693,-0.183105,32.605469
62760,-5.635951,7.292738,3.423708,-0.488281,-0.396729,-0.427246,32.597656
62800,-5.635951,7.297527,3.438074,-0.152588,-0.030518,-0.854492,32.587891
62840,-5.726931,7.340622,3.490746,-0.244141,-1.037598,-0.213623,32.605469
62880,-5.765238,7.321469,3.476381,0.915527,-1.647949,0.396729,32.609375
62920,-5.664681,7.292738,3.332729,-0.061035,0.457764,-0.183105,32.595703
62960,-5.698200,7.321469,3.356671,-0.762939,0.793457,0.122070,32.621094
63000,-5.722142,7.369353,3.481169,0.000000,0.335693,0.549316,32.593750
63040,-5.693412,7.354988,3.519476,1.007080,-0.549316,0.213623,32.603516
63080,-5.669470,7.316680,3.447650,0.518799,-0.640869,0.457764,32.591797
63120,-5.650316,7.278373,3.385401,-0.793457,-0.335693,0.488281,32.601562
63160,-5.659893,7.268796,3.404555,-0.610352,-0.213623,-0.213623,32.605469
63200,-5.702989,7.311892,3.438074,-0.396729,-0.701904,-0.335693,32.605469
63240,-5.722142,7.354988,3.438074,-0.335693,-0.549316,-0.061035,32.613281
63280,-5.679047,7.354988,3.418920,-0.335693,-0.305176,0.305176,32.601562
63320,-5.640739,7.331046,3.409343,-0.701904,0.091553,0.244141,32.630859
63360,-5.645528,7.321469,3.462016,-0.488281,-0.305176,0.213623,32.611328
63400,-5.650316,7.335834,3.490746,-0.274658,-0.854492,0.213623,32.611328
63440,-5.655105,7.331046,3.457227,-0.213623,-0.610352,-0.274658,32.617188
63480,-5.688623,7.331046,3.418920,-0.091553,-0.579834,-0.244141,32.630859
63520,-5.688623,7.340622,3.394978,-0.518799,0.152588,0.152588,32.617188
63560,-5.655105,7.335834,3.404555,-0.274658,0.366211,-0.091553,32.621094
63600,-5.655105,7.345411,3.462016,-0.732422,0.579834,0.274658,32.640625
63640,-5.645528,7.321469,3.514688,0.030518,-1.068115,0.518799,32.634766
63680,-5.559336,7.311892,3.433285,-0.518799,0.457764,-0.061035,32.613281
63720,-5.616797,7.364564,3.433285,-0.488281,0.152588,0.152588,32.615234
63760,-5.669470,7.417237,3.485958,0.244141,0.061035,0.640869,32.623047
63800,-5.655105,7.383718,3.476381,0.915527,-0.061035,0.213623,32.650391
63840,-5.640739,7.326257,3.418920,-0.122070,0.122070,0.030518,32.626953
63880,-5.612009,7.287950,3.409343,-0.640869,0.244141,-0.427246,32.626953
63920,-5.612009,7.311892,3.466804,-0.335693,0.244141,-0.946045,32.650391
63960,-5.669470,7.369353,3.514688,0.427246,-0.305176,-0.396729,32.636719
64000,-5.698200,7.374141,3.471592,0.000000,0.030518,0.732422,32.652344
64040,-5.669470,7.331046,3.428497,-0.701904,0.579834,1.007080,32.636719
64080,-5.640739,7.297527,3.447650,-0.610352,0.518799,0.579834,32.634766
64120,-5.612009,7.297527,3.462016,-0.701904,0.213623,0.030518,32.617188
64160,-5.597643,7.331046,3.457227,-0.549316,0.610352,-0.701904,32.660156
64200,-5.631162,7.388506,3.495534,-0.366211,-0.396729,-0.244141,32.650391
64240,-5.631162,7.402872,3.481169,0.793457,0.030518,-0.701904,32.642578
64280,-5.674258,7.398083,3.452439,0.854492,-0.122070,-0.091553,32.646484
64320,-5.664681,7.374141,3.447650,0.610352,0.427246,0.335693,32.650391
64360,-5.650316,7.326257,3.471592,0.915527,0.061035,-0.122070,32.658203
64400,-5.635951,7.311892,3.495534,0.579834,-0.610352,-0.030518,32.652344
64440,-5.612009,7.292738,3.452439,1.007080,-0.854492,-0.457764,32.650391
64480,-5.583278,7.331046,3.361459,-0.152588,0.549316,-0.488281,32.646484
64520,-5.645528,7.393295,3.375824,-0.366211,1.129150,-0.183105,32.646484
64560,-5.702989,7.441179,3.462016,0.244141,0.885010,0.396729,32.660156
64600,-5.664681,7.412448,3.476381,1.007080,0.213623,0.488281,32.703125
64640,-5.597643,7.335834,3.428497,1.007080,0.823975,0.091553,32.710938
64680,-5.559336,7.292738,3.409343,0.610352,0.366211,-0.335693,32.708984
64720,-5.568913,7.273585,3.399766,0.488281,1.098633,-1.342773,32.708984
64760,-5.664681,7.287950,3.414132,-0.457764,1.007080,-1.464844,32.728516
64800,-5.779603,7.350199,3.471592,-0.732422,1.037598,-0.701904,32.722656
64840,-5.793968,7.431602,3.524265,-0.518799,-0.854492,1.312256,32.716797
64880,-5.597643,7.388506,3.409343,-0.305176,0.152588,0.579834,32.728516
64920,-5.516241,7.345411,3.342306,-0.885010,0.244141,0.427246,32.730469
64960,-5.564125,7.340622,3.371036,-0.762939,0.701904,0.061035,32.728516
65000,-5.640739,7.350199,3.442862,-0.732422,-0.061035,0.030518,32.708984
65040,-5.664681,7.316680,3.452439,-0.518799,-0.030518,-0.122070,32.738281
65080,-5.655105,7.297527,3.433285,-0.946045,-0.427246,-0.183105,32.742188
65120,-5.626374,7.321469,3.428497,-0.701904,-0.823975,-0.091553,32.707031
65160,-5.621585,7.388506,3.433285,-0.549316,-0.305176,0.091553,32.736328
65200,-5.683835,7.441179,3.490746,0.000000,-0.274658,1.007080,32.726562
65240,-5.688623,7.407660,3.495534,0.518799,-1.464844,2.258301,32.716797
65280,-5.568913,7.345411,3.380613,-0.030518,0.946045,1.678467,32.736328
65320,-5.592855,7.364564,3.414132,-0.915527,0.274658,1.739502,32.734375
65360,-5.640739,7.407660,3.509900,0.488281,0.030518,1.403809,32.740234
65400,-5.626374,7.407660,3.485958,1.403809,-0.335693,0.854492,32.724609
65440,-5.626374,7.378930,3.385401,0.366211,0.518799,1.159668,32.738281
65480,-5.578490,7.340622,3.351882,-0.823975,1.037598,0.946045,32.730469
65520,-5.530606,7.359776,3.428497,-0.976562,0.762939,0.213623,32.740234
65560,-5.525817,7.398083,3.500323,-0.366211,0.274658,-0.488281,32.726562
65600,-5.540183,7.407660,3.495534,-0.335693,-0.915527,-0.640869,32.771484
65640,-5.530606,7.393295,3.418920,0.305176,-0.457764,-1.464844,32.730469
65680,-5.578490,7.398083,3.371036,-0.061035,0.030518,-1.495361,32.744141
65720,-5.664681,7.450756,3.390190,0.183105,0.427246,-1.159668,32.724609
65760,-5.731719,7.465121,3.433285,0.061035,1.007080,-0.793457,32.740234
65800,-5.702989,7.412448,3.457227,1.342773,0.244141,-1.464844,32.767578
65840,-5.635951,7.359776,3.361459,2.441406,0.366211,-2.075195,32.744141
65880,-5.578490,7.307104,3.241749,1.068115,1.159668,-2.838135,32.753906
65920,-5.420473,7.311892,3.318364,-0.671387,2.136230,-4.882812,32.761719
65960,-5.181053,7.378930,3.591303,-1.495361,0.396729,-5.767822,32.742188
66000,-5.027823,7.469909,3.663129,-8.239746,6.805420,-6.774902,32.769531
66040,-5.200206,7.460332,3.438074,-23.101807,12.420654,-5.920410,32.748047
66080,-5.453991,7.187394,3.059790,-38.787842,22.705078,-15.686035,32.765625
66120,-5.635951,6.986280,3.007117,-46.295166,36.804199,-16.174316,32.759766
66160,-5.698200,6.775591,3.136404,-50.506592,47.149658,-14.160156,32.753906
66200,-5.789180,6.655881,3.639187,-55.786133,62.622070,-22.521973,32.746094
66240,-6.397307,6.540959,3.878607,-45.135498,82.580566,-19.592285,32.767578
66280,-7.163452,6.426037,3.835511,-31.066895,86.639404,-13.580322,32.759766
66320,-7.201759,6.263232,3.548207,-51.208496,101.959229,-7.781982,32.775391
66360,-6.995857,5.932832,3.462016,-41.748047,124.389648,-13.977051,32.771484
66400,-6.756437,5.396531,2.806004,-33.996582,187.011719,-32.196045,32.759766
66440,-7.661446,4.903325,1.824382,-29.907227,197.662354,-36.254883,32.763672
66480,-8.259995,5.027823,0.617704,-24.047852,229.583740,-41.473389,32.791016
66520,-9.241618,4.908113,-1.493982,-12.725830,176.635742,-28.503418,32.765625
66560,-8.939949,5.473145,-2.676718,-1.220703,102.325439,-27.069092,32.781250
66600,-8.054094,4.999093,-2.552219,60.180664,29.876709,-133.331299,32.830078
66640,-8.398860,4.343082,-2.571373,-24.810791,118.164062,-101.623535,32.839844
66680,-8.734048,3.404555,-2.992752,-94.482422,177.886963,-76.446533,32.837891
66720,-8.279149,2.987964,-2.820370,-52.795410,326.965332,-104.644775,32.847656
66760,-6.962338,2.092532,-4.999093,-52.551270,446.289062,-25.299072,32.843750
66800,-4.630386,2.169147,-8.599973,-34.637451,326.721191,59.783936,32.832031
66840,-2.317587,3.150769,-8.379706,-102.935791,438.507080,97.808838,32.835938
66880,0.694318,3.921702,-9.600749,6.469727,455.444336,33.874512,32.839844
66920,3.562572,3.969586,-10.515334,110.260010,134.002686,19.622803,32.841797
66960,4.266468,3.596091,-9.878476,46.966553,233.551025,11.657715,32.828125
67000,4.630386,3.351882,-9.433155,1.037598,104.003906,-34.729004,32.828125
67040,5.190629,3.002329,-8.063671,8.239746,84.014893,-26.092529,32.855469
67080,5.295974,2.600103,-7.173028,-7.110596,-136.322021,0.762939,32.835938
