MS,Accel X (m/s²),Accel Y (m/s²),Accel Z (m/s²),Gyro X (°/s),Gyro Y (°/s),Gyro Z (°/s),Temp (°C)
1160,-9.519346,0.713472,2.533065,-2.807617,-2.624512,-1.678467,45.177734
1200,-9.490616,0.727837,2.528277,-3.021240,-0.915527,-1.495361,45.214844
1240,-9.423578,0.790087,2.561796,-2.227783,0.091553,-1.037598,45.187500
1280,-9.466674,0.794875,2.561796,-2.990723,0.183105,-0.488281,45.191406
1320,-9.481039,0.746991,2.595315,-3.601074,1.831055,0.183105,45.195312
1360,-9.447520,0.746991,2.609680,-3.784180,2.227783,0.579834,45.191406
1400,-9.428367,0.780510,2.595315,-4.333496,1.800537,0.793457,45.183594
1440,-9.447520,0.804452,2.600103,-4.180908,1.403809,0.793457,45.193359
1480,-9.428367,0.847547,2.585738,-3.265381,1.953125,0.885010,45.181641
1520,-9.423578,0.866701,2.585738,-2.471924,1.037598,0.671387,45.218750
1560,-9.433155,0.814029,2.576161,-2.197266,0.488281,0.915527,45.201172
1600,-9.433155,0.804452,2.576161,-1.861572,0.183105,0.610352,45.191406
1640,-9.442732,0.818817,2.561796,-1.312256,-0.244141,0.305176,45.199219
1680,-9.433155,0.809240,2.552219,-0.610352,-0.732422,0.152588,45.187500
1720,-9.461885,0.790087,2.542642,-0.305176,-0.701904,-0.030518,45.181641
1760,-9.485827,0.809240,2.566584,0.213623,-0.091553,-0.152588,45.197266
1800,-9.437943,0.799663,2.571373,0.427246,-0.549316,-0.122070,45.195312
1840,-9.452309,0.761356,2.547431,0.427246,-0.366211,-0.427246,45.187500
1880,-9.452309,0.814029,2.566584,1.098633,-0.366211,-0.457764,45.181641
1920,-9.437943,0.790087,2.566584,1.007080,-0.213623,-0.427246,45.199219
1960,-9.461885,0.756568,2.571373,0.579834,-0.152588,-0.488281,45.222656
2000,-9.461885,0.775721,2.571373,0.457764,0.701904,-0.335693,45.205078
2040,-9.442732,0.799663,2.566584,0.335693,0.152588,-0.244141,45.203125
2080,-9.433155,0.799663,2.566584,0.396729,0.366211,-0.091553,45.193359
2120,-9.437943,0.790087,2.566584,0.518799,-0.274658,-0.396729,45.195312
2160,-9.461885,0.809240,2.537854,0.244141,-0.030518,-0.213623,45.203125
2200,-9.466674,0.799663,2.552219,0.244141,0.396729,-0.030518,45.193359
2240,-9.452309,0.785298,2.561796,0.000000,0.305176,-0.213623,45.179688
2280,-9.442732,0.794875,2.552219,-0.091553,0.274658,-0.213623,45.208984
2320,-9.461885,0.814029,2.552219,0.152588,0.244141,-0.274658,45.208984
2360,-9.457097,0.799663,2.542642,-0.213623,0.305176,-0.061035,45.197266
2400,-9.447520,0.814029,2.557007,-0.152588,0.244141,-0.183105,45.193359
2440,-9.433155,0.809240,2.571373,-0.457764,-0.518799,-0.244141,45.212891
2480,-9.437943,0.794875,2.557007,-0.183105,-0.213623,-0.335693,45.193359
2520,-9.437943,0.828394,2.566584,0.213623,-0.946045,-0.183105,45.197266
2560,-9.466674,0.809240,2.533065,-0.061035,0.152588,-0.152588,45.187500
2600,-9.471462,0.804452,2.552219,-0.091553,0.793457,-0.152588,45.208984
2640,-9.457097,0.809240,2.561796,-0.152588,0.762939,-0.091553,45.203125
2680,-9.433155,0.790087,2.552219,-0.427246,0.518799,-0.122070,45.193359
2720,-9.461885,0.804452,2.552219,-0.213623,0.793457,-0.122070,45.205078
2760,-9.452309,0.818817,2.547431,0.000000,0.671387,-0.061035,45.185547
2800,-9.433155,0.799663,2.566584,-0.061035,0.030518,-0.305176,45.193359
2840,-9.452309,0.790087,2.557007,-0.183105,0.396729,-0.183105,45.207031
2880,-9.447520,0.794875,2.547431,-0.091553,0.091553,-0.183105,45.189453
2920,-9.452309,0.790087,2.552219,-0.030518,0.122070,-0.244141,45.195312
2960,-9.457097,0.799663,2.533065,0.183105,0.091553,-0.427246,45.191406
3000,-9.471462,0.818817,2.518700,0.152588,0.213623,-0.335693,45.183594
3040,-9.461885,0.794875,2.523489,0.183105,0.518799,-0.244141,45.197266
3080,-9.442732,0.790087,2.528277,0.000000,0.091553,-0.152588,45.201172
3120,-9.471462,0.799663,2.504335,-0.030518,-0.152588,-0.640869,45.208984
3160,-9.457097,0.833182,2.528277,0.762939,-0.366211,-0.396729,45.224609
3200,-9.461885,0.799663,2.513912,0.457764,-0.213623,-0.396729,45.218750
3240,-9.457097,0.766145,2.513912,0.030518,-0.030518,-0.427246,45.173828
3280,-9.490616,0.766145,2.499547,-0.274658,0.762939,-0.061035,45.181641
3320,-9.476251,0.809240,2.499547,-0.061035,1.129150,-0.152588,45.199219
3360,-9.447520,0.804452,2.509123,-0.061035,0.518799,-0.183105,45.207031
3400,-9.452309,0.794875,2.499547,0.061035,0.549316,-0.213623,45.191406
3440,-9.476251,0.790087,2.489970,-0.030518,0.762939,-0.396729,45.201172
3480,-9.476251,0.770933,2.499547,-0.335693,0.915527,-0.305176,45.197266
3520,-9.490616,0.775721,2.475605,-0.366211,1.403809,-0.091553,45.207031
3560,-9.457097,0.794875,2.480393,-0.549316,0.701904,0.030518,45.220703
3600,-9.457097,0.814029,2.480393,0.030518,0.518799,-0.030518,45.193359
3640,-9.495404,0.847547,2.470816,0.701904,1.434326,-0.122070,45.197266
3680,-9.461885,0.876278,2.489970,1.800537,0.885010,-0.030518,45.203125
3720,-9.437943,0.837971,2.451663,2.136230,0.122070,0.518799,45.195312
3760,-9.466674,0.756568,2.446874,0.915527,-0.854492,0.335693,45.220703
3800,-9.504981,0.723049,2.437297,-0.122070,-0.152588,0.244141,45.205078
3840,-9.500193,0.790087,2.422932,-0.274658,0.244141,0.457764,45.193359
3880,-9.476251,0.799663,2.422932,-0.854492,-0.366211,0.518799,45.203125
3920,-9.481039,0.751779,2.422932,-2.105713,-0.579834,0.549316,45.220703
3960,-9.490616,0.708684,2.432509,-3.356934,-0.427246,0.427246,45.208984
4000,-9.495404,0.761356,2.446874,-3.417969,0.457764,0.091553,45.207031
4040,-9.471462,0.842759,2.451663,-2.502441,-0.030518,-0.152588,45.195312
4080,-9.442732,0.842759,2.446874,-1.831055,-0.701904,-0.457764,45.201172
4120,-9.500193,0.828394,2.446874,-1.586914,0.122070,-0.579834,45.187500
4160,-9.519346,0.876278,2.470816,-1.068115,0.488281,-0.885010,45.205078
4200,-9.442732,0.924162,2.499547,0.152588,0.671387,-0.610352,45.210938
4240,-9.428367,0.924162,2.542642,1.617432,-0.396729,-0.640869,45.207031
4280,-9.447520,0.881066,2.528277,2.563477,-1.434326,-0.640869,45.236328
4320,-9.457097,0.790087,2.475605,2.105713,-1.342773,-0.244141,45.193359
4360,-9.485827,0.732626,2.466028,1.495361,-0.549316,0.061035,45.199219
4400,-9.504981,0.732626,2.485181,0.640869,0.518799,0.366211,45.214844
4440,-9.500193,0.727837,2.489970,-0.396729,0.915527,0.274658,45.226562
4480,-9.495404,0.790087,2.466028,-0.335693,1.495361,0.091553,45.199219
4520,-9.466674,0.857124,2.461239,0.213623,1.251221,0.274658,45.203125
4560,-9.461885,0.828394,2.446874,-0.030518,1.373291,0.640869,45.203125
4600,-9.495404,0.804452,2.442086,-0.671387,2.319336,0.701904,45.205078
4640,-9.509769,0.804452,2.451663,-0.823975,3.356934,1.098633,45.203125
4680,-9.500193,0.804452,2.418144,-1.220703,3.265381,1.190186,45.216797
4720,-9.485827,0.847547,2.389413,-0.915527,3.265381,0.885010,45.205078
4760,-9.476251,0.881066,2.379837,0.000000,2.380371,0.488281,45.201172
4800,-9.514558,0.852336,2.351106,0.061035,1.770020,0.579834,45.197266
4840,-9.504981,0.837971,2.346318,0.000000,1.068115,0.305176,45.195312
4880,-9.490616,0.837971,2.336741,-0.274658,0.976562,0.366211,45.208984
4920,-9.514558,0.833182,2.317587,-0.518799,0.946045,0.457764,45.216797
4960,-9.524135,0.861913,2.317587,-0.274658,0.396729,0.274658,45.203125
5000,-9.528923,0.885855,2.322376,-0.091553,0.793457,0.122070,45.203125
5040,-9.524135,0.866701,2.298434,-0.305176,1.098633,0.274658,45.207031
5080,-9.495404,0.857124,2.308010,-0.549316,0.335693,0.091553,45.199219
5120,-9.466674,0.852336,2.322376,-0.488281,0.000000,-0.030518,45.222656
5160,-9.500193,0.881066,2.317587,0.244141,-0.305176,-0.335693,45.232422
5200,-9.471462,0.924162,2.308010,1.342773,-1.037598,-0.732422,45.203125
5240,-9.452309,0.895431,2.308010,1.708984,-2.014160,-1.159668,45.216797
5280,-9.490616,0.857124,2.317587,1.525879,-2.227783,-0.885010,45.212891
5320,-9.552865,0.847547,2.317587,1.220703,-1.007080,-0.579834,45.220703
5360,-9.533711,0.861913,2.327164,0.854492,-0.335693,-0.335693,45.218750
5400,-9.476251,0.833182,2.308010,0.366211,-1.373291,-0.396729,45.203125
5440,-9.524135,0.833182,2.293645,-0.183105,-0.885010,-0.305176,45.203125
5480,-9.538500,0.823605,2.317587,-0.701904,-0.061035,0.091553,45.199219
5520,-9.504981,0.818817,2.317587,-1.617432,-0.305176,0.152588,45.212891
5560,-9.500193,0.857124,2.308010,-1.678467,-0.549316,0.152588,45.207031
5600,-9.509769,0.881066,2.327164,-1.770020,-0.427246,0.213623,45.230469
5640,-9.500193,0.871489,2.351106,-1.312256,-0.610352,0.030518,45.230469
5680,-9.490616,0.876278,2.365471,-0.549316,-0.915527,-0.213623,45.218750
5720,-9.500193,0.876278,2.365471,-0.061035,-0.488281,-0.457764,45.222656
5760,-9.519346,0.900220,2.379837,0.579834,-0.274658,-0.762939,45.222656
5800,-9.476251,0.919373,2.389413,1.129150,-1.403809,-0.976562,45.220703
5840,-9.457097,0.852336,2.379837,0.946045,-2.014160,-0.640869,45.214844
5880,-9.543288,0.761356,2.370260,-0.213623,-0.701904,-0.244141,45.218750
5920,-9.524135,0.770933,2.351106,-0.518799,1.098633,0.122070,45.220703
5960,-9.552865,0.823605,2.308010,-0.854492,2.655029,-0.305176,45.216797
6000,-9.543288,0.905008,2.384625,-0.274658,2.166748,-0.885010,45.216797
6040,-9.461885,1.024718,2.427721,1.892090,1.129150,-1.037598,45.230469
6080,-9.399636,1.034295,2.422932,3.692627,-0.244141,-1.098633,45.244141
6120,-9.433155,0.914585,2.427721,3.784180,-1.708984,-0.823975,45.228516
6160,-9.490616,0.809240,2.418144,3.356934,-1.556396,-0.488281,45.212891
6200,-9.514558,0.766145,2.384625,2.777100,-0.946045,-0.335693,45.220703
6240,-9.524135,0.761356,2.360683,2.380371,0.152588,-0.488281,45.224609
6280,-9.519346,0.804452,2.355895,2.075195,0.732422,-0.701904,45.234375
6320,-9.500193,0.837971,2.355895,1.678467,0.183105,-0.488281,45.236328
6360,-9.500193,0.809240,2.341529,0.610352,0.091553,-0.305176,45.207031
6400,-9.509769,0.814029,2.341529,-0.305176,0.244141,-0.091553,45.214844
6440,-9.500193,0.799663,2.355895,-0.885010,0.640869,0.335693,45.236328
6480,-9.490616,0.809240,2.360683,-0.762939,1.281738,0.152588,45.220703
6520,-9.533711,0.857124,2.355895,-0.396729,1.800537,0.000000,45.220703
6560,-9.481039,0.866701,2.355895,0.061035,0.335693,-0.549316,45.228516
6600,-9.447520,0.866701,2.355895,0.427246,-0.366211,-0.732422,45.216797
6640,-9.504981,0.857124,2.346318,0.091553,-0.610352,-0.457764,45.220703
6680,-9.548077,0.866701,2.331953,0.000000,0.457764,0.030518,45.222656
6720,-9.490616,0.871489,2.336741,0.152588,0.427246,-0.030518,45.197266
6760,-9.471462,0.837971,2.327164,-0.152588,-1.068115,0.091553,45.222656
6800,-9.528923,0.804452,2.336741,-0.305176,-0.396729,-0.183105,45.203125
6840,-9.509769,0.861913,2.351106,0.244141,-0.518799,-0.152588,45.232422
6880,-9.476251,0.837971,2.317587,-0.366211,-0.885010,0.030518,45.212891
6920,-9.524135,0.828394,2.327164,-1.037598,-0.671387,0.244141,45.199219
6960,-9.548077,0.866701,2.346318,-0.915527,0.640869,0.488281,45.226562
7000,-9.490616,0.871489,2.341529,-1.007080,0.396729,0.549316,45.226562
7040,-9.495404,0.847547,2.322376,-1.373291,0.000000,0.640869,45.220703
7080,-9.514558,0.876278,2.346318,-0.732422,0.579834,0.488281,45.234375
7120,-9.500193,0.895431,2.346318,-0.457764,0.030518,0.335693,45.216797
7160,-9.476251,0.866701,2.312799,-0.793457,-0.671387,0.396729,45.214844
7200,-9.495404,0.861913,2.331953,-0.762939,-0.701904,0.122070,45.214844
7240,-9.528923,0.885855,2.341529,-0.366211,-0.061035,0.030518,45.226562
7280,-9.519346,0.909797,2.331953,0.457764,0.732422,-0.152588,45.220703
7320,-9.509769,0.943315,2.327164,1.617432,0.823975,-0.457764,45.232422
7360,-9.485827,0.919373,2.331953,1.739502,0.213623,-0.518799,45.218750
7400,-9.500193,0.861913,2.341529,1.281738,-0.366211,-0.579834,45.210938
7440,-9.495404,0.818817,2.351106,0.457764,-0.335693,-0.488281,45.216797
7480,-9.509769,0.823605,2.351106,0.122070,0.305176,-0.244141,45.212891
7520,-9.509769,0.876278,2.341529,0.701904,0.885010,-0.427246,45.232422
7560,-9.509769,0.943315,2.322376,1.373291,0.061035,-0.976562,45.240234
7600,-9.504981,0.933739,2.312799,1.281738,0.091553,-0.518799,45.208984
7640,-9.500193,0.876278,2.317587,1.098633,0.152588,-0.183105,45.214844
7680,-9.457097,0.857124,2.312799,0.244141,-1.434326,-0.122070,45.222656
7720,-9.490616,0.842759,2.303222,-0.579834,-1.251221,-0.030518,45.232422
7760,-9.538500,0.861913,2.317587,-0.854492,-0.579834,0.000000,45.212891
7800,-9.528923,0.876278,2.331953,-0.671387,0.122070,-0.061035,45.216797
7840,-9.490616,0.871489,2.312799,-0.854492,-0.457764,-0.061035,45.210938
7880,-9.500193,0.847547,2.312799,-1.403809,-0.946045,0.000000,45.238281
7920,-9.514558,0.861913,2.322376,-1.708984,0.030518,0.274658,45.222656
7960,-9.485827,0.842759,2.327164,-2.136230,-0.762939,0.152588,45.230469
8000,-9.481039,0.828394,2.322376,-2.288818,-1.495361,-0.183105,45.214844
8040,-9.519346,0.895431,2.351106,-1.556396,-0.183105,-0.061035,45.230469
8080,-9.504981,0.909797,2.365471,-0.549316,0.335693,-0.152588,45.226562
8120,-9.490616,0.905008,2.336741,0.213623,-0.122070,-0.946045,45.226562
8160,-9.490616,0.905008,2.331953,0.793457,-0.549316,-1.098633,45.230469
8200,-9.495404,0.885855,2.331953,0.915527,-0.671387,-0.885010,45.236328
8240,-9.500193,0.876278,2.327164,0.305176,-0.549316,-0.732422,45.226562
8280,-9.481039,0.881066,2.346318,0.366211,-0.610352,-0.488281,45.210938
8320,-9.504981,0.881066,2.365471,0.732422,-0.244141,-0.335693,45.212891
8360,-9.490616,0.837971,2.394202,0.671387,-0.610352,-0.335693,45.232422
8400,-9.485827,0.823605,2.389413,0.579834,0.274658,-0.183105,45.224609
8440,-9.552865,0.857124,2.494758,1.586914,1.312256,0.244141,45.230469
8480,-9.519346,0.828394,2.499547,1.586914,2.319336,1.464844,45.226562
8520,-9.457097,0.847547,2.284068,0.244141,2.471924,1.434326,45.234375
8560,-9.418790,0.818817,2.293645,-0.762939,-0.823975,-0.030518,45.222656
8600,-9.409213,0.823605,2.403779,-1.007080,-4.028320,-0.854492,45.230469
8640,-9.490616,0.881066,2.365471,-1.251221,-4.882812,-1.220703,45.234375
8680,-9.524135,0.876278,2.370260,-1.190186,-3.479004,-1.403809,45.212891
8720,-9.519346,0.823605,2.403779,-1.556396,-2.960205,-1.312256,45.222656
8760,-9.490616,0.828394,2.422932,-1.556396,-2.441406,-0.793457,45.226562
8800,-9.471462,0.842759,2.442086,-1.251221,-1.892090,-0.335693,45.232422
8840,-9.490616,0.809240,2.485181,-1.251221,-1.190186,-0.366211,45.244141
8880,-9.500193,0.809240,2.494758,-1.251221,-0.762939,-0.366211,45.226562
8920,-9.476251,0.852336,2.466028,-0.915527,-0.274658,-0.091553,45.201172
8960,-9.471462,0.857124,2.470816,-0.640869,-0.213623,0.122070,45.240234
9000,-9.485827,0.833182,2.499547,-0.640869,0.366211,0.000000,45.226562
9040,-9.461885,0.823605,2.523489,-0.396729,0.091553,0.122070,45.234375
9080,-9.461885,0.828394,2.494758,-0.396729,0.091553,0.000000,45.226562
9120,-9.471462,0.828394,2.504335,-0.366211,0.061035,0.030518,45.224609
9160,-9.457097,0.842759,2.528277,0.305176,0.091553,0.000000,45.230469
9200,-9.447520,0.842759,2.504335,0.488281,-0.152588,0.030518,45.226562
9240,-9.466674,0.823605,2.499547,0.000000,-0.213623,0.000000,45.236328
9280,-9.481039,0.794875,2.513912,-0.183105,0.488281,0.000000,45.216797
9320,-9.452309,0.828394,2.485181,-0.305176,0.366211,-0.091553,45.236328
9360,-9.442732,0.842759,2.456451,-0.732422,-0.427246,-0.061035,45.234375
9400,-9.481039,0.833182,2.470816,-0.366211,0.091553,-0.305176,45.244141
9440,-9.481039,0.833182,2.480393,-0.274658,-0.274658,-0.915527,45.250000
9480,-9.481039,0.837971,2.466028,0.091553,0.213623,-0.701904,45.240234
9520,-9.485827,0.861913,2.480393,0.518799,0.976562,-0.488281,45.220703
9560,-9.476251,0.876278,2.480393,0.732422,1.068115,-0.488281,45.222656
9600,-9.471462,0.828394,2.461239,0.640869,1.159668,-0.366211,45.226562
9640,-9.471462,0.814029,2.475605,0.701904,1.251221,-0.518799,45.230469
9680,-9.471462,0.828394,2.466028,0.518799,0.610352,-0.579834,45.216797
9720,-9.471462,0.814029,2.451663,0.213623,0.213623,-0.640869,45.218750
9760,-9.481039,0.814029,2.456451,0.183105,0.518799,-0.518799,45.218750
9800,-9.466674,0.818817,2.451663,-0.091553,-0.152588,-0.183105,45.255859
9840,-9.476251,0.794875,2.427721,-0.427246,-0.366211,-0.396729,45.238281
9880,-9.485827,0.837971,2.432509,0.091553,-1.251221,-0.457764,45.257812
9920,-9.490616,0.842759,2.418144,0.183105,-0.671387,-0.457764,45.230469
9960,-9.481039,0.794875,2.442086,-0.183105,-0.854492,-0.640869,45.232422
10000,-9.495404,0.790087,2.437297,-0.457764,-0.366211,-0.213623,45.238281
10040,-9.461885,0.790087,2.437297,-0.732422,-0.762939,-0.396729,45.244141
10080,-9.447520,0.761356,2.461239,-1.312256,-1.495361,-0.823975,45.250000
10120,-9.452309,0.732626,2.480393,-1.953125,-2.685547,-1.159668,45.242188
10160,-9.447520,0.699107,2.504335,-2.990723,-3.479004,-1.159668,45.230469
10200,-9.452309,0.646434,2.528277,-4.150391,-2.624512,-1.251221,45.230469
10240,-9.495404,0.703895,2.571373,-4.608154,-2.105713,-1.556396,45.224609
10280,-9.452309,0.790087,2.561796,-4.333496,-1.800537,-1.403809,45.222656
10320,-9.442732,0.828394,2.576161,-3.143311,-1.922607,-1.708984,45.224609
10360,-9.442732,0.809240,2.614468,-2.197266,-2.166748,-1.892090,45.220703
10400,-9.418790,0.756568,2.600103,-1.739502,-2.532959,-1.434326,45.244141
10440,-9.461885,0.732626,2.547431,-1.220703,-1.892090,-0.976562,45.240234
10480,-9.504981,0.703895,2.557007,-0.671387,-0.213623,-0.732422,45.242188
10520,-9.481039,0.665588,2.619257,-0.701904,0.000000,-0.610352,45.230469
10560,-9.452309,0.665588,2.609680,-0.854492,0.457764,-0.732422,45.242188
10600,-9.423578,0.732626,2.590526,0.427246,0.427246,-0.396729,45.244141
10640,-9.442732,0.737414,2.561796,1.098633,0.854492,0.335693,45.250000
10680,-9.466674,0.689530,2.595315,0.823975,1.068115,0.457764,45.216797
10720,-9.447520,0.675165,2.604892,0.854492,0.732422,0.579834,45.236328
10760,-9.428367,0.684742,2.576161,1.007080,0.366211,0.427246,45.228516
10800,-9.471462,0.694318,2.576161,1.159668,0.610352,0.305176,45.238281
10840,-9.461885,0.694318,2.595315,1.617432,1.403809,0.244141,45.246094
10880,-9.418790,0.670376,2.609680,1.464844,0.457764,0.091553,45.226562
10920,-9.404425,0.636858,2.595315,0.671387,-1.220703,0.152588,45.248047
10960,-9.481039,0.656011,2.576161,0.000000,0.000000,0.640869,45.205078
11000,-9.490616,0.665588,2.576161,-0.549316,1.007080,1.007080,45.246094
11040,-9.442732,0.656011,2.576161,-0.915527,1.098633,1.342773,45.255859
11080,-9.414001,0.679953,2.576161,-1.129150,0.122070,1.098633,45.216797
11120,-9.452309,0.727837,2.547431,-1.159668,0.061035,1.037598,45.236328
11160,-9.514558,0.756568,2.513912,-1.159668,1.556396,1.464844,45.236328
11200,-9.461885,0.727837,2.557007,-0.854492,2.197266,1.708984,45.246094
11240,-9.423578,0.689530,2.614468,-1.281738,0.854492,1.220703,45.234375
11280,-9.457097,0.689530,2.595315,-1.678467,0.549316,1.098633,45.244141
11320,-9.437943,0.818817,2.499547,-0.061035,1.892090,1.403809,45.244141
11360,-9.476251,0.981623,2.499547,1.647949,0.610352,0.793457,45.236328
11400,-9.538500,0.905008,2.571373,1.403809,1.922607,0.427246,45.234375
11440,-9.414001,0.689530,2.604892,0.671387,1.647949,0.579834,45.232422
11480,-9.380483,0.689530,2.528277,0.152588,1.190186,0.732422,45.244141
11520,-9.457097,0.861913,2.461239,0.549316,0.946045,0.701904,45.212891
11560,-9.476251,0.905008,2.485181,0.732422,0.549316,0.823975,45.246094
11600,-9.461885,0.823605,2.480393,0.152588,-0.518799,0.579834,45.216797
11640,-9.481039,0.818817,2.442086,0.335693,-0.518799,0.366211,45.240234
11680,-9.500193,0.876278,2.408567,0.793457,0.946045,0.701904,45.246094
11720,-9.500193,0.881066,2.446874,0.915527,1.007080,0.732422,45.246094
11760,-9.457097,0.842759,2.518700,0.549316,-0.549316,0.488281,45.234375
11800,-9.437943,0.799663,2.542642,0.457764,-1.403809,0.244141,45.240234
11840,-9.423578,0.785298,2.561796,0.579834,-2.044678,0.183105,45.253906
11880,-9.409213,0.818817,2.557007,0.640869,-3.509521,-0.213623,45.210938
11920,-9.423578,0.857124,2.547431,0.579834,-3.906250,-0.488281,45.236328
11960,-9.461885,0.847547,2.566584,0.732422,-2.380371,-0.396729,45.275391
12000,-9.466674,0.828394,2.561796,0.610352,-1.251221,-0.610352,45.230469
12040,-9.433155,0.823605,2.576161,0.366211,-1.617432,-0.610352,45.234375
12080,-9.471462,0.852336,2.552219,0.579834,-0.671387,-0.427246,45.250000
12120,-9.490616,0.909797,2.509123,1.586914,0.030518,-0.091553,45.238281
12160,-9.509769,0.909797,2.509123,1.831055,1.068115,-0.244141,45.236328
12200,-9.504981,0.842759,2.513912,1.037598,2.075195,-0.030518,45.236328
12240,-9.461885,0.852336,2.489970,0.518799,2.624512,0.549316,45.248047
12280,-9.442732,0.924162,2.461239,0.335693,2.014160,0.854492,45.232422
12320,-9.457097,0.895431,2.466028,0.152588,2.563477,1.068115,45.244141
12360,-9.500193,0.866701,2.480393,0.152588,2.960205,0.976562,45.236328
12400,-9.461885,0.876278,2.475605,-0.091553,1.922607,0.854492,45.222656
12440,-9.466674,0.885855,2.422932,-0.518799,3.204346,1.037598,45.246094
12480,-9.476251,0.924162,2.427721,-0.640869,3.173828,0.793457,45.224609
12520,-9.452309,0.924162,2.418144,-0.579834,2.044678,0.488281,45.238281
12560,-9.457097,0.909797,2.413355,-1.037598,1.281738,0.854492,45.253906
12600,-9.500193,0.866701,2.408567,-1.586914,1.922607,1.403809,45.230469
12640,-9.567230,0.861913,2.461239,-1.953125,3.906250,1.739502,45.236328
12680,-9.509769,0.881066,2.408567,-2.044678,3.967285,2.014160,45.230469
12720,-9.399636,0.928950,2.288857,-2.685547,1.586914,1.525879,45.253906
12760,-9.394848,0.991199,2.303222,-2.075195,-0.793457,-0.030518,45.244141
12800,-9.457097,0.995988,2.322376,-1.861572,-2.685547,-0.457764,45.234375
12840,-9.524135,1.015141,2.322376,-1.495361,-2.502441,-0.823975,45.240234
12880,-9.485827,1.015141,2.331953,-1.129150,-1.586914,-0.213623,45.222656
12920,-9.476251,0.948104,2.327164,-1.037598,-1.251221,-0.244141,45.248047
12960,-9.533711,0.924162,2.389413,-0.396729,-0.732422,-0.610352,45.236328
13000,-9.519346,0.948104,2.418144,0.030518,-0.091553,-0.671387,45.246094
13040,-9.514558,0.972046,2.360683,-0.122070,1.007080,-0.671387,45.246094
13080,-9.481039,0.957681,2.365471,0.274658,0.854492,-1.007080,45.222656
13120,-9.457097,0.948104,2.379837,0.854492,0.244141,-1.434326,45.244141
13160,-9.476251,0.957681,2.365471,0.854492,-0.030518,-1.495361,45.246094
13200,-9.500193,0.938527,2.351106,0.823975,0.305176,-1.525879,45.267578
13240,-9.528923,0.919373,2.327164,0.823975,1.037598,-1.617432,45.236328
13280,-9.504981,0.905008,2.312799,0.793457,1.342773,-1.678467,45.244141
13320,-9.509769,0.905008,2.312799,0.701904,1.251221,-1.708984,45.216797
13360,-9.490616,0.881066,2.351106,0.122070,0.549316,-0.854492,45.246094
13400,-9.481039,0.852336,2.346318,-0.396729,0.061035,-0.701904,45.246094
13440,-9.524135,0.866701,2.322376,-0.732422,0.427246,-0.396729,45.250000
13480,-9.500193,0.876278,2.322376,-0.885010,0.305176,0.061035,45.236328
13520,-9.476251,0.871489,2.336741,-1.037598,-0.030518,0.122070,45.236328
13560,-9.504981,0.861913,2.312799,-1.464844,-0.061035,0.244141,45.226562
13600,-9.514558,0.881066,2.312799,-0.823975,-0.152588,0.030518,45.240234
13640,-9.543288,0.900220,2.322376,0.030518,0.946045,0.244141,45.244141
13680,-9.519346,0.847547,2.303222,-0.244141,1.434326,0.183105,45.234375
13720,-9.509769,0.818817,2.303222,-0.640869,1.251221,0.244141,45.250000
13760,-9.533711,0.847547,2.284068,-0.579834,2.319336,0.488281,45.250000
13800,-9.524135,0.876278,2.293645,-0.701904,2.136230,0.488281,45.248047
13840,-9.481039,0.857124,2.298434,-0.366211,1.129150,0.122070,45.238281
13880,-9.490616,0.885855,2.279280,0.030518,0.640869,-0.152588,45.236328
13920,-9.514558,0.900220,2.260126,0.335693,0.488281,-0.396729,45.240234
13960,-9.485827,0.861913,2.260126,0.488281,-0.732422,-0.518799,45.265625
14000,-9.500193,0.847547,2.269703,-0.030518,-2.319336,-0.549316,45.234375
14040,-9.504981,0.861913,2.260126,-0.335693,-2.471924,-0.427246,45.234375
14080,-9.514558,0.866701,2.245761,-0.427246,-2.197266,-0.366211,45.255859
14120,-9.552865,0.881066,2.245761,-0.488281,-1.556396,-0.366211,45.251953
14160,-9.538500,0.914585,2.245761,-0.061035,-1.373291,-0.488281,45.251953
14200,-9.509769,0.928950,2.264915,0.122070,-1.068115,-0.427246,45.250000
14240,-9.495404,0.895431,2.308010,-0.091553,-1.495361,-0.427246,45.220703
14280,-9.495404,0.866701,2.312799,-0.366211,-1.739502,-0.183105,45.236328
14320,-9.514558,0.885855,2.308010,-0.732422,-1.312256,-0.061035,45.240234
14360,-9.509769,0.924162,2.322376,-0.366211,-1.464844,-0.213623,45.246094
14400,-9.509769,0.914585,2.336741,0.000000,-0.366211,-0.030518,45.240234
14440,-9.533711,0.876278,2.360683,-0.183105,0.183105,-0.061035,45.253906
14480,-9.504981,0.842759,2.365471,-0.640869,0.549316,0.122070,45.220703
14520,-9.481039,0.871489,2.375048,-0.671387,0.854492,0.366211,45.232422
14560,-9.490616,0.876278,2.379837,-0.946045,0.610352,0.091553,45.222656
14600,-9.476251,0.876278,2.389413,-0.854492,-0.274658,-0.061035,45.240234
14640,-9.490616,0.871489,2.379837,-0.823975,0.000000,0.030518,45.234375
14680,-9.524135,0.885855,2.370260,-0.793457,0.488281,-0.030518,45.232422
14720,-9.481039,0.885855,2.365471,-0.762939,0.396729,0.061035,45.248047
14760,-9.481039,0.890643,2.379837,-0.427246,0.091553,-0.091553,45.240234
14800,-9.504981,0.885855,2.394202,-0.274658,-0.396729,-0.427246,45.230469
14840,-9.481039,0.890643,2.375048,-0.152588,-0.732422,-0.518799,45.222656
14880,-9.485827,0.885855,2.375048,0.091553,-0.579834,-0.457764,45.240234
14920,-9.509769,0.866701,2.360683,0.091553,-0.030518,-0.305176,45.240234
14960,-9.509769,0.861913,2.379837,-0.152588,0.061035,-0.244141,45.230469
15000,-9.476251,0.871489,2.384625,0.091553,0.183105,-0.183105,45.232422
15040,-9.485827,0.885855,2.389413,0.091553,-0.427246,-0.427246,45.261719
15080,-9.471462,0.842759,2.408567,-0.396729,-1.129150,0.000000,45.228516
15120,-9.476251,0.814029,2.398990,-0.701904,-1.007080,-0.030518,45.226562
15160,-9.485827,0.847547,2.379837,-0.579834,-1.403809,-0.030518,45.232422
15200,-9.514558,0.833182,2.398990,-0.396729,-0.518799,-0.152588,45.222656
15240,-9.524135,0.828394,2.427721,-0.305176,-0.244141,-0.396729,45.263672
15280,-9.495404,0.842759,2.422932,-0.274658,0.244141,-0.244141,45.242188
15320,-9.466674,0.823605,2.389413,-0.518799,0.274658,0.030518,45.228516
15360,-9.495404,0.814029,2.389413,-1.068115,0.335693,0.244141,45.259766
15400,-9.524135,0.861913,2.394202,-0.732422,0.946045,0.305176,45.253906
15440,-9.524135,0.876278,2.370260,-0.457764,2.258301,0.701904,45.250000
15480,-9.538500,0.857124,2.336741,-0.427246,3.173828,0.854492,45.248047
15520,-9.519346,0.871489,2.308010,0.030518,3.631592,0.793457,45.259766
15560,-9.514558,0.895431,2.293645,0.457764,3.509521,0.823975,45.265625
15600,-9.519346,0.905008,2.288857,0.427246,2.990723,0.701904,45.248047
15640,-9.509769,0.885855,2.288857,0.366211,2.349854,1.007080,45.236328
15680,-9.514558,0.876278,2.269703,0.213623,1.953125,0.732422,45.242188
15720,-9.509769,0.900220,2.255338,0.122070,1.861572,0.854492,45.255859
15760,-9.504981,0.914585,2.245761,0.335693,1.495361,0.671387,45.255859
15800,-9.490616,0.895431,2.264915,0.122070,0.305176,0.274658,45.240234
15840,-9.514558,0.890643,2.250550,-0.549316,-0.183105,0.366211,45.240234
15880,-9.519346,0.909797,2.212242,-0.244141,-0.122070,0.427246,45.269531
15920,-9.528923,0.924162,2.197877,-0.549316,0.122070,0.488281,45.244141
15960,-9.533711,0.909797,2.221819,-0.823975,0.030518,0.305176,45.244141
16000,-9.528923,0.919373,2.240973,-0.610352,0.122070,0.000000,45.251953
16040,-9.490616,0.943315,2.169147,-0.946045,0.366211,-0.122070,45.240234
16080,-9.471462,0.905008,2.140416,-1.434326,-0.030518,-0.701904,45.267578
16120,-9.586384,0.928950,2.221819,-0.213623,1.098633,-0.823975,45.242188
16160,-9.586384,0.986411,2.217031,0.244141,0.305176,-0.762939,45.230469
16200,-9.524135,0.986411,2.217031,1.373291,0.030518,-1.678467,45.255859
16240,-9.538500,0.938527,2.312799,1.922607,-1.464844,-1.098633,45.250000
16280,-9.543288,0.905008,2.226608,2.288818,-0.793457,-0.732422,45.242188
16320,-9.327810,0.837971,2.260126,2.929688,-6.439209,-1.586914,45.242188
16360,-9.504981,0.861913,2.284068,2.166748,-6.225586,-1.892090,45.238281
16400,-9.567230,0.933739,2.288857,0.793457,-3.967285,-1.037598,45.244141
16440,-9.567230,0.919373,2.269703,0.244141,-1.617432,-0.610352,45.261719
16480,-9.514558,0.900220,2.308010,0.061035,-1.983643,-0.946045,45.255859
16520,-9.524135,0.837971,2.360683,-0.335693,-0.915527,-0.366211,45.230469
16560,-9.485827,0.857124,2.341529,-0.915527,-0.823975,-0.366211,45.250000
16600,-9.490616,0.900220,2.360683,-0.335693,-0.366211,-0.335693,45.244141
16640,-9.514558,0.976834,2.346318,0.854492,-0.427246,-1.190186,45.257812
16680,-9.509769,0.948104,2.375048,2.044678,-0.640869,-1.373291,45.259766
16720,-9.514558,0.895431,2.379837,1.800537,1.068115,-0.518799,45.271484
16760,-9.423578,0.837971,2.394202,1.007080,-0.610352,-0.579834,45.240234
16800,-9.447520,0.818817,2.394202,-0.488281,-1.770020,0.000000,45.253906
16840,-9.519346,0.828394,2.418144,-0.549316,-0.671387,0.183105,45.253906
16880,-9.548077,0.857124,2.408567,-0.427246,-0.244141,0.122070,45.236328
16920,-9.524135,0.857124,2.408567,-0.213623,1.159668,0.457764,45.253906
16960,-9.567230,0.871489,2.442086,0.396729,3.631592,1.159668,45.255859
17000,-9.519346,0.900220,2.389413,1.373291,5.004883,1.861572,45.240234
17040,-9.437943,0.866701,2.255338,0.854492,4.058838,1.068115,45.246094
17080,-9.418790,0.861913,2.303222,-0.396729,-0.122070,-0.274658,45.271484
17120,-9.437943,0.900220,2.293645,-1.037598,-3.753662,-1.159668,45.269531
17160,-9.495404,0.924162,2.260126,-1.098633,-4.058838,-1.251221,45.271484
17200,-9.567230,0.924162,2.327164,-0.915527,-2.838135,-0.946045,45.265625
17240,-9.514558,0.905008,2.341529,-0.610352,-1.312256,-0.579834,45.246094
17280,-9.504981,0.881066,2.303222,-0.091553,-0.122070,-0.366211,45.265625
17320,-9.533711,0.876278,2.355895,0.091553,-0.640869,-0.640869,45.265625
17360,-9.514558,0.881066,2.394202,0.213623,-0.854492,-0.640869,45.263672
17400,-9.490616,0.895431,2.317587,-0.030518,-0.335693,-0.183105,45.283203
17440,-9.495404,0.890643,2.336741,-0.213623,0.488281,0.091553,45.277344
17480,-9.519346,0.871489,2.394202,-0.335693,0.427246,0.122070,45.261719
17520,-9.485827,0.866701,2.360683,-0.518799,0.274658,0.366211,45.253906
17560,-9.500193,0.861913,2.351106,-0.671387,0.335693,0.122070,45.277344
17600,-9.528923,0.866701,2.360683,-0.396729,1.220703,-0.030518,45.244141
17640,-9.481039,0.876278,2.351106,-0.061035,0.518799,-0.488281,45.261719
17680,-9.514558,0.890643,2.351106,0.274658,1.403809,-0.427246,45.236328
17720,-9.495404,0.900220,2.331953,0.183105,0.915527,-0.152588,45.250000
17760,-9.466674,0.866701,2.322376,-0.427246,0.030518,-0.091553,45.265625
17800,-9.528923,0.852336,2.322376,-0.915527,0.549316,0.091553,45.267578
17840,-9.528923,0.857124,2.351106,-0.762939,1.220703,-0.030518,45.265625
17880,-9.495404,0.890643,2.341529,-0.518799,1.312256,-0.030518,45.255859
17920,-9.500193,0.928950,2.312799,0.030518,0.823975,-0.427246,45.263672
17960,-9.495404,0.943315,2.308010,0.610352,0.732422,-0.152588,45.250000
18000,-9.485827,0.881066,2.312799,0.274658,0.274658,-0.030518,45.273438
18040,-9.528923,0.857124,2.322376,0.030518,0.427246,-0.335693,45.261719
18080,-9.528923,0.866701,2.303222,-0.213623,0.640869,-0.488281,45.253906
18120,-9.490616,0.890643,2.312799,0.457764,0.427246,-0.427246,45.251953
18160,-9.481039,0.900220,2.298434,0.579834,-0.518799,-0.488281,45.251953
18200,-9.490616,0.828394,2.279280,-0.305176,-0.762939,-0.335693,45.279297
18240,-9.538500,0.823605,2.308010,-0.488281,-0.457764,-0.946045,45.240234
18280,-9.538500,0.885855,2.298434,0.244141,0.518799,-0.854492,45.265625
18320,-9.481039,0.881066,2.288857,0.305176,-0.610352,-0.732422,45.261719
18360,-9.500193,0.852336,2.293645,0.427246,-0.976562,-0.946045,45.285156
18400,-9.533711,0.871489,2.284068,0.427246,-0.671387,-0.885010,45.246094
18440,-9.495404,0.861913,2.288857,-0.213623,-1.403809,-0.396729,45.265625
18480,-9.471462,0.809240,2.293645,-0.854492,-2.349854,-0.091553,45.253906
18520,-9.557653,0.837971,2.322376,-0.640869,-1.007080,-0.549316,45.277344
18560,-9.557653,0.871489,2.327164,-0.457764,-0.305176,-0.640869,45.255859
18600,-9.495404,0.852336,2.331953,0.091553,-0.732422,-0.335693,45.246094
18640,-9.481039,0.833182,2.331953,0.213623,-0.854492,-0.518799,45.273438
18680,-9.485827,0.833182,2.331953,-0.091553,-1.068115,-0.671387,45.263672
18720,-9.524135,0.847547,2.336741,-0.213623,-0.427246,-0.610352,45.265625
18760,-9.504981,0.866701,2.336741,0.152588,-0.518799,-0.396729,45.251953
18800,-9.471462,0.866701,2.370260,-0.030518,-1.281738,-0.335693,45.269531
18840,-9.471462,0.804452,2.408567,-0.885010,-1.190186,-0.122070,45.259766
18880,-9.452309,0.785298,2.422932,-1.892090,-2.685547,-0.579834,45.279297
18920,-9.394848,0.871489,2.427721,-1.190186,-4.882812,-0.915527,45.253906
18960,-9.428367,0.852336,2.461239,-0.915527,-5.950928,-1.342773,45.250000
19000,-9.485827,0.794875,2.504335,-1.037598,-4.974365,-1.098633,45.259766
19040,-9.500193,0.785298,2.499547,-0.854492,-3.631592,-0.671387,45.265625
19080,-9.481039,0.809240,2.523489,-1.098633,-3.234863,-0.762939,45.261719
19120,-9.457097,0.814029,2.571373,-1.983643,-3.021240,-0.640869,45.240234
19160,-9.481039,0.794875,2.566584,-2.258301,-2.319336,-0.427246,45.246094
19200,-9.466674,0.814029,2.552219,-1.770020,-1.922607,-0.030518,45.265625
19240,-9.428367,0.818817,2.571373,-1.556396,-1.892090,0.366211,45.250000
19280,-9.452309,0.828394,2.590526,-1.129150,-0.976562,0.396729,45.234375
19320,-9.476251,0.847547,2.604892,-0.518799,-0.183105,0.366211,45.222656
19360,-9.457097,0.833182,2.600103,0.274658,0.366211,0.183105,45.257812
19400,-9.452309,0.794875,2.590526,0.701904,0.640869,0.061035,45.246094
19440,-9.437943,0.766145,2.609680,0.701904,0.610352,0.061035,45.259766
19480,-9.423578,0.746991,2.614468,0.335693,0.244141,-0.030518,45.234375
19520,-9.447520,0.761356,2.614468,0.061035,0.427246,-0.061035,45.240234
19560,-9.452309,0.770933,2.595315,0.305176,1.007080,-0.122070,45.257812
19600,-9.437943,0.766145,2.604892,0.427246,0.549316,-0.305176,45.271484
19640,-9.452309,0.742203,2.580950,0.305176,0.518799,-0.274658,45.240234
19680,-9.466674,0.723049,2.571373,-0.488281,0.366211,0.030518,45.263672
19720,-9.495404,0.761356,2.552219,-0.030518,2.105713,0.305176,45.234375
19760,-9.500193,0.790087,2.528277,-0.061035,3.204346,0.701904,45.259766
19800,-9.442732,0.742203,2.571373,-0.640869,1.861572,0.640869,45.253906
19840,-9.442732,0.775721,2.547431,-0.518799,2.136230,0.305176,45.253906
19880,-9.447520,0.837971,2.504335,-0.122070,2.624512,0.274658,45.251953
19920,-9.423578,0.785298,2.504335,0.061035,1.129150,-0.122070,45.246094
19960,-9.433155,0.756568,2.518700,-0.030518,-0.030518,-0.488281,45.259766
20000,-9.442732,0.794875,2.499547,-0.122070,-0.640869,-0.518799,45.255859
20040,-9.447520,0.794875,2.494758,-0.457764,-1.007080,-0.518799,45.263672
20080,-9.466674,0.785298,2.494758,-0.366211,-0.946045,-0.610352,45.263672
20120,-9.461885,0.823605,2.509123,0.213623,-1.312256,-0.610352,45.248047
20160,-9.471462,0.833182,2.518700,0.701904,-0.854492,-0.488281,45.240234
20200,-9.476251,0.794875,2.523489,0.610352,-0.427246,-0.488281,45.257812
20240,-9.461885,0.780510,2.523489,0.488281,-0.396729,-0.579834,45.265625
20280,-9.457097,0.794875,2.528277,0.549316,-0.640869,-0.488281,45.255859
20320,-9.471462,0.804452,2.523489,0.244141,-0.671387,-0.274658,45.257812
20360,-9.447520,0.799663,2.528277,0.000000,-0.762939,-0.152588,45.246094
20400,-9.466674,0.828394,2.509123,0.274658,-0.183105,-0.244141,45.250000
20440,-9.481039,0.823605,2.513912,0.549316,0.488281,-0.091553,45.246094
20480,-9.452309,0.809240,2.523489,0.518799,0.091553,-0.244141,45.234375
20520,-9.447520,0.799663,2.509123,0.793457,-0.305176,-0.488281,45.261719
20560,-9.471462,0.818817,2.509123,1.190186,-0.488281,-0.213623,45.236328
20600,-9.485827,0.794875,2.489970,0.915527,0.335693,-0.274658,45.275391
20640,-9.481039,0.794875,2.499547,1.312256,0.701904,-0.671387,45.269531
20680,-9.476251,0.794875,2.518700,1.617432,0.854492,-0.518799,45.265625
20720,-9.471462,0.775721,2.513912,1.403809,0.823975,-0.366211,45.250000
20760,-9.471462,0.756568,2.499547,1.068115,1.007080,-0.427246,45.273438
20800,-9.452309,0.723049,2.509123,0.122070,0.122070,-0.305176,45.253906
20840,-9.442732,0.708684,2.509123,-0.885010,-0.366211,0.213623,45.255859
20880,-9.447520,0.751779,2.509123,-1.312256,-0.610352,0.427246,45.246094
20920,-9.442732,0.837971,2.499547,-0.488281,-0.671387,0.244141,45.263672
20960,-9.461885,0.895431,2.499547,0.885010,-0.885010,-0.213623,45.279297
21000,-9.461885,0.905008,2.494758,2.349854,-0.976562,-0.579834,45.269531
21040,-9.471462,0.847547,2.485181,3.021240,-0.976562,-0.946045,45.259766
21080,-9.471462,0.780510,2.509123,2.868652,-0.854492,-1.098633,45.277344
21120,-9.457097,0.751779,2.518700,2.288818,-1.281738,-1.068115,45.269531
21160,-9.442732,0.737414,2.528277,1.495361,-1.586914,-1.037598,45.279297
21200,-9.442732,0.770933,2.542642,1.220703,-1.495361,-0.823975,45.273438
21240,-9.471462,0.823605,2.533065,1.312256,-0.671387,-0.701904,45.253906
21280,-9.466674,0.828394,2.542642,1.312256,-0.518799,-0.701904,45.277344
21320,-9.437943,0.790087,2.566584,0.640869,-1.190186,-0.488281,45.265625
21360,-9.461885,0.751779,2.547431,-0.183105,-0.305176,-0.152588,45.269531
21400,-9.466674,0.794875,2.561796,-0.366211,0.457764,0.091553,45.265625
21440,-9.457097,0.799663,2.566584,-0.793457,0.488281,0.122070,45.267578
21480,-9.447520,0.790087,2.580950,-1.190186,0.366211,0.091553,45.267578
21520,-9.461885,0.794875,2.571373,-1.617432,0.854492,0.305176,45.255859
21560,-9.457097,0.814029,2.561796,-1.647949,1.342773,0.457764,45.265625
21600,-9.457097,0.809240,2.561796,-1.770020,1.007080,0.427246,45.263672
21640,-9.452309,0.814029,2.557007,-1.586914,1.525879,0.488281,45.240234
21680,-9.457097,0.823605,2.547431,-1.159668,1.525879,0.396729,45.285156
21720,-9.457097,0.809240,2.537854,-0.976562,1.831055,0.244141,45.257812
21760,-9.461885,0.809240,2.523489,-0.854492,1.831055,0.030518,45.255859
21800,-9.466674,0.823605,2.509123,-0.579834,1.983643,0.061035,45.246094
21840,-9.466674,0.814029,2.509123,-0.488281,1.922607,0.000000,45.255859
21880,-9.481039,0.818817,2.480393,-0.549316,2.349854,0.183105,45.259766
21920,-9.485827,0.823605,2.451663,-0.579834,2.593994,0.274658,45.246094
21960,-9.476251,0.828394,2.461239,-0.335693,1.892090,0.061035,45.269531
22000,-9.452309,0.814029,2.466028,-0.244141,1.403809,0.152588,45.285156
22040,-9.471462,0.814029,2.442086,-0.305176,1.098633,0.213623,45.273438
22080,-9.476251,0.809240,2.432509,-0.457764,1.281738,0.213623,45.275391
22120,-9.476251,0.809240,2.427721,-0.335693,0.732422,0.183105,45.275391
22160,-9.495404,0.828394,2.413355,-0.335693,0.671387,0.457764,45.269531
22200,-9.500193,0.809240,2.398990,-0.549316,0.335693,0.274658,45.257812
22240,-9.490616,0.818817,2.384625,0.213623,0.396729,0.091553,45.248047
22280,-9.485827,0.833182,2.370260,0.335693,0.091553,-0.091553,45.289062
22320,-9.495404,0.809240,2.375048,0.213623,0.152588,-0.305176,45.273438
22360,-9.519346,0.799663,2.375048,0.061035,0.762939,-0.366211,45.281250
22400,-9.509769,0.818817,2.365471,-0.061035,1.068115,-0.274658,45.277344
22440,-9.476251,0.828394,2.360683,-0.335693,0.457764,-0.213623,45.281250
22480,-9.490616,0.809240,2.365471,-0.061035,0.000000,-0.396729,45.292969
22520,-9.514558,0.842759,2.331953,0.274658,0.854492,-0.274658,45.279297
22560,-9.524135,0.857124,2.331953,0.274658,1.403809,-0.183105,45.281250
22600,-9.581595,0.895431,2.298434,1.007080,3.509521,0.244141,45.269531
22640,-9.619903,0.919373,2.288857,2.014160,6.195068,0.854492,45.296875
22680,-9.519346,0.852336,2.293645,2.380371,5.401611,0.610352,45.255859
22720,-9.514558,0.751779,2.264915,1.129150,4.974365,0.457764,45.279297
22760,-9.514558,0.718261,2.269703,-0.335693,3.723145,-0.396729,45.292969
22800,-9.471462,0.756568,2.236184,-0.854492,2.502441,-0.671387,45.259766
22840,-9.485827,0.814029,2.178724,-0.823975,0.549316,-0.366211,45.275391
22880,-9.500193,0.818817,2.159570,-1.159668,-0.579834,-0.457764,45.273438
22920,-9.548077,0.852336,2.164358,-1.312256,-0.488281,-0.579834,45.279297
22960,-9.548077,0.881066,2.169147,-0.793457,-0.610352,-0.457764,45.269531
23000,-9.524135,0.861913,2.159570,-0.335693,-1.342773,-0.488281,45.275391
23040,-9.548077,0.814029,2.183512,-0.549316,-1.708984,-0.488281,45.296875
23080,-9.552865,0.814029,2.193089,-0.030518,-1.037598,-0.671387,45.292969
23120,-9.538500,0.842759,2.202666,0.457764,-1.556396,-0.610352,45.251953
23160,-9.524135,0.814029,2.197877,0.396729,-2.014160,-0.610352,45.275391
23200,-9.548077,0.804452,2.221819,0.091553,-1.739502,-0.488281,45.259766
23240,-9.552865,0.799663,2.231396,-0.061035,-1.037598,-0.366211,45.269531
23280,-9.533711,0.804452,2.221819,0.030518,-0.976562,-0.244141,45.255859
23320,-9.543288,0.804452,2.221819,-0.061035,-0.579834,-0.122070,45.283203
23360,-9.538500,0.809240,2.255338,0.091553,-0.823975,-0.305176,45.277344
23400,-9.533711,0.790087,2.264915,-0.061035,-0.854492,-0.244141,45.263672
23440,-9.528923,0.794875,2.255338,-0.213623,-0.732422,-0.183105,45.267578
23480,-9.524135,0.828394,2.264915,-0.030518,-0.366211,-0.091553,45.240234
23520,-9.509769,0.818817,2.288857,0.000000,-0.885010,-0.213623,45.273438
23560,-9.524135,0.804452,2.279280,-0.091553,-0.793457,-0.274658,45.269531
23600,-9.528923,0.799663,2.288857,-0.213623,-0.701904,-0.183105,45.283203
23640,-9.519346,0.799663,2.284068,-0.457764,-0.549316,-0.213623,45.273438
23680,-9.514558,0.794875,2.293645,-0.518799,-0.366211,-0.152588,45.269531
23720,-9.524135,0.814029,2.298434,-0.335693,-0.732422,-0.396729,45.269531
23760,-9.514558,0.828394,2.293645,0.030518,-0.946045,-0.579834,45.253906
23800,-9.514558,0.828394,2.293645,0.213623,-0.793457,-0.732422,45.265625
23840,-9.524135,0.814029,2.298434,0.091553,-0.396729,-0.549316,45.269531
23880,-9.538500,0.780510,2.308010,-0.518799,-0.030518,-0.457764,45.289062
23920,-9.495404,0.814029,2.303222,-0.061035,-0.213623,-0.518799,45.257812
23960,-9.490616,0.823605,2.298434,0.000000,-1.037598,-0.518799,45.271484
24000,-9.509769,0.799663,2.317587,-0.427246,-0.915527,-0.427246,45.275391
24040,-9.500193,0.780510,2.327164,-1.037598,-1.556396,-0.488281,45.271484
24080,-9.485827,0.770933,2.341529,-1.342773,-1.678467,-0.244141,45.267578
24120,-9.476251,0.770933,2.341529,-1.495361,-2.532959,-0.305176,45.255859
24160,-9.495404,0.770933,2.351106,-1.556396,-2.868652,-0.305176,45.273438
24200,-9.519346,0.794875,2.365471,-1.190186,-2.471924,-0.335693,45.294922
24240,-9.528923,0.799663,2.370260,-0.640869,-1.647949,-0.274658,45.275391
24280,-9.509769,0.804452,2.389413,-0.091553,-1.373291,-0.305176,45.277344
24320,-9.514558,0.790087,2.418144,0.274658,-1.068115,-0.274658,45.285156
24360,-9.519346,0.766145,2.427721,0.335693,-0.305176,-0.335693,45.267578
24400,-9.481039,0.766145,2.437297,0.549316,-0.549316,-0.579834,45.289062
24440,-9.471462,0.785298,2.442086,1.007080,-0.793457,-0.610352,45.283203
24480,-9.485827,0.756568,2.451663,0.854492,-0.823975,-0.579834,45.265625
24520,-9.504981,0.751779,2.432509,0.579834,-0.213623,-0.396729,45.250000
24560,-9.495404,0.751779,2.437297,0.488281,0.122070,-0.274658,45.275391
24600,-9.490616,0.766145,2.427721,0.244141,0.457764,-0.122070,45.285156
24640,-9.509769,0.766145,2.432509,0.274658,0.762939,0.091553,45.277344
24680,-9.519346,0.761356,2.432509,-0.152588,1.678467,0.366211,45.273438
24720,-9.519346,0.794875,2.394202,0.305176,3.601074,0.610352,45.275391
24760,-9.538500,0.823605,2.365471,0.854492,4.608154,0.854492,45.275391
24800,-9.562442,0.809240,2.327164,0.610352,6.744385,1.373291,45.287109
24840,-9.576807,0.785298,2.317587,0.274658,8.056641,1.647949,45.279297
24880,-9.524135,0.775721,2.293645,-0.030518,6.866455,1.098633,45.253906
24920,-9.466674,0.780510,2.250550,-0.549316,4.150391,0.579834,45.271484
24960,-9.447520,0.775721,2.240973,-0.885010,1.708984,0.213623,45.292969
25000,-9.476251,0.790087,2.226608,-1.403809,0.732422,0.244141,45.296875
25040,-9.500193,0.794875,2.202666,-1.800537,-0.061035,0.061035,45.296875
25080,-9.509769,0.814029,2.197877,-1.708984,-1.098633,-0.061035,45.294922
25120,-9.543288,0.823605,2.188300,-1.586914,-1.586914,-0.122070,45.283203
25160,-9.557653,0.837971,2.169147,-1.434326,-1.159668,0.091553,45.296875
25200,-9.552865,0.828394,2.178724,-1.251221,-0.946045,0.000000,45.294922
25240,-9.548077,0.823605,2.197877,-1.342773,-1.068115,0.000000,45.292969
25280,-9.538500,0.842759,2.207454,-1.068115,-1.129150,-0.030518,45.279297
25320,-9.552865,0.847547,2.197877,-0.885010,-0.488281,0.061035,45.279297
25360,-9.548077,0.842759,2.212242,-0.793457,-0.122070,0.000000,45.285156
25400,-9.533711,0.823605,2.231396,-0.701904,-0.457764,-0.152588,45.275391
25440,-9.514558,0.814029,2.231396,-0.946045,-0.915527,-0.396729,45.279297
25480,-9.543288,0.818817,2.245761,-0.732422,-0.762939,-0.488281,45.275391
25520,-9.533711,0.852336,2.231396,-0.183105,-0.549316,-0.457764,45.269531
25560,-9.514558,0.809240,2.221819,-0.457764,-1.007080,-0.640869,45.263672
25600,-9.548077,0.799663,2.236184,-0.427246,-0.762939,-0.701904,45.291016
25640,-9.552865,0.837971,2.240973,-0.030518,0.183105,-0.457764,45.283203
25680,-9.519346,0.828394,2.236184,0.030518,0.030518,-0.213623,45.281250
25720,-9.509769,0.775721,2.236184,-0.579834,-0.274658,-0.122070,45.265625
25760,-9.548077,0.770933,2.269703,-0.793457,0.213623,0.152588,45.281250
25800,-9.581595,0.756568,2.288857,-1.342773,1.647949,0.732422,45.271484
25840,-9.519346,0.665588,2.269703,-2.960205,1.464844,0.915527,45.289062
25880,-9.466674,0.679953,2.250550,-3.265381,0.061035,0.579834,45.287109
25920,-9.600749,0.871489,2.250550,-0.061035,2.441406,0.305176,45.289062
25960,-9.610326,1.043872,2.183512,3.479004,5.310059,-0.427246,45.289062
26000,-9.576807,0.981623,2.154782,4.577637,5.554199,-0.762939,45.296875
26040,-9.653421,0.842759,2.159570,3.448486,7.263184,0.366211,45.310547
26080,-9.672575,0.780510,2.092532,0.946045,10.040283,2.258301,45.259766
26120,-9.524135,0.761356,2.025495,-1.953125,7.232666,2.716064,45.275391
26160,-9.471462,0.823605,1.991976,-3.082275,2.655029,1.983643,45.283203
26200,-9.452309,0.900220,1.963245,-2.288818,0.488281,1.525879,45.298828
26240,-9.509769,0.895431,1.948880,-1.983643,-1.281738,0.793457,45.289062
26280,-9.538500,0.885855,1.924938,-1.434326,-2.471924,0.396729,45.281250
26320,-9.591172,0.852336,1.934515,-1.373291,-2.166748,-0.061035,45.285156
26360,-9.667787,0.876278,1.963245,-1.434326,-0.762939,-0.152588,45.273438
26400,-9.639056,0.852336,1.977611,-1.312256,0.762939,0.000000,45.289062
26440,-9.581595,0.881066,1.977611,-1.190186,0.823975,0.213623,45.283203
26480,-9.567230,0.928950,1.963245,-0.549316,0.640869,0.122070,45.300781
26520,-9.586384,0.952892,1.982399,0.305176,0.274658,0.183105,45.273438
26560,-9.586384,0.938527,1.972822,1.342773,0.366211,0.518799,45.292969
26600,-9.572019,0.895431,1.982399,1.129150,-0.305176,0.427246,45.292969
26640,-9.581595,0.871489,1.972822,0.885010,-0.793457,0.366211,45.269531
26680,-9.581595,0.871489,1.987187,0.549316,-0.213623,0.244141,45.279297
26720,-9.586384,0.890643,1.991976,0.427246,0.274658,-0.091553,45.275391
26760,-9.548077,0.876278,1.982399,0.213623,-1.342773,-0.701904,45.291016
26800,-9.524135,0.857124,1.991976,-0.518799,-2.563477,-0.854492,45.292969
26840,-9.562442,0.837971,2.015918,-1.434326,-3.540039,-1.098633,45.265625
26880,-9.562442,0.837971,2.054225,-2.014160,-4.272461,-1.434326,45.287109
26920,-9.528923,0.881066,2.078167,-1.770020,-5.767822,-1.892090,45.304688
26960,-9.538500,0.900220,2.102109,-1.556396,-6.225586,-1.617432,45.292969
27000,-9.586384,0.847547,2.135628,-1.434326,-5.187988,-1.647949,45.277344
27040,-9.586384,0.837971,2.197877,-0.640869,-4.119873,-1.739502,45.292969
27080,-9.548077,0.842759,2.197877,0.396729,-3.326416,-1.678467,45.298828
27120,-9.509769,0.857124,2.226608,1.068115,-4.486084,-1.770020,45.285156
27160,-9.524135,0.809240,2.255338,0.885010,-4.119873,-1.220703,45.283203
27200,-9.552865,0.770933,2.284068,-0.030518,-2.868652,-0.518799,45.291016
27240,-9.543288,0.756568,2.312799,-0.732422,-1.708984,-0.091553,45.289062
27280,-9.528923,0.766145,2.327164,-0.610352,-2.014160,-0.122070,45.267578
27320,-9.514558,0.794875,2.327164,-0.152588,-1.800537,-0.244141,45.289062
27360,-9.514558,0.804452,2.336741,-0.030518,-1.739502,-0.213623,45.287109
27400,-9.514558,0.785298,2.360683,-0.091553,-1.617432,-0.061035,45.300781
27440,-9.514558,0.775721,2.389413,-0.061035,-0.793457,-0.091553,45.292969
27480,-9.504981,0.804452,2.379837,0.152588,-0.976562,-0.305176,45.273438
27520,-9.481039,0.828394,2.375048,0.793457,-0.946045,-0.610352,45.292969
27560,-9.524135,0.809240,2.394202,0.946045,-0.885010,-1.007080,45.291016
27600,-9.481039,0.794875,2.384625,0.732422,-0.976562,-0.823975,45.294922
27640,-9.476251,0.790087,2.389413,0.274658,-0.732422,-0.579834,45.273438
27680,-9.509769,0.790087,2.413355,0.061035,0.000000,-0.457764,45.316406
27720,-9.461885,0.780510,2.437297,-0.335693,-2.014160,-0.610352,45.287109
27760,-9.476251,0.775721,2.413355,-0.457764,-1.190186,-0.762939,45.277344
27800,-9.524135,0.837971,2.427721,0.335693,-0.152588,-0.579834,45.298828
27840,-9.509769,0.847547,2.413355,0.793457,0.061035,-0.701904,45.275391
27880,-9.466674,0.847547,2.432509,1.434326,-0.885010,-1.068115,45.294922
27920,-9.514558,0.847547,2.418144,1.953125,0.671387,-0.671387,45.279297
27960,-9.533711,0.828394,2.398990,2.044678,2.288818,-0.183105,45.273438
28000,-9.490616,0.766145,2.403779,1.434326,1.220703,-0.305176,45.298828
28040,-9.466674,0.732626,2.413355,1.129150,0.152588,-0.457764,45.298828
28080,-9.524135,0.737414,2.384625,0.488281,0.640869,-0.183105,45.277344
28120,-9.519346,0.727837,2.365471,-0.366211,1.556396,0.152588,45.289062
28160,-9.471462,0.732626,2.375048,-1.159668,0.671387,0.183105,45.287109
28200,-9.476251,0.751779,2.389413,-1.251221,-0.061035,-0.091553,45.294922
28240,-9.519346,0.770933,2.389413,-1.190186,-0.091553,-0.274658,45.312500
28280,-9.476251,0.785298,2.355895,-0.640869,-0.762939,-0.579834,45.283203
28320,-9.471462,0.761356,2.346318,-0.579834,-1.647949,-0.701904,45.279297
28360,-9.548077,0.746991,2.346318,-1.129150,-0.366211,-0.427246,45.283203
28400,-9.528923,0.761356,2.351106,-1.464844,-0.457764,-0.488281,45.292969
28440,-9.490616,0.785298,2.360683,-0.671387,-0.579834,-0.488281,45.294922
28480,-9.509769,0.775721,2.360683,-0.305176,-0.457764,-0.366211,45.292969
28520,-9.533711,0.761356,2.351106,-0.549316,0.091553,-0.305176,45.289062
28560,-9.495404,0.756568,2.384625,-0.183105,-0.244141,-0.152588,45.275391
28600,-9.500193,0.751779,2.370260,0.152588,-0.061035,-0.335693,45.289062
28640,-9.485827,0.751779,2.379837,0.000000,-0.518799,-0.213623,45.287109
28680,-9.509769,0.751779,2.379837,0.152588,-0.091553,-0.030518,45.292969
28720,-9.514558,0.751779,2.379837,0.122070,0.701904,0.091553,45.289062
28760,-9.500193,0.756568,2.384625,-0.091553,0.030518,-0.030518,45.283203
28800,-9.500193,0.737414,2.403779,0.000000,-0.091553,-0.183105,45.302734
28840,-9.490616,0.746991,2.398990,0.122070,0.152588,-0.244141,45.296875
28880,-9.495404,0.761356,2.394202,0.274658,0.366211,-0.183105,45.298828
28920,-9.495404,0.756568,2.384625,0.396729,0.213623,-0.122070,45.285156
28960,-9.495404,0.775721,2.384625,0.549316,0.183105,-0.061035,45.283203
29000,-9.504981,0.780510,2.389413,0.732422,-0.030518,-0.061035,45.283203
29040,-9.490616,0.751779,2.379837,0.610352,-0.152588,-0.122070,45.300781
29080,-9.490616,0.737414,2.389413,0.427246,-0.335693,-0.213623,45.296875
29120,-9.509769,0.742203,2.375048,0.457764,0.183105,-0.244141,45.312500
29160,-9.500193,0.742203,2.375048,0.061035,-0.152588,-0.366211,45.314453
29200,-9.500193,0.751779,2.365471,0.244141,-0.274658,-0.427246,45.302734
29240,-9.519346,0.766145,2.370260,0.183105,-0.122070,-0.396729,45.322266
29280,-9.495404,0.751779,2.384625,0.122070,-0.305176,-0.396729,45.292969
29320,-9.495404,0.742203,2.370260,-0.335693,-0.610352,-0.427246,45.294922
29360,-9.509769,0.761356,2.379837,-0.030518,-0.518799,-0.183105,45.312500
29400,-9.500193,0.770933,2.355895,0.061035,-0.030518,-0.061035,45.292969
29440,-9.495404,0.751779,2.379837,-0.152588,-0.366211,-0.366211,45.296875
29480,-9.504981,0.746991,2.389413,0.061035,-0.122070,-0.579834,45.304688
29520,-9.490616,0.761356,2.379837,0.152588,-0.274658,-0.488281,45.308594
29560,-9.476251,0.751779,2.384625,-0.091553,-0.854492,-0.671387,45.292969
29600,-9.500193,0.746991,2.398990,-0.030518,-0.793457,-0.671387,45.308594
29640,-9.504981,0.766145,2.394202,0.183105,-0.549316,-0.518799,45.291016
29680,-9.500193,0.770933,2.384625,0.335693,-0.427246,-0.457764,45.300781
29720,-9.509769,0.761356,2.375048,0.305176,0.366211,-0.213623,45.304688
29760,-9.514558,0.761356,2.389413,0.366211,0.488281,-0.183105,45.283203
29800,-9.519346,0.751779,2.360683,0.244141,1.068115,0.030518,45.298828
29840,-9.509769,0.761356,2.355895,0.244141,1.708984,0.213623,45.285156
29880,-9.514558,0.775721,2.375048,0.579834,2.593994,0.152588,45.308594
29920,-9.543288,0.766145,2.379837,0.549316,3.570557,0.457764,45.310547
29960,-9.543288,0.770933,2.327164,0.427246,4.730225,0.640869,45.292969
30000,-9.557653,0.775721,2.284068,0.427246,5.462646,0.976562,45.304688
30040,-9.562442,0.775721,2.255338,0.274658,6.164551,1.098633,45.298828
30080,-9.581595,0.814029,2.255338,0.335693,6.530762,1.251221,45.306641
30120,-9.504981,0.833182,2.207454,0.061035,4.455566,1.098633,45.304688
30160,-9.476251,0.751779,2.202666,-0.579834,2.685547,0.610352,45.294922
30200,-9.543288,0.799663,2.159570,-0.640869,3.082275,0.732422,45.302734
30240,-9.504981,0.818817,2.126051,-1.190186,1.831055,0.732422,45.296875
30280,-9.514558,0.799663,2.154782,-0.976562,0.457764,0.061035,45.314453
30320,-9.576807,0.823605,2.135628,-0.671387,0.885010,0.030518,45.324219
30360,-9.552865,0.833182,2.097321,-0.854492,0.030518,0.091553,45.320312
30400,-9.543288,0.809240,2.092532,-0.946045,0.000000,0.122070,45.298828
30440,-9.557653,0.809240,2.111686,-1.037598,-0.793457,0.000000,45.294922
30480,-9.552865,0.823605,2.097321,-1.068115,-0.976562,-0.213623,45.287109
30520,-9.548077,0.818817,2.106898,-1.251221,-1.312256,-0.427246,45.292969
30560,-9.548077,0.823605,2.111686,-1.159668,-1.373291,-0.640869,45.308594
30600,-9.548077,0.809240,2.126051,-0.976562,-2.014160,-1.159668,45.291016
30640,-9.548077,0.809240,2.149993,-0.915527,-2.044678,-1.190186,45.308594
30680,-9.543288,0.804452,2.159570,-1.037598,-2.136230,-1.220703,45.292969
30720,-9.572019,0.804452,2.169147,-1.098633,-1.373291,-0.976562,45.314453
30760,-9.552865,0.804452,2.188300,-0.976562,-0.885010,-0.854492,45.310547
30800,-9.533711,0.780510,2.217031,-1.129150,-2.624512,-1.007080,45.306641
30840,-9.533711,0.746991,2.226608,-1.678467,-2.655029,-0.610352,45.312500
30880,-9.543288,0.723049,2.236184,-2.716064,-2.471924,-0.335693,45.312500
30920,-9.538500,0.756568,2.236184,-3.112793,-1.525879,0.244141,45.314453
30960,-9.519346,0.785298,2.260126,-3.448486,-2.197266,0.518799,45.318359
31000,-9.509769,0.794875,2.269703,-2.960205,-1.983643,0.549316,45.322266
31040,-9.528923,0.828394,2.298434,-1.647949,-2.197266,0.213623,45.306641
31080,-9.548077,0.785298,2.288857,-0.946045,-1.586914,-0.244141,45.302734
31120,-9.562442,0.694318,2.284068,-0.732422,-0.701904,-0.976562,45.314453
31160,-9.576807,0.651223,2.284068,-0.488281,0.152588,-1.159668,45.298828
31200,-9.538500,0.632069,2.264915,-0.457764,0.427246,-1.159668,45.281250
31240,-9.548077,0.646434,2.236184,-0.518799,0.793457,-0.885010,45.316406
31280,-9.557653,0.684742,2.240973,-0.122070,1.129150,-0.488281,45.312500
31320,-9.548077,0.689530,2.236184,0.061035,0.915527,-0.457764,45.312500
31360,-9.548077,0.694318,2.231396,0.274658,1.190186,-0.274658,45.302734
31400,-9.543288,0.713472,2.240973,0.671387,1.342773,-0.091553,45.300781
31440,-9.528923,0.723049,2.236184,0.976562,1.373291,-0.030518,45.310547
31480,-9.509769,0.727837,2.245761,1.251221,0.793457,0.061035,45.300781
31520,-9.519346,0.742203,2.245761,1.495361,0.335693,0.091553,45.324219
31560,-9.533711,0.718261,2.264915,1.312256,0.152588,0.183105,45.308594
31600,-9.528923,0.703895,2.260126,1.159668,0.579834,0.152588,45.304688
31640,-9.524135,0.727837,2.245761,1.220703,0.518799,0.061035,45.291016
31680,-9.519346,0.737414,2.236184,1.159668,-0.457764,-0.061035,45.314453
31720,-9.543288,0.723049,2.231396,0.946045,-0.091553,0.122070,45.308594
31760,-9.562442,0.718261,2.231396,0.488281,-0.366211,0.335693,45.279297
31800,-9.533711,0.718261,2.217031,0.061035,-0.640869,0.457764,45.302734
31840,-9.557653,0.708684,2.221819,-0.823975,0.091553,0.793457,45.306641
31880,-9.567230,0.751779,2.250550,-0.976562,1.312256,0.976562,45.312500
31920,-9.538500,0.785298,2.255338,-0.366211,1.037598,0.732422,45.289062
31960,-9.528923,0.775721,2.240973,-0.335693,0.579834,0.549316,45.302734
32000,-9.538500,0.761356,2.260126,-0.457764,0.274658,0.366211,45.304688
32040,-9.538500,0.761356,2.245761,-1.007080,0.518799,0.305176,45.316406
32080,-9.509769,0.780510,2.245761,-0.885010,0.183105,0.366211,45.312500
32120,-9.524135,0.804452,2.279280,-0.152588,-0.152588,0.427246,45.304688
32160,-9.548077,0.809240,2.264915,0.579834,0.305176,0.427246,45.298828
32200,-9.528923,0.794875,2.236184,0.671387,-0.274658,0.335693,45.304688
32240,-9.524135,0.790087,2.221819,0.793457,-0.274658,0.244141,45.328125
32280,-9.567230,0.809240,2.231396,0.579834,0.152588,-0.030518,45.316406
32320,-9.552865,0.842759,2.236184,0.946045,0.549316,-0.305176,45.310547
32360,-9.509769,0.876278,2.212242,1.678467,0.152588,-0.396729,45.298828
32400,-9.514558,0.866701,2.217031,1.800537,-0.396729,-0.366211,45.326172
32440,-9.543288,0.818817,2.207454,1.251221,-0.152588,-0.244141,45.318359
32480,-9.548077,0.756568,2.193089,0.427246,0.122070,-0.457764,45.302734
32520,-9.567230,0.756568,2.173935,-0.091553,0.274658,-0.457764,45.304688
32560,-9.562442,0.775721,2.154782,-0.274658,0.244141,-0.244141,45.314453
32600,-9.548077,0.790087,2.164358,-0.396729,0.335693,-0.030518,45.320312
32640,-9.548077,0.780510,2.178724,-0.671387,0.152588,0.091553,45.302734
32680,-9.543288,0.775721,2.183512,-1.129150,0.091553,0.305176,45.296875
32720,-9.548077,0.770933,2.178724,-1.373291,0.183105,0.030518,45.302734
32760,-9.524135,0.833182,2.212242,-0.366211,-0.183105,-0.030518,45.302734
32800,-9.548077,0.852336,2.202666,0.122070,0.091553,-0.122070,45.298828
32840,-9.562442,0.847547,2.207454,0.518799,0.427246,-0.396729,45.292969
32880,-9.552865,0.828394,2.207454,0.549316,0.823975,-0.183105,45.298828
32920,-9.528923,0.794875,2.197877,0.457764,0.518799,-0.274658,45.291016
32960,-9.519346,0.799663,2.193089,0.213623,-0.091553,-0.122070,45.332031
33000,-9.548077,0.775721,2.197877,0.061035,-0.030518,0.030518,45.308594
33040,-9.557653,0.770933,2.202666,-0.244141,-0.183105,-0.030518,45.314453
33080,-9.538500,0.770933,2.173935,-0.549316,-0.488281,-0.213623,45.298828
33120,-9.548077,0.766145,2.159570,-0.976562,-0.671387,-0.183105,45.324219
33160,-9.600749,0.761356,2.183512,-0.885010,0.915527,0.030518,45.302734
33200,-9.629479,0.823605,2.293645,0.366211,2.624512,0.091553,45.318359
33240,-9.509769,0.928950,2.231396,2.960205,1.586914,0.152588,45.300781
33280,-9.452309,0.909797,2.092532,3.021240,-0.183105,0.305176,45.312500
33320,-9.500193,0.794875,2.149993,2.227783,-1.770020,-1.037598,45.324219
33360,-9.543288,0.794875,2.188300,1.983643,-1.861572,-0.946045,45.312500
33400,-9.543288,0.852336,2.145205,2.380371,-2.105713,-0.976562,45.312500
33440,-9.567230,0.847547,2.183512,2.197266,-1.983643,-1.037598,45.314453
33480,-9.572019,0.837971,2.188300,2.075195,-0.579834,-1.007080,45.316406
33520,-9.514558,0.842759,2.226608,1.647949,-0.366211,-0.671387,45.322266
33560,-9.552865,0.799663,2.284068,0.976562,0.061035,-0.549316,45.318359
33600,-9.543288,0.818817,2.308010,0.579834,0.244141,-1.068115,45.310547
33640,-9.485827,0.842759,2.240973,0.213623,0.579834,-0.915527,45.308594
33680,-9.552865,0.818817,2.188300,-0.335693,1.098633,-1.068115,45.312500
33720,-9.639056,0.790087,2.173935,-1.068115,2.502441,-0.732422,45.314453
33760,-9.543288,0.766145,2.169147,-1.342773,1.770020,-0.427246,45.292969
33800,-9.533711,0.723049,2.145205,-1.647949,1.464844,-0.457764,45.310547
33840,-9.610326,0.780510,2.130840,-1.342773,2.166748,0.366211,45.316406
33880,-9.562442,0.828394,2.111686,-0.915527,1.800537,0.671387,45.316406
33920,-9.519346,0.756568,2.121263,-1.373291,1.464844,0.793457,45.318359
33960,-9.548077,0.751779,2.130840,-2.410889,0.579834,1.098633,45.318359
34000,-9.557653,0.833182,2.121263,-2.838135,0.518799,0.946045,45.302734
34040,-9.543288,0.876278,2.135628,-2.990723,0.885010,0.549316,45.308594
34080,-9.548077,0.881066,2.130840,-3.265381,1.037598,0.457764,45.314453
34120,-9.548077,0.852336,2.116474,-3.784180,0.793457,0.122070,45.324219
34160,-9.562442,0.852336,2.121263,-3.906250,1.373291,-0.335693,45.304688
34200,-9.562442,0.885855,2.116474,-3.448486,1.373291,-0.335693,45.298828
34240,-9.557653,0.837971,2.068590,-2.868652,0.946045,-0.518799,45.335938
34280,-9.615114,0.766145,2.030283,-2.777100,1.892090,-0.427246,45.304688
34320,-9.624691,0.699107,1.991976,-3.784180,2.380371,-0.457764,45.314453
34360,-9.643845,0.651223,1.972822,-4.516602,3.570557,0.030518,45.314453
34400,-9.643845,0.689530,1.972822,-5.310059,4.394531,0.732422,45.308594
34440,-9.595961,0.727837,1.953669,-5.798340,4.425049,1.434326,45.312500
34480,-9.543288,0.751779,1.982399,-6.011963,2.716064,1.281738,45.324219
34520,-9.572019,0.799663,1.972822,-5.859375,2.593994,1.342773,45.304688
34560,-9.572019,0.842759,1.963245,-5.371094,2.075195,1.403809,45.306641
34600,-9.552865,0.837971,1.982399,-4.455566,0.915527,0.976562,45.328125
34640,-9.572019,0.790087,1.977611,-3.967285,0.213623,0.671387,45.308594
34680,-9.586384,0.770933,1.977611,-3.631592,0.335693,0.549316,45.312500
34720,-9.548077,0.761356,1.991976,-3.723145,-0.091553,0.396729,45.322266
34760,-9.581595,0.737414,1.982399,-4.058838,-1.251221,0.183105,45.326172
34800,-9.648633,0.727837,1.953669,-4.486084,-0.854492,0.183105,45.304688
34840,-9.600749,0.785298,1.977611,-4.028320,-0.488281,0.366211,45.320312
34880,-9.533711,0.790087,2.059013,-3.204346,-1.434326,-0.152588,45.314453
34920,-9.557653,0.785298,2.068590,-2.441406,-3.326416,-1.037598,45.314453
34960,-9.581595,0.732626,2.011129,-1.220703,-3.936768,-1.831055,45.302734
35000,-9.595961,0.670376,1.987187,0.000000,-3.753662,-2.380371,45.308594
35040,-9.658210,0.550666,1.982399,2.105713,-6.317139,-4.150391,45.318359
35080,-9.706094,0.392649,1.881842,1.647949,-7.476807,-4.608154,45.304688
35120,-9.720459,0.292093,1.790863,-0.518799,-5.187988,-3.234863,45.302734
35160,-9.706094,0.196325,1.728614,-0.030518,-3.814697,-3.082275,45.312500
35200,-9.691729,0.440533,1.795651,1.281738,-3.662109,-2.014160,45.322266
35240,-9.476251,0.785298,1.867477,3.906250,-2.777100,0.244141,45.316406
35280,-9.437943,0.723049,1.881842,8.331299,-2.319336,-0.488281,45.328125
35320,-9.706094,0.263362,1.929727,8.422852,0.213623,-0.457764,45.333984
35360,-9.840169,0.359130,2.063802,5.523682,1.739502,1.800537,45.320312
35400,-9.538500,0.656011,2.164358,6.622314,0.457764,1.159668,45.328125
35440,-9.366117,0.723049,2.145205,10.498047,-1.281738,-0.152588,45.318359
35480,-9.457097,0.761356,2.183512,10.498047,-1.892090,0.274658,45.324219
35520,-9.658210,0.708684,2.264915,9.552002,-1.739502,-0.030518,45.310547
35560,-9.662998,0.737414,2.217031,9.094238,-0.976562,0.030518,45.337891
35600,-9.519346,0.847547,2.178724,9.674072,-1.342773,0.335693,45.335938
35640,-9.543288,0.833182,2.197877,9.399414,-0.213623,0.335693,45.326172
35680,-9.586384,0.814029,2.269703,8.758545,1.312256,0.396729,45.324219
35720,-9.500193,0.881066,2.336741,8.239746,-0.183105,0.457764,45.316406
35760,-9.481039,0.976834,2.298434,7.904053,-1.617432,0.366211,45.302734
35800,-9.519346,1.019930,2.288857,7.690430,-1.312256,0.488281,45.310547
35840,-9.495404,0.986411,2.365471,7.415771,-0.762939,0.244141,45.333984
35880,-9.428367,0.919373,2.375048,5.981445,-2.655029,-0.061035,45.314453
35920,-9.471462,0.885855,2.375048,4.364014,-1.678467,-0.152588,45.312500
35960,-9.509769,0.933739,2.379837,3.784180,-1.861572,-0.610352,45.322266
36000,-9.490616,0.957681,2.346318,3.082275,-1.495361,-0.457764,45.330078
36040,-9.481039,0.957681,2.336741,2.105713,-2.044678,-0.610352,45.333984
36080,-9.500193,0.919373,2.327164,1.159668,-2.319336,-0.732422,45.324219
36120,-9.509769,0.948104,2.341529,0.579834,-3.082275,-0.610352,45.330078
36160,-9.524135,0.957681,2.336741,-0.061035,-2.014160,-0.274658,45.341797
36200,-9.514558,0.933739,2.336741,-0.274658,-1.342773,-0.061035,45.324219
36240,-9.509769,0.943315,2.341529,0.000000,-1.403809,-0.030518,45.308594
36280,-9.524135,0.962469,2.317587,0.274658,-0.488281,0.030518,45.322266
36320,-9.538500,0.948104,2.312799,0.488281,0.549316,0.122070,45.333984
36360,-9.528923,0.919373,2.322376,0.396729,0.854492,0.152588,45.324219
36400,-9.500193,0.900220,2.336741,0.427246,0.885010,0.183105,45.322266
36440,-9.500193,0.909797,2.327164,0.518799,0.732422,0.213623,45.328125
36480,-9.509769,0.933739,2.322376,0.427246,0.732422,0.366211,45.316406
36520,-9.514558,0.895431,2.336741,0.000000,0.610352,0.274658,45.347656
36560,-9.495404,0.900220,2.327164,0.396729,1.159668,0.061035,45.306641
36600,-9.490616,0.933739,2.298434,0.640869,0.335693,0.152588,45.308594
36640,-9.485827,0.914585,2.322376,0.122070,-0.244141,0.274658,45.332031
36680,-9.495404,0.857124,2.341529,-0.518799,-0.183105,-0.030518,45.341797
36720,-9.519346,0.861913,2.298434,-0.885010,0.427246,0.061035,45.312500
36760,-9.500193,0.890643,2.303222,-0.885010,-0.061035,-0.152588,45.318359
36800,-9.495404,0.919373,2.293645,-0.640869,-0.518799,-0.213623,45.318359
36840,-9.528923,0.933739,2.284068,-0.549316,-0.885010,-0.213623,45.310547
36880,-9.552865,0.928950,2.274492,-0.640869,-0.244141,-0.122070,45.304688
36920,-9.519346,0.914585,2.264915,-0.549316,0.213623,-0.122070,45.339844
36960,-9.509769,0.919373,2.269703,-0.610352,0.610352,-0.183105,45.330078
37000,-9.524135,0.905008,2.288857,-0.518799,0.671387,-0.274658,45.326172
37040,-9.509769,0.909797,2.284068,-0.518799,0.579834,-0.305176,45.312500
37080,-9.519346,0.909797,2.279280,-0.701904,0.549316,-0.366211,45.318359
37120,-9.524135,0.881066,2.255338,-1.495361,0.976562,-0.274658,45.304688
37160,-9.519346,0.876278,2.255338,-2.258301,1.312256,-0.244141,45.328125
37200,-9.490616,0.881066,2.288857,-2.777100,0.518799,-0.213623,45.337891
37240,-9.495404,0.871489,2.298434,-3.295898,0.183105,-0.152588,45.333984
37280,-9.509769,0.933739,2.260126,-3.021240,0.549316,0.122070,45.339844
37320,-9.514558,0.962469,2.260126,-2.868652,0.305176,0.427246,45.341797
37360,-9.528923,0.914585,2.269703,-3.173828,0.671387,0.305176,45.322266
37400,-9.552865,0.900220,2.274492,-2.899170,0.854492,0.488281,45.322266
37440,-9.519346,0.948104,2.226608,-2.288818,1.068115,0.701904,45.337891
37480,-9.500193,0.981623,2.236184,-1.525879,1.007080,0.549316,45.335938
37520,-9.557653,0.952892,2.322376,-0.976562,1.373291,0.823975,45.324219
37560,-9.552865,0.919373,2.351106,0.305176,1.770020,1.098633,45.322266
37600,-9.481039,0.924162,2.207454,0.274658,1.373291,1.281738,45.333984
37640,-9.447520,0.909797,2.164358,-0.366211,-0.946045,-0.122070,45.339844
37680,-9.461885,0.914585,2.226608,0.152588,-3.143311,-1.129150,45.318359
37720,-9.485827,0.919373,2.188300,0.122070,-4.058838,-1.525879,45.322266
37760,-9.557653,0.919373,2.212242,-0.030518,-3.814697,-1.647949,45.318359
37800,-9.586384,0.900220,2.269703,-0.183105,-2.441406,-1.190186,45.314453
37840,-9.548077,0.871489,2.231396,-0.152588,-0.579834,-0.579834,45.332031
37880,-9.533711,0.857124,2.236184,0.000000,0.335693,-0.427246,45.337891
37920,-9.519346,0.833182,2.327164,0.244141,0.518799,-0.671387,45.328125
37960,-9.519346,0.847547,2.327164,-0.213623,-0.274658,-0.488281,45.328125
38000,-9.528923,0.881066,2.274492,-0.762939,0.000000,-0.244141,45.333984
38040,-9.509769,0.861913,2.279280,-0.854492,0.549316,0.000000,45.332031
38080,-9.524135,0.818817,2.298434,-1.312256,0.946045,-0.122070,45.324219
38120,-9.514558,0.857124,2.298434,-1.037598,0.610352,-0.762939,45.347656
38160,-9.509769,0.914585,2.317587,-0.427246,0.488281,-1.007080,45.312500
38200,-9.528923,0.919373,2.312799,0.671387,1.312256,-0.946045,45.320312
38240,-9.490616,0.857124,2.327164,0.671387,0.579834,-0.640869,45.345703
38280,-9.485827,0.785298,2.308010,0.000000,-0.030518,-0.366211,45.341797
38320,-9.514558,0.823605,2.298434,-0.152588,0.335693,-0.030518,45.324219
38360,-9.543288,0.833182,2.308010,-0.793457,0.854492,0.274658,45.312500
38400,-9.528923,0.852336,2.298434,-0.976562,1.068115,0.488281,45.318359
38440,-9.495404,0.890643,2.308010,-0.579834,0.091553,0.518799,45.328125
38480,-9.514558,0.905008,2.303222,-0.091553,0.274658,0.640869,45.333984
38520,-9.524135,0.857124,2.284068,-0.030518,0.152588,0.366211,45.332031
38560,-9.524135,0.814029,2.284068,-0.427246,0.091553,0.305176,45.337891
38600,-9.528923,0.809240,2.284068,-0.701904,0.274658,0.122070,45.318359
38640,-9.524135,0.818817,2.264915,-0.823975,-0.061035,-0.091553,45.332031
38680,-9.519346,0.871489,2.236184,-0.457764,-0.030518,-0.335693,45.337891
38720,-9.524135,0.890643,2.240973,-0.366211,-0.274658,-0.274658,45.347656
38760,-9.519346,0.847547,2.245761,-0.732422,-0.427246,-0.366211,45.341797
38800,-9.528923,0.828394,2.255338,-0.854492,-0.305176,-0.610352,45.351562
38840,-9.509769,0.871489,2.269703,-0.274658,-1.007080,-0.671387,45.332031
38880,-9.543288,0.861913,2.255338,0.091553,0.122070,-0.701904,45.333984
38920,-9.533711,0.861913,2.255338,0.366211,-0.152588,-1.007080,45.341797
38960,-9.524135,0.881066,2.240973,0.701904,-0.579834,-0.610352,45.341797
39000,-9.538500,0.866701,2.236184,0.396729,0.091553,-0.183105,45.341797
39040,-9.538500,0.837971,2.231396,-0.122070,0.579834,-0.183105,45.326172
39080,-9.528923,0.852336,2.221819,-0.366211,0.579834,-0.244141,45.351562
39120,-9.533711,0.890643,2.221819,-0.335693,0.396729,0.122070,45.347656
39160,-9.543288,0.871489,2.217031,-0.640869,0.671387,0.244141,45.345703
39200,-9.543288,0.885855,2.202666,-0.640869,1.007080,0.366211,45.353516
39240,-9.528923,0.914585,2.207454,-0.427246,0.854492,0.305176,45.337891
39280,-9.514558,0.909797,2.226608,-0.305176,0.549316,0.152588,45.347656
39320,-9.533711,0.890643,2.221819,0.000000,0.274658,0.152588,45.337891
39360,-9.538500,0.881066,2.207454,-0.244141,0.671387,0.488281,45.330078
39400,-9.533711,0.861913,2.202666,-0.701904,1.007080,0.396729,45.357422
39440,-9.538500,0.857124,2.207454,-0.762939,1.190186,0.274658,45.351562
39480,-9.524135,0.909797,2.221819,-0.518799,0.732422,0.122070,45.324219
39520,-9.504981,0.938527,2.255338,0.000000,-0.457764,-0.091553,45.341797
39560,-9.500193,0.905008,2.236184,-0.030518,-1.068115,0.030518,45.341797
39600,-9.548077,0.885855,2.207454,0.030518,0.305176,0.152588,45.345703
39640,-9.538500,0.905008,2.212242,0.122070,0.183105,0.061035,45.343750
39680,-9.519346,0.885855,2.226608,0.213623,0.152588,0.030518,45.341797
39720,-9.538500,0.857124,2.240973,-0.244141,-0.396729,-0.091553,45.359375
39760,-9.557653,0.857124,2.202666,-0.640869,0.579834,0.061035,45.324219
39800,-9.538500,0.861913,2.202666,-1.159668,0.671387,0.427246,45.333984
39840,-9.538500,0.866701,2.226608,-1.525879,1.129150,0.427246,45.345703
39880,-9.548077,0.919373,2.207454,-0.915527,1.464844,0.152588,45.349609
39920,-9.538500,0.938527,2.202666,0.305176,0.427246,-0.122070,45.351562
39960,-9.528923,0.924162,2.173935,1.068115,1.037598,-0.244141,45.369141
40000,-9.557653,0.914585,2.169147,1.220703,1.495361,-0.305176,45.351562
40040,-9.548077,0.881066,2.159570,1.007080,1.556396,-0.396729,45.343750
40080,-9.533711,0.861913,2.154782,0.549316,1.220703,-0.427246,45.361328
40120,-9.562442,0.861913,2.140416,0.152588,1.739502,-0.091553,45.361328
40160,-9.557653,0.861913,2.126051,-0.030518,1.983643,0.030518,45.367188
40200,-9.552865,0.866701,2.126051,-0.061035,1.678467,0.000000,45.351562
40240,-9.567230,0.866701,2.102109,-0.366211,1.831055,-0.091553,45.357422
40280,-9.562442,0.881066,2.082955,-0.335693,1.800537,-0.183105,45.345703
40320,-9.548077,0.890643,2.082955,-0.518799,0.915527,-0.244141,45.357422
40360,-9.552865,0.866701,2.063802,-0.793457,0.640869,-0.091553,45.357422
40400,-9.562442,0.861913,2.068590,-1.495361,0.183105,-0.030518,45.345703
40440,-9.572019,0.890643,2.063802,-1.098633,0.274658,0.030518,45.341797
40480,-9.538500,0.900220,2.044648,-0.946045,-0.396729,0.061035,45.347656
40520,-9.538500,0.881066,2.059013,-0.823975,-0.946045,-0.335693,45.339844
40560,-9.567230,0.866701,2.059013,-0.732422,-1.037598,-0.396729,45.337891
40600,-9.552865,0.895431,2.049437,-0.549316,-0.854492,-0.427246,45.351562
40640,-9.552865,0.890643,2.068590,-0.915527,-1.464844,-0.427246,45.353516
40680,-9.552865,0.861913,2.082955,-0.854492,-1.983643,-0.427246,45.335938
40720,-9.567230,0.861913,2.102109,-0.732422,-1.831055,-0.366211,45.339844
40760,-9.562442,0.857124,2.116474,-0.946045,-2.014160,-0.335693,45.347656
40800,-9.562442,0.833182,2.111686,-1.129150,-1.861572,-0.366211,45.341797
40840,-9.562442,0.861913,2.135628,-0.854492,-1.556396,-0.488281,45.328125
40880,-9.562442,0.900220,2.145205,-0.335693,-1.495361,-0.427246,45.341797
40920,-9.548077,0.895431,2.140416,0.244141,-1.190186,-0.610352,45.339844
40960,-9.543288,0.890643,2.164358,0.701904,-1.190186,-0.915527,45.361328
41000,-9.548077,0.900220,2.188300,1.037598,-0.549316,-0.885010,45.345703
41040,-9.533711,0.881066,2.193089,1.556396,-0.976562,-1.159668,45.343750
41080,-9.524135,0.900220,2.188300,2.136230,-1.403809,-1.281738,45.351562
41120,-9.538500,0.881066,2.197877,1.983643,-1.190186,-0.946045,45.347656
41160,-9.543288,0.857124,2.212242,1.647949,-0.549316,-0.854492,45.351562
41200,-9.524135,0.837971,2.236184,1.281738,-1.434326,-0.793457,45.371094
41240,-9.524135,0.785298,2.236184,0.366211,-1.708984,-0.518799,45.339844
41280,-9.548077,0.804452,2.217031,-0.030518,-0.610352,-0.152588,45.361328
41320,-9.552865,0.823605,2.217031,-0.457764,-0.671387,-0.213623,45.349609
41360,-9.543288,0.780510,2.236184,-1.312256,-0.366211,0.061035,45.351562
41400,-9.548077,0.780510,2.240973,-1.922607,0.305176,0.183105,45.351562
41440,-9.528923,0.818817,2.236184,-2.044678,0.335693,0.244141,45.347656
41480,-9.504981,0.833182,2.231396,-2.227783,-0.701904,0.213623,45.367188
41520,-9.519346,0.828394,2.255338,-2.380371,-1.159668,0.152588,45.335938
41560,-9.538500,0.833182,2.260126,-2.227783,-1.190186,-0.152588,45.328125
41600,-9.504981,0.823605,2.279280,-1.892090,-1.403809,-0.274658,45.353516
41640,-9.519346,0.809240,2.284068,-1.770020,-1.373291,-0.366211,45.369141
41680,-9.524135,0.804452,2.303222,-1.495361,-1.403809,-0.640869,45.335938
41720,-9.500193,0.809240,2.308010,-1.220703,-1.586914,-0.701904,45.357422
41760,-9.514558,0.823605,2.298434,-0.885010,-1.159668,-0.732422,45.345703
41800,-9.519346,0.823605,2.308010,-0.488281,-1.342773,-0.823975,45.349609
41840,-9.509769,0.804452,2.312799,-0.183105,-1.281738,-0.885010,45.341797
41880,-9.514558,0.790087,2.312799,0.091553,-1.068115,-1.068115,45.351562
41920,-9.548077,0.756568,2.303222,0.305176,-0.762939,-0.976562,45.359375
41960,-9.528923,0.732626,2.308010,0.122070,-0.701904,-0.885010,45.324219
42000,-9.519346,0.746991,2.312799,0.244141,-1.129150,-0.976562,45.341797
42040,-9.519346,0.737414,2.331953,0.183105,-1.434326,-0.915527,45.367188
42080,-9.504981,0.737414,2.336741,-0.091553,-1.678467,-0.854492,45.365234
42120,-9.519346,0.751779,2.341529,0.366211,-1.098633,-0.640869,45.367188
42160,-9.524135,0.775721,2.331953,0.732422,-0.671387,-0.305176,45.351562
42200,-9.514558,0.756568,2.351106,1.068115,0.091553,-0.122070,45.333984
42240,-9.538500,0.751779,2.360683,1.037598,1.098633,0.244141,45.373047
42280,-9.543288,0.761356,2.336741,1.251221,2.227783,0.610352,45.355469
42320,-9.524135,0.790087,2.327164,1.312256,2.441406,0.732422,45.339844
42360,-9.528923,0.790087,2.293645,0.976562,3.356934,0.854492,45.347656
42400,-9.552865,0.818817,2.279280,0.946045,3.723145,1.037598,45.353516
42440,-9.524135,0.804452,2.274492,0.793457,3.875732,1.190186,45.337891
42480,-9.485827,0.780510,2.279280,0.793457,2.716064,0.701904,45.347656
42520,-9.519346,0.799663,2.274492,1.068115,2.166748,0.366211,45.355469
42560,-9.533711,0.818817,2.250550,1.037598,1.708984,0.030518,45.347656
42600,-9.538500,0.804452,2.236184,0.488281,1.770020,-0.366211,45.351562
42640,-9.533711,0.799663,2.221819,0.091553,1.770020,-0.640869,45.324219
42680,-9.519346,0.799663,2.197877,-0.152588,1.647949,-0.579834,45.351562
42720,-9.514558,0.799663,2.193089,-0.762939,1.220703,-0.671387,45.339844
42760,-9.548077,0.799663,2.145205,-1.312256,1.464844,-1.007080,45.339844
42800,-9.538500,0.818817,2.207454,-1.037598,0.732422,-1.312256,45.361328
42840,-9.500193,0.742203,2.284068,-0.854492,-1.556396,-2.014160,45.339844
42880,-9.490616,0.684742,2.260126,-1.739502,-3.448486,-2.380371,45.345703
42920,-9.562442,0.718261,2.202666,-3.082275,-2.288818,-1.403809,45.357422
42960,-9.552865,0.775721,2.221819,-3.692627,-1.586914,-0.488281,45.351562
43000,-9.528923,0.756568,2.264915,-4.302979,-2.349854,-0.732422,45.332031
43040,-9.543288,0.756568,2.279280,-4.211426,-2.929688,-1.159668,45.333984
43080,-9.538500,0.794875,2.274492,-3.540039,-2.288818,-0.549316,45.347656
43120,-9.533711,0.775721,2.308010,-3.295898,-1.831055,-0.305176,45.365234
43160,-9.528923,0.718261,2.327164,-3.784180,-1.495361,-0.213623,45.375000
43200,-9.495404,0.684742,2.360683,-3.906250,-1.831055,0.152588,45.371094
43240,-9.485827,0.694318,2.370260,-3.967285,-1.892090,0.457764,45.343750
43280,-9.490616,0.718261,2.355895,-4.089355,-2.471924,0.610352,45.347656
43320,-9.528923,0.746991,2.346318,-3.509521,-2.380371,0.579834,45.345703
43360,-9.528923,0.746991,2.375048,-2.655029,-2.075195,0.549316,45.367188
43400,-9.524135,0.718261,2.375048,-2.044678,-1.556396,0.213623,45.332031
43440,-9.509769,0.713472,2.394202,-1.495361,-1.037598,0.213623,45.363281
43480,-9.490616,0.699107,2.413355,-1.068115,-0.854492,0.457764,45.357422
43520,-9.500193,0.689530,2.403779,-0.823975,-0.549316,0.274658,45.355469
43560,-9.509769,0.723049,2.398990,-0.366211,-0.213623,0.244141,45.339844
43600,-9.485827,0.703895,2.418144,0.305176,-0.244141,0.152588,45.357422
43640,-9.481039,0.679953,2.427721,0.732422,-0.427246,-0.732422,45.355469
43680,-9.476251,0.679953,2.442086,1.251221,0.427246,-1.281738,45.353516
43720,-9.414001,0.632069,2.480393,1.495361,-0.885010,-2.014160,45.375000
43760,-9.428367,0.608127,2.466028,1.770020,-3.387451,-1.861572,45.351562
43800,-9.461885,0.636858,2.422932,1.464844,-5.401611,-1.861572,45.328125
43840,-9.504981,0.689530,2.375048,1.464844,-5.706787,-1.586914,45.355469
43880,-9.572019,0.708684,2.365471,1.281738,-5.035400,-0.976562,45.353516
43920,-9.538500,0.694318,2.418144,1.129150,-4.669189,-0.823975,45.345703
43960,-9.452309,0.694318,2.480393,0.762939,-4.852295,-0.640869,45.333984
44000,-9.504981,0.679953,2.504335,0.488281,-3.570557,0.213623,45.357422
44040,-9.528923,0.675165,2.537854,0.518799,-0.946045,0.671387,45.328125
44080,-9.471462,0.679953,2.576161,0.732422,-1.129150,0.396729,45.373047
44120,-9.466674,0.694318,2.590526,1.068115,-1.037598,0.549316,45.335938
44160,-9.466674,0.703895,2.595315,1.190186,-0.427246,0.701904,45.351562
44200,-9.476251,0.699107,2.604892,1.129150,0.427246,0.671387,45.351562
44240,-9.466674,0.656011,2.614468,1.190186,1.098633,0.854492,45.357422
44280,-9.461885,0.646434,2.600103,0.579834,1.403809,0.671387,45.367188
44320,-9.447520,0.708684,2.566584,0.244141,2.166748,1.037598,45.345703
44360,-9.437943,0.761356,2.557007,0.885010,2.746582,1.159668,45.337891
44400,-9.428367,0.785298,2.557007,1.586914,2.197266,1.373291,45.347656
44440,-9.461885,0.780510,2.499547,1.800537,2.197266,1.556396,45.339844
44480,-9.524135,0.814029,2.456451,2.319336,3.265381,1.770020,45.357422
44520,-9.533711,0.881066,2.446874,3.540039,3.479004,1.739502,45.361328
44560,-9.514558,0.919373,2.442086,5.584717,3.387451,0.915527,45.339844
44600,-9.485827,0.909797,2.456451,6.713867,2.624512,0.213623,45.341797
44640,-9.461885,0.876278,2.485181,7.843018,3.601074,0.061035,45.337891
44680,-9.447520,0.876278,2.466028,9.033203,4.028320,-0.213623,45.351562
44720,-9.423578,0.909797,2.422932,9.216309,2.868652,-0.183105,45.361328
44760,-9.418790,0.890643,2.389413,9.033203,1.831055,-0.366211,45.343750
44800,-9.452309,0.842759,2.308010,7.751465,0.946045,-0.823975,45.355469
44840,-9.442732,0.833182,2.317587,7.537842,-0.518799,-1.342773,45.349609
44880,-9.323022,0.790087,2.528277,9.979248,-9.216309,-3.265381,45.357422
44920,-9.332599,0.881066,2.489970,10.589600,-9.033203,-3.570557,45.355469
44960,-9.682152,0.933739,2.255338,4.791260,-2.685547,-1.007080,45.367188
45000,-9.653421,0.871489,2.389413,3.875732,0.946045,-0.030518,45.357422
45040,-9.452309,0.818817,2.513912,2.868652,-1.159668,-0.091553,45.357422
45080,-9.356541,0.799663,2.489970,2.563477,-2.593994,-0.885010,45.367188
45120,-9.500193,0.900220,2.432509,2.197266,-2.258301,-0.762939,45.347656
45160,-9.528923,0.914585,2.427721,1.770020,-1.770020,-0.183105,45.361328
45200,-9.504981,0.852336,2.470816,1.129150,-1.007080,-0.152588,45.375000
45240,-9.500193,0.842759,2.480393,0.274658,0.305176,0.122070,45.345703
45280,-9.461885,0.876278,2.485181,-0.457764,0.152588,0.244141,45.355469
45320,-9.485827,0.881066,2.494758,-0.701904,0.762939,0.213623,45.376953
45360,-9.500193,0.900220,2.480393,-1.007080,1.647949,0.091553,45.351562
45400,-9.461885,0.909797,2.485181,-1.739502,0.732422,-0.244141,45.365234
45440,-9.466674,0.938527,2.504335,-1.617432,0.457764,-0.518799,45.341797
45480,-9.481039,0.933739,2.494758,-2.227783,1.739502,-0.061035,45.351562
45520,-9.423578,0.866701,2.442086,-2.410889,1.617432,-0.183105,45.351562
45560,-9.481039,0.905008,2.360683,-2.838135,1.129150,-0.091553,45.333984
45600,-9.562442,0.957681,2.308010,-2.960205,2.563477,0.305176,45.359375
45640,-9.538500,0.943315,2.327164,-3.112793,3.753662,0.915527,45.349609
45680,-9.452309,0.837971,2.322376,-3.051758,3.417969,1.007080,45.355469
45720,-9.370906,0.890643,2.250550,-2.807617,3.417969,2.105713,45.365234
45760,-9.461885,0.948104,2.212242,-1.586914,2.410889,2.105713,45.365234
45800,-9.725247,1.000776,2.274492,-1.281738,3.692627,1.251221,45.349609
45840,-9.581595,1.015141,2.355895,-0.366211,4.852295,1.251221,45.355469
45880,-9.375694,0.885855,2.346318,0.701904,3.753662,0.610352,45.341797
45920,-9.466674,0.837971,2.303222,0.335693,2.593994,-0.030518,45.333984
45960,-9.528923,0.890643,2.317587,-0.732422,2.014160,0.579834,45.359375
46000,-9.481039,0.905008,2.331953,-0.671387,1.739502,0.701904,45.355469
46040,-9.533711,0.909797,2.322376,-0.396729,1.861572,0.701904,45.341797
46080,-9.586384,0.919373,2.322376,-0.030518,2.349854,0.762939,45.355469
46120,-9.538500,0.914585,2.188300,-0.274658,3.967285,1.251221,45.351562
46160,-9.418790,0.919373,2.126051,-2.655029,-0.427246,0.183105,45.351562
46200,-9.471462,0.957681,2.212242,-2.899170,-3.082275,-1.495361,45.345703
46240,-9.514558,1.048660,2.240973,-2.105713,-3.906250,-2.410889,45.332031
46280,-9.471462,1.130063,2.269703,-0.549316,-5.523682,-2.960205,45.357422
46320,-9.495404,1.139640,2.312799,0.488281,-5.523682,-2.655029,45.363281
46360,-9.481039,1.048660,2.298434,1.403809,-4.241943,-1.495361,45.380859
46400,-9.524135,0.890643,2.293645,1.373291,-2.532959,-0.915527,45.355469
46440,-9.552865,0.842759,2.351106,1.037598,-2.716064,-1.464844,45.343750
46480,-9.524135,0.871489,2.331953,1.037598,-2.349854,-1.617432,45.357422
46520,-9.548077,0.890643,2.322376,1.098633,-0.549316,-1.129150,45.353516
46560,-9.543288,0.871489,2.365471,0.549316,0.549316,-0.610352,45.371094
46600,-9.509769,0.847547,2.355895,-0.244141,1.922607,0.244141,45.353516
46640,-9.490616,0.837971,2.375048,-0.885010,1.922607,0.610352,45.349609
46680,-9.485827,0.866701,2.398990,-0.701904,1.129150,-0.061035,45.361328
46720,-9.457097,0.890643,2.384625,-0.305176,-0.640869,-0.244141,45.341797
46760,-9.481039,0.842759,2.355895,-0.854492,-0.732422,0.579834,45.343750
46800,-9.533711,0.804452,2.370260,-1.403809,0.732422,0.183105,45.353516
46840,-9.519346,0.861913,2.355895,-1.373291,0.885010,-0.091553,45.375000
46880,-9.485827,0.881066,2.351106,-1.342773,0.213623,0.366211,45.357422
46920,-9.481039,0.885855,2.355895,-0.762939,-0.061035,-0.183105,45.359375
46960,-9.481039,0.938527,2.341529,0.152588,-0.030518,-0.335693,45.355469
47000,-9.514558,0.900220,2.346318,0.152588,-0.091553,-0.183105,45.341797
47040,-9.495404,0.847547,2.365471,-0.213623,-1.007080,-0.213623,45.361328
47080,-9.495404,0.890643,2.355895,0.061035,-1.129150,-0.183105,45.357422
47120,-9.543288,0.909797,2.312799,0.061035,-0.335693,-0.091553,45.339844
47160,-9.509769,0.876278,2.317587,0.183105,0.030518,-0.122070,45.357422
47200,-9.485827,0.885855,2.346318,0.457764,-0.793457,-0.152588,45.359375
47240,-9.509769,0.900220,2.336741,0.579834,-0.305176,0.030518,45.343750
47280,-9.509769,0.866701,2.327164,0.335693,0.396729,0.061035,45.341797
47320,-9.509769,0.881066,2.341529,0.335693,0.427246,0.030518,45.378906
47360,-9.490616,0.905008,2.327164,0.579834,0.335693,0.030518,45.359375
47400,-9.481039,0.876278,2.341529,-0.091553,-0.701904,0.000000,45.382812
47440,-9.538500,0.828394,2.370260,-0.762939,0.366211,-0.213623,45.371094
47480,-9.538500,0.861913,2.346318,-0.885010,0.549316,-0.457764,45.367188
47520,-9.524135,0.905008,2.327164,-0.427246,1.129150,-0.305176,45.378906
47560,-9.500193,0.943315,2.317587,0.061035,1.800537,-0.335693,45.371094
47600,-9.481039,0.948104,2.303222,0.274658,1.007080,-0.488281,45.363281
47640,-9.528923,0.952892,2.288857,0.244141,1.403809,-0.335693,45.355469
47680,-9.519346,0.933739,2.274492,-0.091553,2.197266,0.030518,45.355469
47720,-9.514558,0.905008,2.260126,-0.579834,2.349854,0.396729,45.365234
47760,-9.519346,0.924162,2.260126,0.122070,2.166748,0.213623,45.355469
47800,-9.514558,0.914585,2.264915,0.366211,1.678467,0.244141,45.347656
47840,-9.533711,0.852336,2.260126,-0.610352,1.251221,0.091553,45.347656
47880,-9.533711,0.837971,2.240973,-1.129150,0.732422,0.122070,45.371094
47920,-9.514558,0.890643,2.202666,-1.068115,0.946045,0.091553,45.359375
47960,-9.524135,0.909797,2.197877,-1.495361,0.793457,0.152588,45.375000
48000,-9.524135,0.900220,2.226608,-1.739502,0.457764,-0.091553,45.371094
48040,-9.524135,0.900220,2.231396,-1.373291,-0.213623,-0.274658,45.357422
48080,-9.528923,0.881066,2.202666,-1.770020,-0.091553,-0.213623,45.378906
48120,-9.538500,0.895431,2.164358,-1.953125,0.701904,0.000000,45.355469
48160,-9.543288,0.919373,2.197877,-1.373291,0.732422,-0.183105,45.376953
48200,-9.533711,0.909797,2.207454,-0.976562,0.152588,-0.488281,45.351562
48240,-9.524135,0.881066,2.207454,-0.976562,-0.793457,-1.007080,45.365234
48280,-9.543288,0.905008,2.178724,-0.396729,-0.427246,-1.098633,45.345703
48320,-9.538500,0.924162,2.169147,0.122070,0.518799,-0.885010,45.355469
48360,-9.524135,0.895431,2.188300,-0.152588,0.061035,-0.335693,45.367188
48400,-9.509769,0.828394,2.202666,-0.823975,-0.274658,0.640869,45.349609
48440,-9.538500,0.775721,2.226608,-2.075195,-0.671387,0.854492,45.371094
48480,-9.552865,0.799663,2.236184,-2.593994,-0.152588,0.549316,45.376953
48520,-9.538500,0.847547,2.207454,-2.288818,-0.274658,-0.030518,45.367188
48560,-9.538500,0.909797,2.197877,-0.823975,-0.549316,-0.366211,45.365234
48600,-9.533711,0.933739,2.193089,0.183105,-0.335693,-0.823975,45.349609
48640,-9.528923,0.905008,2.197877,0.640869,-0.335693,-1.129150,45.369141
48680,-9.562442,0.876278,2.197877,0.274658,0.762939,-0.274658,45.367188
48720,-9.552865,0.828394,2.226608,-0.213623,0.915527,0.366211,45.376953
48760,-9.495404,0.818817,2.226608,-0.427246,-0.213623,-0.061035,45.371094
48800,-9.543288,0.837971,2.212242,-0.793457,0.061035,-0.061035,45.345703
48840,-9.552865,0.861913,2.250550,-0.885010,0.152588,0.335693,45.351562
48880,-9.485827,0.828394,2.240973,-0.976562,-1.190186,-0.122070,45.357422
48920,-9.514558,0.857124,2.212242,-0.610352,-1.281738,-0.213623,45.363281
48960,-9.548077,0.890643,2.217031,-0.488281,-1.281738,0.183105,45.359375
49000,-9.538500,0.871489,2.221819,-0.732422,-0.793457,0.396729,45.355469
49040,-9.524135,0.852336,2.226608,-0.701904,-0.885010,0.396729,45.361328
49080,-9.524135,0.866701,2.240973,-0.427246,-1.190186,0.335693,45.376953
49120,-9.524135,0.857124,2.255338,-0.579834,-1.403809,0.183105,45.357422
49160,-9.572019,0.866701,2.274492,-0.335693,-0.305176,-0.335693,45.357422
49200,-9.562442,0.885855,2.264915,0.396729,-0.244141,-0.732422,45.365234
49240,-9.504981,0.890643,2.269703,1.007080,-0.457764,-0.823975,45.361328
49280,-9.471462,0.857124,2.284068,0.366211,-1.770020,-0.823975,45.367188
49320,-9.524135,0.770933,2.269703,-1.281738,-1.464844,0.000000,45.357422
49360,-9.552865,0.770933,2.279280,-1.831055,-0.122070,0.244141,45.375000
49400,-9.543288,0.828394,2.288857,-2.227783,0.091553,0.518799,45.373047
49440,-9.500193,0.852336,2.317587,-2.136230,-0.549316,0.488281,45.380859
49480,-9.500193,0.857124,2.327164,-1.708984,-0.244141,0.183105,45.357422
49520,-9.490616,0.852336,2.322376,-1.861572,-0.579834,0.518799,45.376953
49560,-9.514558,0.818817,2.308010,-2.593994,-1.342773,0.457764,45.376953
49600,-9.548077,0.833182,2.331953,-2.502441,-0.213623,0.091553,45.341797
49640,-9.538500,0.857124,2.355895,-2.258301,0.091553,0.183105,45.380859
49680,-9.476251,0.881066,2.327164,-1.434326,0.244141,-0.244141,45.369141
49720,-9.504981,0.909797,2.336741,-0.518799,0.701904,-0.366211,45.355469
49760,-9.533711,0.919373,2.346318,0.701904,0.671387,-0.823975,45.363281
49800,-9.495404,0.885855,2.303222,1.098633,-0.030518,-0.732422,45.361328
49840,-9.533711,0.861913,2.279280,1.342773,1.586914,-0.549316,45.371094
49880,-9.562442,0.900220,2.284068,1.892090,3.479004,-0.488281,45.380859
49920,-9.490616,0.881066,2.317587,1.983643,2.197266,-0.488281,45.371094
49960,-9.476251,0.837971,2.288857,1.678467,0.549316,-0.366211,45.378906
50000,-9.514558,0.828394,2.288857,1.220703,0.946045,-0.213623,45.384766
50040,-9.557653,0.818817,2.274492,0.610352,1.556396,-0.152588,45.367188
50080,-9.533711,0.818817,2.250550,0.366211,1.495361,0.091553,45.378906
50120,-9.504981,0.847547,2.240973,-0.030518,0.915527,0.061035,45.388672
50160,-9.533711,0.861913,2.221819,-0.030518,0.701904,-0.091553,45.363281
50200,-9.524135,0.842759,2.193089,-0.396729,0.366211,-0.213623,45.365234
50240,-9.528923,0.828394,2.202666,-0.671387,0.244141,-0.213623,45.384766
50280,-9.552865,0.847547,2.197877,-0.823975,0.976562,-0.152588,45.376953
50320,-9.538500,0.861913,2.169147,-1.007080,0.762939,-0.305176,45.361328
50360,-9.514558,0.861913,2.169147,-0.396729,0.183105,-0.579834,45.376953
50400,-9.533711,0.866701,2.197877,-0.122070,-0.122070,-0.457764,45.384766
50440,-9.552865,0.857124,2.197877,-0.152588,-0.183105,-0.457764,45.371094
50480,-9.548077,0.852336,2.173935,0.000000,0.518799,-0.518799,45.376953
50520,-9.538500,0.861913,2.197877,0.091553,0.061035,-0.366211,45.375000
50560,-9.500193,0.852336,2.212242,0.488281,-0.854492,-0.396729,45.355469
50600,-9.524135,0.847547,2.212242,0.213623,-1.312256,0.152588,45.380859
50640,-9.562442,0.818817,2.217031,-0.213623,0.000000,0.549316,45.380859
50680,-9.567230,0.780510,2.226608,-1.068115,0.152588,0.427246,45.373047
50720,-9.538500,0.823605,2.202666,-0.946045,-0.244141,0.274658,45.375000
50760,-9.514558,0.900220,2.193089,-0.122070,-0.946045,-0.091553,45.390625
50800,-9.552865,0.905008,2.197877,0.366211,-0.366211,-0.244141,45.373047
50840,-9.543288,0.876278,2.231396,0.915527,-0.366211,-0.335693,45.367188
50880,-9.509769,0.842759,2.231396,0.518799,-0.946045,0.000000,45.376953
50920,-9.514558,0.818817,2.217031,0.183105,-1.007080,0.091553,45.341797
50960,-9.524135,0.833182,2.212242,-0.152588,-1.708984,0.213623,45.371094
51000,-9.576807,0.814029,2.202666,-0.549316,-0.946045,0.061035,45.382812
51040,-9.557653,0.818817,2.236184,-0.885010,-0.213623,0.000000,45.396484
51080,-9.528923,0.833182,2.264915,-0.762939,-0.030518,-0.122070,45.378906
51120,-9.519346,0.866701,2.245761,-0.244141,0.213623,-0.213623,45.388672
51160,-9.543288,0.876278,2.236184,0.274658,0.030518,-0.854492,45.382812
51200,-9.524135,0.876278,2.240973,1.068115,-0.152588,-1.312256,45.380859
51240,-9.543288,0.852336,2.255338,1.556396,0.305176,-1.403809,45.386719
51280,-9.485827,0.814029,2.274492,2.319336,0.244141,-2.197266,45.380859
51320,-9.447520,0.814029,2.288857,3.173828,-1.312256,-2.593994,45.371094
51360,-9.466674,0.804452,2.303222,3.631592,-2.166748,-2.960205,45.371094
51400,-9.500193,0.775721,2.279280,3.723145,-3.692627,-3.021240,45.375000
51440,-9.519346,0.761356,2.245761,3.936768,-4.821777,-2.838135,45.365234
51480,-9.533711,0.780510,2.236184,3.814697,-5.310059,-2.593994,45.365234
51520,-9.567230,0.799663,2.250550,3.692627,-5.737305,-2.288818,45.384766
51560,-9.581595,0.780510,2.255338,3.021240,-5.249023,-2.044678,45.347656
51600,-9.552865,0.775721,2.279280,2.258301,-3.479004,-1.281738,45.382812
51640,-9.528923,0.770933,2.331953,1.617432,-2.319336,-0.701904,45.380859
51680,-9.519346,0.746991,2.384625,0.762939,-1.800537,-0.152588,45.398438
51720,-9.519346,0.732626,2.389413,-0.152588,-0.793457,0.183105,45.388672
51760,-9.509769,0.751779,2.408567,-0.122070,-0.488281,0.335693,45.365234
51800,-9.509769,0.751779,2.384625,-0.457764,0.061035,0.579834,45.406250
51840,-9.504981,0.761356,2.413355,-0.946045,0.915527,0.732422,45.355469
51880,-9.514558,0.785298,2.437297,-1.098633,1.831055,0.701904,45.384766
51920,-9.490616,0.770933,2.442086,-1.281738,1.922607,0.823975,45.400391
51960,-9.457097,0.785298,2.442086,-1.403809,1.342773,0.671387,45.375000
52000,-9.481039,0.799663,2.442086,-1.159668,1.617432,0.549316,45.390625
52040,-9.504981,0.804452,2.413355,-0.915527,2.532959,0.518799,45.386719
52080,-9.476251,0.804452,2.403779,-0.762939,1.983643,0.305176,45.375000
52120,-9.471462,0.794875,2.403779,-0.976562,0.732422,0.152588,45.384766
52160,-9.519346,0.799663,2.398990,-0.915527,1.647949,0.091553,45.398438
52200,-9.509769,0.833182,2.379837,-0.640869,2.471924,0.061035,45.388672
52240,-9.500193,0.833182,2.355895,-0.549316,2.899170,0.732422,45.408203
52280,-9.495404,0.818817,2.355895,-0.427246,2.563477,0.366211,45.380859
52320,-9.471462,0.833182,2.341529,-0.518799,1.190186,0.061035,45.376953
52360,-9.509769,0.857124,2.308010,-0.671387,0.823975,0.335693,45.388672
52400,-9.538500,0.861913,2.293645,-0.854492,1.739502,0.701904,45.390625
52440,-9.519346,0.842759,2.284068,-0.915527,1.556396,0.762939,45.365234
52480,-9.519346,0.833182,2.308010,-0.885010,1.220703,0.915527,45.365234
52520,-9.514558,0.814029,2.303222,-1.434326,0.488281,1.251221,45.376953
52560,-9.528923,0.823605,2.284068,-1.373291,1.190186,1.617432,45.394531
52600,-9.548077,0.857124,2.250550,-1.556396,1.556396,1.770020,45.371094
52640,-9.548077,0.847547,2.240973,-2.014160,2.044678,1.800537,45.388672
52680,-9.538500,0.842759,2.250550,-1.892090,2.197266,1.617432,45.386719
52720,-9.533711,0.861913,2.226608,-1.770020,2.319336,1.525879,45.390625
52760,-9.528923,0.857124,2.212242,-1.708984,1.983643,0.854492,45.376953
52800,-9.543288,0.861913,2.207454,-1.342773,1.922607,0.183105,45.392578
52840,-9.533711,0.876278,2.164358,-0.885010,1.678467,0.274658,45.376953
52880,-9.519346,0.866701,2.130840,-0.762939,0.915527,0.152588,45.394531
52920,-9.528923,0.866701,2.130840,-1.342773,0.091553,-0.213623,45.373047
52960,-9.562442,0.900220,2.145205,-1.495361,1.678467,-0.244141,45.375000
53000,-9.557653,0.919373,2.164358,-0.915527,3.082275,-0.213623,45.363281
53040,-9.504981,0.919373,2.178724,-0.610352,2.136230,-0.091553,45.386719
53080,-9.466674,0.857124,2.202666,-0.366211,0.061035,0.000000,45.388672
53120,-9.538500,0.871489,2.169147,-0.091553,-0.091553,-0.366211,45.386719
53160,-9.605537,0.861913,2.140416,-0.610352,0.244141,-0.183105,45.375000
53200,-9.576807,0.876278,2.121263,-0.701904,1.007080,-0.244141,45.375000
53240,-9.528923,0.928950,2.121263,-0.335693,-0.061035,-0.488281,45.396484
53280,-9.548077,0.919373,2.140416,0.183105,-1.098633,-0.579834,45.408203
53320,-9.562442,0.861913,2.149993,0.488281,-0.579834,-0.854492,45.367188
53360,-9.586384,0.852336,2.140416,1.159668,-0.274658,-0.885010,45.380859
53400,-9.557653,0.871489,2.126051,2.349854,-0.061035,-0.946045,45.367188
53440,-9.552865,0.837971,2.140416,2.899170,-0.061035,-1.098633,45.371094
53480,-9.543288,0.823605,2.164358,2.807617,-0.701904,-1.098633,45.402344
53520,-9.528923,0.799663,2.169147,2.655029,-1.495361,-1.220703,45.380859
53560,-9.548077,0.823605,2.140416,2.349854,-0.762939,-0.671387,45.382812
53600,-9.543288,0.828394,2.149993,1.892090,-0.823975,-0.396729,45.376953
53640,-9.538500,0.833182,2.188300,1.983643,-1.281738,-0.518799,45.402344
53680,-9.548077,0.833182,2.183512,2.197266,-1.983643,-0.671387,45.386719
53720,-9.533711,0.814029,2.164358,2.014160,-1.831055,-0.885010,45.412109
53760,-9.552865,0.790087,2.164358,2.563477,-1.922607,-1.525879,45.365234
53800,-9.562442,0.823605,2.154782,3.234863,-1.983643,-1.770020,45.380859
53840,-9.548077,0.818817,2.145205,3.845215,-1.495361,-1.892090,45.404297
53880,-9.528923,0.790087,2.164358,4.058838,-1.739502,-1.953125,45.380859
53920,-9.548077,0.761356,2.164358,3.723145,-2.197266,-1.525879,45.361328
53960,-9.572019,0.751779,2.169147,3.082275,-2.044678,-1.312256,45.384766
54000,-9.572019,0.770933,2.169147,2.502441,-1.098633,-1.068115,45.378906
54040,-9.581595,0.790087,2.183512,2.197266,-0.183105,-0.366211,45.390625
54080,-9.533711,0.847547,2.193089,2.197266,-0.732422,-0.640869,45.406250
54120,-9.509769,0.866701,2.217031,2.166748,-1.220703,-0.396729,45.378906
54160,-9.538500,0.804452,2.236184,1.007080,-1.312256,0.000000,45.371094
54200,-9.524135,0.794875,2.250550,0.244141,-1.373291,0.030518,45.390625
54240,-9.524135,0.818817,2.250550,-0.122070,-1.251221,0.061035,45.386719
54280,-9.557653,0.809240,2.245761,-0.823975,-0.366211,0.366211,45.386719
54320,-9.538500,0.799663,2.274492,-1.739502,-0.396729,0.427246,45.369141
54360,-9.524135,0.809240,2.269703,-2.227783,-0.610352,0.335693,45.373047
54400,-9.490616,0.847547,2.260126,-2.014160,-0.732422,0.213623,45.410156
54440,-9.538500,0.857124,2.255338,-2.502441,-0.152588,0.549316,45.378906
54480,-9.548077,0.842759,2.274492,-2.532959,0.244141,0.396729,45.380859
54520,-9.495404,0.823605,2.288857,-2.593994,-0.854492,-0.061035,45.382812
54560,-9.504981,0.833182,2.284068,-2.197266,-0.976562,-0.183105,45.390625
54600,-9.538500,0.847547,2.288857,-2.197266,-1.007080,-0.152588,45.384766
54640,-9.543288,0.852336,2.279280,-2.044678,-0.701904,-0.122070,45.384766
54680,-9.552865,0.857124,2.260126,-1.678467,0.335693,0.000000,45.369141
54720,-9.533711,0.866701,2.284068,-1.190186,0.579834,-0.152588,45.376953
54760,-9.500193,0.857124,2.322376,-0.671387,0.213623,-0.274658,45.380859
54800,-9.533711,0.823605,2.312799,-0.701904,0.396729,-0.244141,45.394531
54840,-9.528923,0.823605,2.308010,-0.854492,0.915527,0.030518,45.345703
54880,-9.509769,0.823605,2.312799,-0.885010,0.823975,0.274658,45.404297
54920,-9.519346,0.833182,2.288857,-1.098633,1.068115,0.305176,45.365234
54960,-9.519346,0.842759,2.303222,-0.946045,1.098633,0.274658,45.386719
55000,-9.524135,0.818817,2.303222,-1.068115,1.159668,0.274658,45.384766
55040,-9.500193,0.814029,2.279280,-0.793457,0.854492,-0.030518,45.390625
55080,-9.504981,0.847547,2.279280,-0.549316,0.000000,-0.091553,45.394531
55120,-9.533711,0.837971,2.269703,-0.701904,0.274658,0.061035,45.388672
55160,-9.548077,0.823605,2.245761,-1.129150,1.159668,0.091553,45.406250
55200,-9.543288,0.842759,2.236184,-0.854492,1.617432,0.183105,45.376953
55240,-9.528923,0.871489,2.231396,-0.732422,1.403809,0.183105,45.402344
55280,-9.524135,0.857124,2.240973,-0.549316,1.159668,0.152588,45.388672
55320,-9.538500,0.837971,2.221819,-0.396729,1.159668,0.061035,45.404297
55360,-9.533711,0.842759,2.207454,-0.396729,1.190186,0.061035,45.400391
55400,-9.509769,0.842759,2.202666,-0.091553,0.488281,-0.091553,45.390625
55440,-9.528923,0.857124,2.202666,0.061035,0.030518,-0.091553,45.386719
55480,-9.533711,0.847547,2.193089,0.122070,-0.213623,-0.183105,45.382812
55520,-9.543288,0.847547,2.178724,0.122070,0.183105,-0.091553,45.394531
55560,-9.557653,0.837971,2.178724,-0.213623,0.366211,-0.030518,45.371094
55600,-9.538500,0.833182,2.183512,-0.244141,0.030518,-0.091553,45.367188
55640,-9.538500,0.828394,2.193089,-0.335693,-0.213623,-0.244141,45.390625
55680,-9.562442,0.837971,2.178724,-0.244141,0.244141,-0.091553,45.386719
55720,-9.548077,0.837971,2.159570,-0.305176,0.518799,-0.030518,45.367188
55760,-9.557653,0.837971,2.183512,-0.396729,0.457764,-0.030518,45.386719
55800,-9.519346,0.833182,2.217031,-0.427246,-0.152588,-0.152588,45.384766
55840,-9.500193,0.818817,2.231396,0.030518,-1.098633,-0.366211,45.376953
55880,-9.548077,0.823605,2.207454,-0.305176,-1.007080,-0.305176,45.390625
55920,-9.543288,0.814029,2.197877,-0.793457,-0.793457,-0.183105,45.380859
55960,-9.543288,0.809240,2.202666,-0.976562,-0.946045,-0.213623,45.396484
56000,-9.552865,0.837971,2.197877,-0.854492,-0.549316,-0.091553,45.373047
56040,-9.533711,0.852336,2.212242,-0.396729,-0.946045,-0.152588,45.396484
56080,-9.538500,0.818817,2.207454,-0.335693,-0.518799,-0.244141,45.369141
56120,-9.528923,0.818817,2.240973,-0.091553,-1.098633,-0.396729,45.376953
56160,-9.514558,0.814029,2.255338,0.000000,-1.739502,-0.610352,45.390625
56200,-9.533711,0.799663,2.245761,-0.183105,-1.251221,-0.457764,45.388672
56240,-9.538500,0.818817,2.240973,0.061035,-0.976562,-0.366211,45.376953
56280,-9.528923,0.823605,2.255338,0.366211,-1.525879,-0.335693,45.376953
56320,-9.538500,0.809240,2.245761,0.396729,-0.640869,-0.183105,45.376953
56360,-9.552865,0.823605,2.255338,0.427246,-0.244141,-0.366211,45.400391
56400,-9.519346,0.809240,2.264915,0.457764,-0.762939,-0.366211,45.400391
56440,-9.528923,0.775721,2.260126,0.030518,-0.244141,-0.152588,45.400391
56480,-9.538500,0.794875,2.269703,-0.305176,0.030518,-0.091553,45.384766
56520,-9.519346,0.804452,2.269703,-0.244141,0.183105,0.152588,45.384766
56560,-9.528923,0.799663,2.279280,-0.579834,-0.244141,0.183105,45.386719
56600,-9.519346,0.809240,2.274492,-1.037598,-0.366211,0.274658,45.394531
56640,-9.533711,0.814029,2.264915,-0.671387,0.305176,0.305176,45.388672
56680,-9.509769,0.852336,2.288857,-0.061035,-0.396729,0.152588,45.375000
56720,-9.514558,0.833182,2.284068,0.244141,-0.701904,0.030518,45.375000
56760,-9.538500,0.809240,2.279280,0.335693,-0.305176,0.000000,45.402344
56800,-9.519346,0.790087,2.274492,0.030518,-0.396729,-0.122070,45.392578
56840,-9.519346,0.775721,2.284068,-0.335693,-0.885010,-0.457764,45.386719
56880,-9.548077,0.761356,2.288857,-0.823975,-0.732422,-0.640869,45.388672
56920,-9.524135,0.766145,2.293645,-0.518799,-0.823975,-0.854492,45.382812
56960,-9.495404,0.794875,2.308010,-0.244141,-1.251221,-1.129150,45.384766
57000,-9.524135,0.852336,2.336741,0.488281,-0.274658,-1.159668,45.384766
57040,-9.519346,0.900220,2.389413,2.014160,-0.091553,-1.129150,45.386719
57080,-9.461885,0.871489,2.427721,2.136230,-1.800537,-0.915527,45.376953
57120,-9.404425,0.828394,2.418144,0.854492,-2.685547,0.213623,45.414062
57160,-9.428367,0.794875,2.384625,0.671387,-3.509521,0.823975,45.367188
57200,-9.528923,0.818817,2.370260,0.488281,-2.868652,1.068115,45.380859
57240,-9.533711,0.794875,2.384625,0.122070,-2.227783,1.159668,45.384766
57280,-9.504981,0.742203,2.422932,-0.427246,-1.831055,1.312256,45.376953
57320,-9.481039,0.770933,2.403779,-1.403809,-1.190186,1.892090,45.392578
57360,-9.519346,0.847547,2.384625,-1.647949,-0.732422,2.258301,45.406250
57400,-9.528923,0.852336,2.422932,-1.556396,0.000000,2.105713,45.402344
57440,-9.524135,0.809240,2.446874,-1.892090,-0.091553,1.251221,45.380859
57480,-9.481039,0.818817,2.446874,-1.220703,0.366211,1.098633,45.416016
57520,-9.471462,0.857124,2.422932,-0.732422,0.366211,0.335693,45.390625
57560,-9.485827,0.876278,2.442086,-0.732422,0.793457,-0.091553,45.394531
57600,-9.519346,0.857124,2.437297,-0.701904,1.190186,-0.213623,45.406250
57640,-9.490616,0.905008,2.403779,0.152588,1.525879,-0.549316,45.390625
57680,-9.500193,0.909797,2.384625,1.007080,1.678467,-0.885010,45.392578
57720,-9.519346,0.900220,2.341529,1.800537,2.624512,-1.190186,45.386719
57760,-9.495404,0.933739,2.312799,2.441406,2.471924,-1.586914,45.384766
57800,-9.509769,0.928950,2.317587,2.807617,1.220703,-1.098633,45.380859
57840,-9.538500,0.842759,2.288857,2.197266,1.678467,0.122070,45.417969
57880,-9.509769,0.809240,2.279280,0.976562,2.227783,0.091553,45.386719
57920,-9.538500,0.837971,2.236184,0.366211,2.685547,0.244141,45.390625
57960,-9.524135,0.852336,2.245761,0.061035,3.356934,0.762939,45.376953
58000,-9.495404,0.919373,2.264915,0.610352,2.624512,0.396729,45.384766
58040,-9.514558,0.919373,2.236184,0.732422,2.044678,0.335693,45.396484
58080,-9.514558,0.924162,2.207454,0.976562,1.281738,0.366211,45.371094
58120,-9.481039,0.938527,2.212242,0.793457,0.732422,0.305176,45.400391
58160,-9.519346,0.900220,2.236184,0.274658,0.427246,0.244141,45.388672
58200,-9.538500,0.871489,2.236184,-0.427246,0.000000,0.152588,45.406250
58240,-9.533711,0.924162,2.202666,-0.183105,-0.518799,-0.061035,45.400391
58280,-9.548077,0.976834,2.202666,0.915527,1.342773,-0.061035,45.400391
58320,-9.610326,0.972046,2.293645,1.434326,2.807617,1.007080,45.378906
58360,-9.524135,0.919373,2.212242,1.708984,1.373291,0.976562,45.357422
58400,-9.504981,0.909797,2.126051,0.366211,0.213623,0.701904,45.375000
58440,-9.471462,0.924162,2.169147,0.335693,-0.488281,-0.274658,45.373047
58480,-9.414001,0.952892,2.140416,-0.213623,-4.058838,-0.885010,45.375000
58520,-9.485827,1.010353,2.130840,-0.183105,-5.462646,-0.946045,45.367188
58560,-9.567230,1.024718,2.207454,0.274658,-4.638672,-0.579834,45.394531
58600,-9.538500,0.962469,2.217031,0.183105,-2.716064,-0.427246,45.394531
58640,-9.572019,0.900220,2.197877,-0.274658,-1.251221,0.000000,45.388672
58680,-9.548077,0.900220,2.312799,0.732422,-0.976562,-0.610352,45.396484
58720,-9.500193,0.967257,2.303222,1.190186,-1.647949,-1.007080,45.396484
58760,-9.495404,0.986411,2.250550,1.434326,-1.708984,-1.373291,45.386719
58800,-9.552865,0.948104,2.279280,1.586914,-0.579834,-1.312256,45.382812
58840,-9.528923,0.909797,2.327164,1.220703,-0.915527,-1.434326,45.392578
58880,-9.490616,0.900220,2.303222,1.068115,-0.518799,-1.434326,45.396484
58920,-9.514558,0.928950,2.274492,2.014160,0.061035,-1.983643,45.384766
58960,-9.524135,0.952892,2.269703,1.983643,-0.549316,-1.739502,45.386719
59000,-9.495404,0.866701,2.303222,0.915527,-1.434326,-0.823975,45.419922
59040,-9.519346,0.833182,2.317587,-0.213623,-0.396729,0.061035,45.396484
59080,-9.552865,0.833182,2.341529,-0.946045,0.335693,0.274658,45.400391
59120,-9.504981,0.861913,2.312799,-1.373291,0.183105,0.549316,45.375000
59160,-9.490616,0.895431,2.327164,-1.525879,0.518799,0.885010,45.410156
59200,-9.519346,0.919373,2.331953,-1.342773,1.373291,0.946045,45.386719
59240,-9.495404,0.909797,2.317587,-1.586914,0.885010,1.464844,45.373047
59280,-9.481039,0.871489,2.317587,-2.136230,0.244141,1.739502,45.394531
59320,-9.533711,0.895431,2.341529,-1.983643,0.640869,1.373291,45.412109
59360,-9.552865,0.952892,2.346318,-1.464844,1.739502,0.671387,45.386719
59400,-9.490616,0.991199,2.327164,0.000000,1.770020,-0.213623,45.390625
59440,-9.524135,0.981623,2.327164,1.281738,2.288818,-0.366211,45.384766
59480,-9.524135,0.957681,2.331953,1.739502,2.349854,-0.793457,45.388672
59520,-9.471462,0.890643,2.331953,0.671387,1.037598,-0.976562,45.410156
59560,-9.476251,0.809240,2.322376,-0.915527,0.762939,-0.213623,45.375000
59600,-9.500193,0.847547,2.298434,-1.495361,1.007080,0.030518,45.390625
59640,-9.533711,0.933739,2.284068,-1.525879,0.640869,-0.061035,45.386719
59680,-9.509769,0.976834,2.264915,-0.885010,0.122070,-0.122070,45.384766
59720,-9.504981,0.967257,2.240973,-0.274658,-0.305176,-0.457764,45.396484
59760,-9.519346,0.928950,2.217031,-0.701904,-0.274658,-0.488281,45.398438
59800,-9.533711,0.909797,2.240973,-0.579834,-0.061035,-0.549316,45.386719
59840,-9.509769,0.938527,2.245761,-0.061035,-0.610352,-0.457764,45.378906
59880,-9.519346,0.933739,2.212242,-0.488281,-0.457764,-0.274658,45.412109
59920,-9.538500,0.895431,2.226608,-0.701904,0.183105,-0.152588,45.386719
59960,-9.548077,0.876278,2.255338,-0.823975,0.671387,-0.244141,45.386719
60000,-9.524135,0.871489,2.226608,-1.373291,0.396729,-0.274658,45.375000
60040,-9.504981,0.842759,2.240973,-2.197266,-1.037598,-0.335693,45.406250
60080,-9.514558,0.837971,2.217031,-2.685547,-0.457764,0.061035,45.394531
60120,-9.576807,0.857124,2.212242,-3.295898,0.671387,0.305176,45.378906
60160,-9.538500,0.905008,2.231396,-2.624512,0.793457,0.122070,45.398438
60200,-9.500193,0.976834,2.212242,-0.549316,0.152588,-0.427246,45.388672
60240,-9.519346,0.991199,2.197877,0.732422,0.244141,-0.030518,45.400391
60280,-9.533711,0.914585,2.202666,1.007080,0.366211,-0.213623,45.400391
60320,-9.567230,0.861913,2.226608,1.220703,1.129150,-0.671387,45.390625
60360,-9.576807,0.823605,2.260126,0.976562,1.953125,-0.701904,45.410156
60400,-9.509769,0.885855,2.226608,1.770020,1.556396,-0.854492,45.400391
60440,-9.500193,0.924162,2.183512,2.014160,0.762939,-0.885010,45.380859
60480,-9.504981,0.866701,2.197877,1.007080,-0.579834,-0.457764,45.400391
60520,-9.533711,0.804452,2.197877,-0.061035,-0.854492,0.000000,45.404297
60560,-9.567230,0.818817,2.183512,-0.976562,-0.244141,-0.122070,45.400391
60600,-9.548077,0.852336,2.226608,-0.793457,-0.396729,0.000000,45.398438
60640,-9.524135,0.885855,2.183512,-0.122070,-0.244141,-0.030518,45.396484
60680,-9.504981,0.895431,2.159570,-0.030518,-0.885010,-0.396729,45.398438
60720,-9.562442,0.900220,2.202666,-0.183105,-0.915527,-0.427246,45.390625
60760,-9.600749,0.871489,2.193089,-0.488281,0.427246,-0.030518,45.394531
60800,-9.538500,0.871489,2.178724,-0.640869,0.274658,-0.030518,45.396484
60840,-9.509769,0.881066,2.188300,-0.488281,-0.152588,0.000000,45.390625
60880,-9.548077,0.871489,2.197877,-0.457764,0.122070,-0.061035,45.410156
60920,-9.519346,0.890643,2.212242,-0.213623,-0.213623,0.000000,45.400391
60960,-9.533711,0.881066,2.221819,-0.396729,-0.213623,0.366211,45.416016
61000,-9.562442,0.852336,2.217031,-1.007080,0.427246,0.488281,45.394531
61040,-9.533711,0.866701,2.212242,-1.251221,0.457764,0.396729,45.406250
61080,-9.514558,0.905008,2.226608,-0.762939,0.274658,0.335693,45.386719
61120,-9.504981,0.905008,2.255338,-0.579834,-0.518799,0.122070,45.394531
61160,-9.524135,0.885855,2.260126,-0.823975,-1.068115,-0.244141,45.423828
61200,-9.528923,0.871489,2.245761,-0.793457,-0.701904,-0.091553,45.382812
61240,-9.528923,0.876278,2.250550,-0.732422,-0.885010,-0.122070,45.396484
61280,-9.504981,0.881066,2.250550,-0.915527,-1.831055,-0.274658,45.386719
61320,-9.514558,0.890643,2.231396,-1.159668,-1.403809,-0.152588,45.386719
61360,-9.533711,0.895431,2.250550,-0.793457,-1.251221,-0.244141,45.410156
61400,-9.528923,0.909797,2.264915,-0.549316,-1.647949,-0.122070,45.390625
61440,-9.528923,0.905008,2.236184,-0.549316,-0.885010,-0.030518,45.386719
61480,-9.543288,0.914585,2.250550,-0.396729,-0.457764,-0.061035,45.416016
61520,-9.538500,0.900220,2.274492,-0.244141,0.000000,0.000000,45.394531
61560,-9.504981,0.890643,2.274492,-0.091553,0.000000,-0.183105,45.400391
61600,-9.519346,0.890643,2.293645,-0.091553,-0.152588,-0.366211,45.406250
61640,-9.519346,0.928950,2.293645,0.640869,0.122070,-0.396729,45.410156
61680,-9.504981,0.919373,2.298434,1.037598,-0.671387,-0.610352,45.427734
61720,-9.504981,0.905008,2.274492,1.037598,-0.823975,-0.457764,45.419922
61760,-9.533711,0.905008,2.269703,1.007080,-0.213623,-0.213623,45.412109
61800,-9.548077,0.871489,2.284068,0.640869,0.488281,-0.152588,45.406250
61840,-9.514558,0.847547,2.298434,0.396729,0.274658,-0.274658,45.406250
61880,-9.495404,0.881066,2.288857,0.488281,-0.061035,-0.274658,45.404297
61920,-9.528923,0.885855,2.293645,0.152588,0.152588,-0.213623,45.425781
61960,-9.524135,0.866701,2.279280,-0.091553,0.579834,-0.244141,45.386719
62000,-9.519346,0.876278,2.284068,0.122070,0.610352,-0.488281,45.414062
62040,-9.524135,0.881066,2.288857,0.274658,0.915527,-0.366211,45.417969
62080,-9.519346,0.866701,2.274492,-0.305176,0.701904,-0.305176,45.414062
62120,-9.509769,0.857124,2.284068,-0.183105,0.366211,-0.335693,45.416016
62160,-9.509769,0.890643,2.269703,-0.030518,0.030518,-0.213623,45.414062
62200,-9.519346,0.861913,2.250550,-0.579834,0.549316,-0.122070,45.402344
62240,-9.538500,0.847547,2.279280,-0.488281,0.488281,-0.213623,45.419922
62280,-9.533711,0.876278,2.250550,-0.427246,0.732422,-0.183105,45.390625
62320,-9.524135,0.900220,2.250550,-0.366211,0.549316,-0.152588,45.423828
62360,-9.514558,0.857124,2.245761,-0.305176,0.213623,-0.274658,45.410156
62400,-9.519346,0.871489,2.226608,-0.152588,0.152588,-0.274658,45.406250
62440,-9.524135,0.890643,2.245761,-0.091553,0.244141,-0.122070,45.419922
62480,-9.528923,0.857124,2.236184,-0.030518,0.274658,-0.244141,45.404297
62520,-9.533711,0.871489,2.226608,0.061035,0.000000,-0.213623,45.394531
62560,-9.533711,0.890643,2.221819,0.183105,0.000000,-0.030518,45.402344
62600,-9.528923,0.866701,2.202666,0.152588,0.091553,0.061035,45.406250
62640,-9.552865,0.885855,2.193089,0.244141,0.701904,0.122070,45.410156
62680,-9.543288,0.861913,2.231396,-0.061035,0.946045,0.213623,45.402344
62720,-9.514558,0.852336,2.212242,-0.183105,0.396729,0.183105,45.398438
62760,-9.543288,0.876278,2.207454,-0.305176,0.488281,0.213623,45.396484
62800,-9.533711,0.857124,2.207454,-0.610352,0.244141,0.305176,45.414062
62840,-9.533711,0.828394,2.193089,-1.129150,0.244141,0.122070,45.384766
62880,-9.524135,0.900220,2.207454,-0.335693,0.061035,-0.091553,45.400391
62920,-9.500193,0.885855,2.207454,-0.366211,-0.793457,-0.213623,45.390625
62960,-9.524135,0.885855,2.202666,0.030518,-0.885010,-0.793457,45.404297
63000,-9.528923,0.909797,2.188300,0.518799,-1.495361,-0.854492,45.425781
63040,-9.548077,0.905008,2.202666,1.037598,-1.251221,-1.342773,45.417969
63080,-9.543288,0.909797,2.212242,1.617432,-1.556396,-1.800537,45.410156
63120,-9.552865,0.866701,2.207454,1.770020,-0.640869,-1.403809,45.425781
63160,-9.576807,0.871489,2.188300,2.136230,1.220703,-1.220703,45.408203
63200,-9.490616,0.881066,2.221819,2.075195,-0.183105,-1.373291,45.404297
63240,-9.485827,0.828394,2.236184,1.190186,-1.800537,-0.854492,45.410156
63280,-9.552865,0.818817,2.231396,0.793457,-1.403809,-0.732422,45.423828
63320,-9.586384,0.857124,2.221819,0.762939,0.335693,-0.427246,45.412109
63360,-9.548077,0.847547,2.240973,0.701904,0.579834,0.091553,45.404297
63400,-9.490616,0.842759,2.221819,0.244141,-0.396729,-0.030518,45.419922
63440,-9.519346,0.876278,2.226608,-0.061035,-0.335693,-0.061035,45.425781
63480,-9.533711,0.885855,2.264915,-0.030518,-0.366211,-0.030518,45.404297
63520,-9.490616,0.876278,2.284068,-0.183105,-0.854492,0.244141,45.396484
63560,-9.504981,0.857124,2.288857,-1.037598,-1.220703,0.396729,45.410156
63600,-9.519346,0.833182,2.279280,-1.403809,-1.281738,0.366211,45.394531
63640,-9.500193,0.881066,2.288857,-0.854492,-1.678467,0.183105,45.416016
63680,-9.533711,0.895431,2.303222,-1.159668,-1.373291,0.305176,45.429688
63720,-9.528923,0.837971,2.308010,-1.586914,-0.976562,0.427246,45.414062
63760,-9.500193,0.857124,2.308010,-1.068115,-0.457764,-0.122070,45.419922
63800,-9.485827,0.895431,2.331953,-0.854492,-1.312256,-0.030518,45.414062
63840,-9.533711,0.885855,2.317587,-0.671387,-0.823975,-0.030518,45.417969
63880,-9.528923,0.928950,2.303222,0.183105,-0.213623,-0.518799,45.404297
63920,-9.509769,0.905008,2.331953,0.274658,-0.457764,-0.305176,45.429688
63960,-9.500193,0.823605,2.341529,-0.305176,-0.488281,-0.427246,45.425781
64000,-9.524135,0.833182,2.312799,-0.854492,0.274658,-0.030518,45.423828
64040,-9.567230,0.876278,2.298434,-0.305176,2.136230,-0.061035,45.425781
64080,-9.533711,0.909797,2.298434,0.396729,2.624512,-0.030518,45.392578
64120,-9.490616,0.933739,2.288857,0.488281,2.319336,0.061035,45.408203
64160,-9.471462,0.876278,2.293645,0.122070,0.122070,1.007080,45.402344
64200,-9.504981,0.742203,2.293645,-1.586914,0.030518,1.525879,45.412109
64240,-9.552865,0.756568,2.269703,-2.563477,1.464844,0.823975,45.400391
64280,-9.562442,0.852336,2.236184,-2.899170,2.105713,0.152588,45.410156
64320,-9.471462,0.909797,2.221819,-2.624512,0.061035,-0.152588,45.384766
64360,-9.500193,0.885855,2.240973,-1.434326,0.274658,-0.946045,45.402344
64400,-9.567230,0.861913,2.331953,-0.122070,1.922607,-1.220703,45.390625
64440,-9.514558,0.876278,2.327164,0.671387,0.152588,-0.946045,45.400391
64480,-9.504981,0.890643,2.279280,1.953125,-2.044678,-1.708984,45.398438
64520,-9.562442,0.928950,2.298434,2.593994,-2.502441,-1.403809,45.404297
64560,-9.471462,0.770933,2.446874,3.601074,-5.432129,-1.800537,45.416016
64600,-9.457097,0.766145,2.336741,3.356934,-1.556396,-1.342773,45.410156
64640,-9.428367,0.890643,2.197877,1.434326,-3.387451,-0.701904,45.425781
64680,-9.414001,0.823605,2.351106,1.861572,-6.744385,-1.678467,45.392578
64720,-9.538500,0.866701,2.317587,0.305176,-2.838135,-0.823975,45.421875
64760,-9.490616,0.881066,2.346318,1.434326,-2.868652,-0.183105,45.394531
64800,-9.500193,0.857124,2.370260,2.075195,-2.838135,-0.213623,45.402344
64840,-9.543288,0.770933,2.408567,1.556396,-2.258301,-1.281738,45.417969
64880,-9.562442,0.746991,2.408567,0.549316,-1.983643,-1.068115,45.423828
64920,-9.519346,0.742203,2.403779,-0.091553,-1.220703,-0.183105,45.408203
64960,-9.485827,0.761356,2.394202,-0.793457,-1.007080,-0.762939,45.423828
65000,-9.471462,0.785298,2.427721,-0.732422,-1.464844,-1.129150,45.400391
65040,-9.471462,0.790087,2.485181,0.244141,-1.220703,-1.129150,45.414062
65080,-9.471462,0.751779,2.509123,0.305176,-0.457764,-1.159668,45.421875
65120,-9.471462,0.622492,2.489970,-1.770020,-1.739502,-1.953125,45.406250
65160,-9.572019,0.526724,2.485181,-4.364014,-1.007080,-1.922607,45.404297
65200,-9.533711,0.569820,2.461239,-6.134033,-0.030518,-1.495361,45.425781
65240,-9.447520,0.694318,2.480393,-6.042480,0.091553,-1.464844,45.410156
65280,-9.442732,0.689530,2.475605,-6.835938,0.701904,-1.220703,45.423828
65320,-9.509769,0.632069,2.384625,-7.812500,2.441406,-0.762939,45.400391
65360,-9.533711,0.708684,2.398990,-7.476807,2.136230,-0.427246,45.406250
65400,-9.509769,0.799663,2.418144,-5.828857,0.579834,-0.030518,45.421875
65440,-9.495404,0.790087,2.379837,-4.486084,0.488281,0.488281,45.398438
65480,-9.509769,0.799663,2.398990,-2.929688,1.739502,0.762939,45.406250
65520,-9.490616,0.842759,2.442086,-0.793457,2.624512,0.671387,45.419922
65560,-9.466674,0.833182,2.456451,0.579834,2.441406,0.793457,45.443359
65600,-9.442732,0.732626,2.451663,0.457764,0.518799,0.946045,45.419922
65640,-9.457097,0.651223,2.413355,0.671387,0.427246,1.403809,45.427734
65680,-9.538500,0.665588,2.394202,0.793457,2.014160,1.098633,45.406250
65720,-9.562442,0.713472,2.418144,1.098633,2.990723,0.915527,45.416016
65760,-9.471462,0.732626,2.418144,0.946045,1.556396,0.671387,45.414062
65800,-9.428367,0.751779,2.398990,0.823975,-0.610352,0.274658,45.394531
65840,-9.461885,0.737414,2.398990,0.518799,-1.342773,0.762939,45.410156
65880,-9.519346,0.713472,2.403779,0.488281,-0.579834,0.823975,45.433594
65920,-9.524135,0.751779,2.403779,1.037598,0.122070,0.488281,45.396484
65960,-9.500193,0.766145,2.379837,1.129150,-0.030518,0.183105,45.406250
66000,-9.461885,0.770933,2.389413,0.946045,-1.373291,-0.122070,45.410156
66040,-9.514558,0.756568,2.394202,0.732422,-0.366211,0.305176,45.406250
66080,-9.528923,0.770933,2.384625,0.030518,0.061035,0.244141,45.433594
66120,-9.509769,0.770933,2.384625,-0.091553,0.518799,0.427246,45.408203
66160,-9.490616,0.799663,2.389413,0.122070,0.030518,0.244141,45.421875
66200,-9.490616,0.804452,2.389413,0.091553,-0.610352,0.274658,45.412109
66240,-9.504981,0.799663,2.384625,-0.061035,0.061035,0.152588,45.416016
66280,-9.524135,0.823605,2.384625,0.244141,0.854492,0.183105,45.396484
66320,-9.514558,0.828394,2.379837,-0.061035,0.671387,0.183105,45.414062
66360,-9.485827,0.828394,2.375048,0.549316,0.885010,0.244141,45.431641
66400,-9.504981,0.804452,2.389413,0.183105,1.098633,0.091553,45.419922
66440,-9.514558,0.794875,2.384625,-0.152588,1.251221,-0.030518,45.412109
66480,-9.514558,0.794875,2.384625,-0.305176,1.464844,0.244141,45.408203
66520,-9.490616,0.809240,2.370260,-0.061035,1.037598,0.213623,45.443359
66560,-9.485827,0.809240,2.389413,0.091553,0.976562,0.152588,45.439453
66600,-9.495404,0.790087,2.394202,-0.122070,0.549316,-0.122070,45.425781
66640,-9.500193,0.799663,2.398990,0.152588,0.671387,-0.152588,45.396484
66680,-9.485827,0.823605,2.389413,0.305176,0.061035,-0.274658,45.400391
66720,-9.485827,0.794875,2.384625,0.305176,0.213623,-0.244141,45.412109
66760,-9.504981,0.770933,2.398990,-0.213623,0.000000,-0.335693,45.431641
66800,-9.504981,0.799663,2.370260,-0.274658,-0.030518,-0.091553,45.400391
66840,-9.490616,0.794875,2.355895,-0.396729,-0.396729,-0.091553,45.435547
66880,-9.490616,0.790087,2.346318,-0.396729,-0.274658,-0.061035,45.406250
66920,-9.519346,0.775721,2.379837,-0.305176,-0.030518,-0.122070,45.419922
66960,-9.557653,0.780510,2.432509,0.122070,1.129150,0.152588,45.427734
67000,-9.538500,0.804452,2.427721,0.854492,2.319336,0.885010,45.416016
67040,-9.514558,0.804452,2.264915,1.770020,2.990723,1.373291,45.414062
67080,-9.461885,0.775721,2.221819,-0.305176,0.579834,0.061035,45.435547
67120,-9.452309,0.785298,2.284068,-0.457764,-1.281738,-0.732422,45.425781
67160,-9.514558,0.847547,2.231396,-0.366211,-1.373291,-0.274658,45.404297
67200,-9.485827,0.814029,2.245761,-0.244141,-2.593994,-0.885010,45.435547
67240,-9.557653,0.799663,2.274492,-0.152588,-1.617432,-1.007080,45.416016
