MS,Accel X (m/s²),Accel Y (m/s²),Accel Z (m/s²),Gyro X (°/s),Gyro Y (°/s),Gyro Z (°/s),Temp (°C)
480,-9.686940,-0.062249,1.206678,-0.579834,-1.586914,-0.427246,31.189453
520,-9.725247,-0.009577,1.163582,-1.434326,-2.441406,-0.640869,31.201172
560,-9.763555,-0.023942,1.225831,-1.159668,-4.394531,-1.098633,31.201172
600,-9.821015,-0.043096,1.249773,-1.708984,-4.699707,-1.220703,31.201172
640,-9.782708,-0.028730,1.268927,-1.464844,-1.678467,-0.701904,31.195312
680,-9.734824,-0.028730,1.273715,-1.129150,-0.579834,-0.457764,31.212891
720,-9.773131,-0.052672,1.326388,-0.610352,-0.640869,-0.396729,31.207031
760,-9.816227,-0.033519,1.340753,-0.579834,-0.610352,-0.488281,31.191406
800,-9.797073,0.004788,1.302446,-0.366211,0.488281,-0.213623,31.191406
840,-9.758766,0.004788,1.288081,0.183105,0.732422,-0.122070,31.193359
880,-9.739613,-0.014365,1.312023,0.427246,0.701904,-0.183105,31.207031
920,-9.734824,-0.033519,1.345541,0.396729,-0.152588,-0.518799,31.207031
960,-9.749189,-0.038307,1.345541,0.518799,-0.366211,-0.457764,31.214844
1000,-9.730036,-0.004788,1.340753,1.068115,-0.549316,-0.305176,31.220703
1040,-9.744401,-0.009577,1.316811,0.885010,-1.342773,-0.427246,31.208984
1080,-9.773131,-0.033519,1.321599,0.640869,-1.159668,-0.427246,31.195312
1120,-9.768343,-0.043096,1.340753,0.335693,-1.708984,-0.457764,31.205078
1160,-9.720459,-0.033519,1.345541,-0.488281,-0.396729,-0.061035,31.216797
1200,-9.768343,-0.023942,1.307234,-0.396729,-0.854492,0.030518,31.234375
1240,-9.787497,-0.033519,1.302446,-0.274658,-0.244141,-0.061035,31.214844
1280,-9.763555,-0.052672,1.331176,-0.183105,-0.488281,-0.152588,31.201172
1320,-9.782708,-0.071826,1.345541,-0.305176,0.335693,-0.305176,31.212891
1360,-9.768343,-0.057461,1.335965,-0.457764,1.129150,-0.274658,31.220703
1400,-9.744401,-0.062249,1.316811,-0.335693,0.946045,-0.335693,31.234375
1440,-9.753978,-0.052672,1.331176,-0.244141,0.213623,-0.396729,31.214844
1480,-9.763555,-0.052672,1.331176,-0.213623,0.518799,-0.305176,31.228516
1520,-9.753978,-0.071826,1.321599,-0.457764,0.305176,-0.366211,31.240234
1560,-9.749189,-0.081403,1.312023,-0.640869,0.183105,-0.274658,31.242188
1600,-9.763555,-0.062249,1.307234,-0.640869,0.732422,-0.152588,31.218750
1640,-9.753978,-0.047884,1.316811,-0.762939,0.305176,-0.366211,31.216797
1680,-9.763555,-0.052672,1.297657,-0.335693,0.000000,-0.518799,31.244141
1720,-9.758766,-0.028730,1.302446,0.091553,0.610352,-0.366211,31.222656
1760,-9.730036,-0.047884,1.302446,-0.122070,0.000000,-0.579834,31.208984
1800,-9.725247,-0.071826,1.316811,0.000000,-0.152588,-0.579834,31.236328
1840,-9.777920,-0.090980,1.316811,-0.183105,0.549316,-0.152588,31.230469
1880,-9.782708,-0.038307,1.312023,0.152588,1.129150,-0.183105,31.232422
1920,-9.734824,-0.014365,1.292869,0.579834,0.305176,-0.488281,31.240234
1960,-9.758766,-0.038307,1.264138,1.007080,0.671387,-0.274658,31.236328
2000,-9.763555,-0.062249,1.259350,0.854492,-0.061035,-0.518799,31.230469
2040,-9.734824,-0.110133,1.268927,0.610352,-0.946045,-0.915527,31.236328
2080,-9.749189,-0.129287,1.259350,0.000000,-1.098633,-1.098633,31.234375
2120,-9.782708,-0.110133,1.244985,-0.244141,-0.946045,-0.854492,31.236328
2160,-9.792285,-0.095768,1.244985,-0.701904,0.000000,-0.671387,31.230469
2200,-9.773131,-0.076614,1.235408,-0.976562,-0.366211,-0.579834,31.242188
2240,-9.773131,-0.076614,1.249773,-1.220703,0.274658,-0.244141,31.269531
2280,-9.753978,-0.076614,1.268927,-0.976562,0.244141,-0.244141,31.236328
2320,-9.763555,-0.071826,1.273715,-0.915527,0.030518,-0.183105,31.273438
2360,-9.739613,-0.086191,1.278504,-1.129150,-0.396729,-0.091553,31.250000
2400,-9.758766,-0.071826,1.264138,-0.946045,-0.457764,0.030518,31.265625
2440,-9.777920,-0.038307,1.273715,-0.305176,-0.244141,0.274658,31.294922
2480,-9.763555,-0.071826,1.273715,-0.549316,-0.030518,0.335693,31.322266
2520,-9.773131,-0.095768,1.288081,-0.793457,0.183105,0.244141,31.302734
2560,-9.768343,-0.095768,1.292869,-0.915527,0.579834,0.335693,31.330078
2600,-9.749189,-0.076614,1.297657,-1.037598,0.244141,0.213623,31.292969
2640,-9.749189,-0.067038,1.297657,-0.976562,0.122070,0.244141,31.304688
2680,-9.753978,-0.071826,1.312023,-0.762939,-0.122070,0.213623,31.308594
2720,-9.749189,-0.071826,1.312023,-0.518799,-0.061035,0.183105,31.294922
2760,-9.725247,-0.081403,1.321599,-0.610352,-0.793457,-0.122070,31.306641
2800,-9.758766,-0.086191,1.312023,-0.488281,-0.671387,-0.091553,31.322266
2840,-9.773131,-0.076614,1.302446,-0.122070,-0.244141,-0.030518,31.300781
2880,-9.758766,-0.067038,1.297657,0.091553,-0.305176,-0.183105,31.316406
2920,-9.749189,-0.067038,1.297657,0.396729,-0.030518,-0.152588,31.314453
2960,-9.768343,-0.086191,1.316811,0.152588,-0.244141,-0.366211,31.306641
3000,-9.749189,-0.081403,1.335965,0.091553,-0.488281,-0.274658,31.318359
3040,-9.730036,-0.057461,1.350330,0.305176,-0.915527,-0.244141,31.337891
3080,-9.744401,-0.071826,1.350330,0.091553,-1.220703,-0.213623,31.326172
3120,-9.777920,-0.090980,1.350330,-0.213623,-0.793457,-0.244141,31.332031
3160,-9.763555,-0.057461,1.350330,0.366211,-0.915527,-0.335693,31.322266
3200,-9.744401,-0.067038,1.340753,0.213623,-0.549316,-0.213623,31.318359
3240,-9.749189,-0.100556,1.359907,-0.305176,-0.549316,-0.305176,31.318359
3280,-9.768343,-0.095768,1.374272,-0.488281,-0.183105,-0.335693,31.345703
3320,-9.758766,-0.071826,1.364695,-0.518799,0.000000,-0.183105,31.328125
3360,-9.734824,-0.057461,1.350330,-0.518799,0.152588,-0.122070,31.312500
3400,-9.730036,-0.071826,1.369483,-0.579834,-0.396729,-0.335693,31.318359
3440,-9.773131,-0.062249,1.364695,-0.427246,-0.152588,-0.213623,31.316406
3480,-9.753978,-0.057461,1.350330,-0.244141,0.152588,-0.213623,31.328125
3520,-9.753978,-0.062249,1.331176,-0.152588,0.396729,-0.183105,31.320312
3560,-9.768343,-0.062249,1.321599,0.061035,0.793457,-0.305176,31.320312
3600,-9.749189,-0.057461,1.335965,0.244141,0.640869,-0.335693,31.318359
3640,-9.753978,-0.062249,1.331176,0.518799,0.610352,-0.305176,31.324219
3680,-9.758766,-0.076614,1.326388,0.366211,0.579834,-0.427246,31.351562
3720,-9.753978,-0.081403,1.312023,0.366211,0.701904,-0.366211,31.343750
3760,-9.763555,-0.071826,1.307234,0.335693,0.640869,-0.335693,31.337891
3800,-9.753978,-0.071826,1.312023,0.427246,0.671387,-0.274658,31.343750
3840,-9.734824,-0.086191,1.326388,0.335693,-0.091553,-0.274658,31.351562
3880,-9.758766,-0.119710,1.316811,-0.244141,-0.061035,-0.396729,31.322266
3920,-9.744401,-0.095768,1.307234,0.122070,0.213623,-0.335693,31.347656
3960,-9.753978,-0.076614,1.292869,0.152588,0.335693,-0.244141,31.330078
4000,-9.768343,-0.095768,1.302446,-0.244141,0.457764,-0.366211,31.337891
4040,-9.758766,-0.086191,1.326388,-0.274658,0.213623,-0.457764,31.365234
4080,-9.763555,-0.090980,1.307234,-0.457764,0.518799,-0.183105,31.355469
4120,-9.763555,-0.086191,1.288081,-0.579834,0.915527,-0.061035,31.345703
4160,-9.758766,-0.095768,1.273715,-0.671387,0.823975,0.000000,31.347656
4200,-9.782708,-0.076614,1.264138,-0.549316,1.464844,0.122070,31.322266
4240,-9.763555,-0.067038,1.264138,-0.396729,1.434326,0.030518,31.351562
4280,-9.753978,-0.076614,1.244985,-0.396729,1.342773,-0.091553,31.351562
4320,-9.763555,-0.086191,1.240196,-0.488281,1.586914,-0.091553,31.333984
4360,-9.753978,-0.086191,1.235408,-0.122070,1.312256,-0.122070,31.361328
4400,-9.782708,-0.067038,1.216254,-0.213623,1.403809,-0.122070,31.351562
4440,-9.773131,-0.067038,1.201889,0.061035,1.403809,-0.030518,31.404297
4480,-9.763555,-0.086191,1.201889,0.030518,1.434326,-0.183105,31.392578
4520,-9.782708,-0.086191,1.187524,-0.061035,1.342773,-0.091553,31.376953
4560,-9.787497,-0.090980,1.173159,-0.122070,1.739502,-0.030518,31.390625
4600,-9.768343,-0.062249,1.173159,-0.091553,1.403809,-0.152588,31.423828
4640,-9.758766,-0.071826,1.163582,-0.762939,0.000000,-0.335693,31.386719
4680,-9.782708,-0.095768,1.134852,-0.823975,-0.061035,0.000000,31.400391
4720,-9.773131,-0.086191,1.154005,-1.037598,0.335693,0.457764,31.410156
4760,-9.787497,-0.095768,1.163582,-1.678467,1.251221,0.885010,31.398438
4800,-9.801862,-0.090980,1.163582,-1.556396,1.586914,0.305176,31.416016
4840,-9.753978,-0.057461,1.134852,-0.915527,0.488281,-0.213623,31.390625
4880,-9.706094,-0.038307,1.125275,-0.183105,-1.220703,-0.274658,31.406250
4920,-9.753978,-0.052672,1.125275,-0.549316,-1.800537,-0.122070,31.394531
4960,-9.782708,-0.062249,1.139640,-0.823975,-1.739502,-0.152588,31.410156
5000,-9.792285,-0.071826,1.177947,-1.007080,-1.892090,-0.061035,31.416016
5040,-9.773131,-0.090980,1.187524,-0.976562,-2.258301,0.030518,31.421875
5080,-9.782708,-0.081403,1.201889,-0.976562,-1.739502,-0.213623,31.431641
5120,-9.787497,-0.071826,1.221043,-0.915527,-1.159668,-0.244141,31.425781
5160,-9.777920,-0.071826,1.230620,-0.885010,-1.281738,-0.305176,31.421875
5200,-9.773131,-0.081403,1.230620,-1.037598,-1.220703,-0.274658,31.414062
5240,-9.777920,-0.071826,1.240196,-1.159668,-0.793457,-0.213623,31.400391
5280,-9.768343,-0.062249,1.254562,-0.915527,-0.396729,-0.213623,31.406250
5320,-9.777920,-0.062249,1.259350,-0.549316,-0.885010,-0.366211,31.398438
5360,-9.758766,-0.043096,1.273715,-0.030518,-0.762939,-0.366211,31.421875
5400,-9.734824,-0.062249,1.307234,-0.122070,-1.922607,-0.518799,31.433594
5440,-9.763555,-0.105345,1.302446,-0.091553,-2.014160,-0.396729,31.400391
5480,-9.763555,-0.076614,1.312023,0.488281,-1.495361,-0.244141,31.410156
5520,-9.749189,-0.071826,1.307234,0.183105,-2.288818,-0.366211,31.416016
5560,-9.758766,-0.105345,1.312023,-0.244141,-1.953125,-0.579834,31.433594
5600,-9.758766,-0.134075,1.331176,-0.549316,-1.464844,-0.427246,31.431641
5640,-9.739613,-0.134075,1.340753,-1.373291,-1.403809,-0.091553,31.449219
5680,-9.730036,-0.114922,1.335965,-2.136230,-2.014160,0.000000,31.433594
5720,-9.734824,-0.105345,1.359907,-2.441406,-2.258301,0.183105,31.451172
5760,-9.806650,-0.076614,1.379060,-1.251221,-0.457764,0.091553,31.433594
5800,-9.792285,-0.076614,1.383849,-0.244141,0.335693,-0.335693,31.437500
5840,-9.739613,-0.067038,1.359907,0.610352,-0.305176,-0.549316,31.437500
5880,-9.725247,-0.057461,1.340753,1.159668,-0.213623,-0.579834,31.437500
5920,-9.749189,-0.057461,1.345541,1.312256,-0.244141,-0.518799,31.433594
5960,-9.768343,-0.081403,1.359907,1.007080,-0.122070,-0.366211,31.443359
6000,-9.749189,-0.095768,1.359907,0.885010,0.061035,-0.183105,31.443359
6040,-9.739613,-0.105345,1.350330,0.579834,0.091553,-0.091553,31.449219
6080,-9.739613,-0.105345,1.369483,0.366211,-0.274658,-0.213623,31.429688
6120,-9.753978,-0.110133,1.364695,0.427246,-0.579834,-0.366211,31.447266
6160,-9.763555,-0.100556,1.369483,0.305176,-0.122070,-0.305176,31.458984
6200,-9.734824,-0.114922,1.388637,-0.335693,-0.610352,-0.549316,31.441406
6240,-9.753978,-0.110133,1.369483,-0.335693,-0.152588,-0.457764,31.441406
6280,-9.744401,-0.081403,1.369483,-0.152588,-0.152588,-0.274658,31.468750
6320,-9.753978,-0.081403,1.369483,-0.274658,-0.122070,-0.335693,31.437500
6360,-9.763555,-0.095768,1.388637,-0.488281,0.152588,-0.335693,31.445312
6400,-9.744401,-0.095768,1.379060,-0.366211,0.457764,-0.183105,31.482422
6440,-9.758766,-0.090980,1.379060,-0.396729,0.854492,-0.091553,31.515625
6480,-9.749189,-0.095768,1.393425,-0.518799,0.793457,0.000000,31.500000
6520,-9.725247,-0.114922,1.403002,-0.823975,-0.213623,0.061035,31.472656
6560,-9.725247,-0.110133,1.393425,-1.007080,-0.396729,0.000000,31.468750
6600,-9.753978,-0.086191,1.369483,-0.732422,-0.122070,0.122070,31.462891
6640,-9.744401,-0.076614,1.355118,-0.518799,-0.732422,0.030518,31.492188
6680,-9.749189,-0.071826,1.359907,0.030518,-0.030518,0.091553,31.507812
6720,-9.792285,-0.067038,1.369483,0.427246,0.579834,0.091553,31.515625
6760,-9.768343,-0.086191,1.369483,0.640869,1.098633,0.000000,31.521484
6800,-9.739613,-0.105345,1.379060,0.854492,1.068115,-0.183105,31.513672
6840,-9.725247,-0.100556,1.374272,0.823975,0.701904,-0.244141,31.521484
6880,-9.739613,-0.095768,1.369483,0.671387,0.579834,-0.152588,31.484375
6920,-9.768343,-0.090980,1.355118,0.549316,0.915527,0.000000,31.492188
6960,-9.749189,-0.081403,1.355118,0.579834,0.823975,0.030518,31.498047
7000,-9.734824,-0.100556,1.364695,0.366211,0.000000,-0.244141,31.537109
7040,-9.753978,-0.100556,1.340753,0.335693,0.366211,-0.274658,31.523438
7080,-9.744401,-0.071826,1.331176,0.610352,0.305176,-0.122070,31.500000
7120,-9.744401,-0.086191,1.326388,0.579834,-0.030518,-0.183105,31.531250
7160,-9.758766,-0.095768,1.335965,0.091553,-0.366211,-0.366211,31.521484
7200,-9.753978,-0.110133,1.326388,-0.427246,0.183105,0.000000,31.525391
7240,-9.749189,-0.110133,1.335965,-0.823975,0.061035,0.122070,31.519531
7280,-9.753978,-0.100556,1.331176,-1.098633,-0.335693,0.000000,31.519531
7320,-9.753978,-0.076614,1.331176,-1.007080,-0.549316,-0.030518,31.525391
7360,-9.744401,-0.062249,1.321599,-0.793457,-0.488281,0.030518,31.515625
7400,-9.739613,-0.071826,1.326388,-0.854492,-0.274658,0.000000,31.505859
7440,-9.753978,-0.071826,1.335965,-0.610352,-0.762939,-0.030518,31.523438
7480,-9.749189,-0.081403,1.326388,-0.427246,-0.427246,-0.061035,31.505859
7520,-9.739613,-0.076614,1.335965,-0.457764,-1.312256,-0.091553,31.525391
7560,-9.782708,-0.076614,1.345541,-0.640869,-0.213623,-0.091553,31.496094
7600,-9.773131,-0.057461,1.326388,-0.274658,0.335693,-0.122070,31.517578
7640,-9.749189,-0.071826,1.321599,-0.122070,0.335693,0.091553,31.529297
7680,-9.758766,-0.081403,1.326388,-0.183105,0.640869,0.152588,31.535156
7720,-9.730036,-0.067038,1.321599,0.091553,-0.152588,-0.274658,31.529297
7760,-9.749189,-0.043096,1.316811,0.427246,-0.244141,-0.396729,31.539062
7800,-9.749189,-0.052672,1.340753,0.366211,-0.549316,-0.579834,31.525391
7840,-9.749189,-0.100556,1.359907,0.152588,-1.037598,-0.640869,31.517578
7880,-9.749189,-0.081403,1.321599,0.000000,-0.671387,-0.427246,31.513672
7920,-9.739613,-0.081403,1.316811,-0.091553,-0.488281,-0.488281,31.525391
7960,-9.758766,-0.100556,1.355118,-0.152588,-0.549316,-0.732422,31.511719
8000,-9.763555,-0.086191,1.369483,-0.030518,-0.030518,-0.671387,31.517578
8040,-9.739613,-0.067038,1.374272,0.122070,-0.244141,-0.671387,31.531250
8080,-9.734824,-0.071826,1.383849,0.000000,-0.915527,-0.671387,31.511719
8120,-9.749189,-0.095768,1.374272,0.152588,-0.457764,-0.488281,31.537109
8160,-9.763555,-0.090980,1.374272,0.213623,-0.061035,-0.274658,31.525391
8200,-9.734824,-0.090980,1.388637,0.335693,-0.244141,-0.335693,31.513672
8240,-9.744401,-0.100556,1.388637,0.213623,-0.823975,-0.305176,31.535156
8280,-9.768343,-0.110133,1.388637,-0.030518,-0.396729,-0.305176,31.533203
8320,-9.763555,-0.110133,1.374272,-0.244141,-0.366211,-0.366211,31.531250
8360,-9.734824,-0.095768,1.383849,-0.305176,-0.183105,-0.366211,31.535156
8400,-9.744401,-0.114922,1.403002,-0.427246,-0.427246,-0.396729,31.541016
8440,-9.753978,-0.114922,1.412579,-0.640869,-0.457764,-0.335693,31.541016
8480,-9.753978,-0.105345,1.393425,-0.732422,0.000000,-0.244141,31.531250
8520,-9.749189,-0.100556,1.393425,-0.671387,-0.183105,-0.183105,31.531250
8560,-9.734824,-0.081403,1.393425,-0.366211,-0.061035,-0.122070,31.523438
8600,-9.720459,-0.095768,1.407791,-0.396729,-0.854492,-0.091553,31.539062
8640,-9.749189,-0.119710,1.412579,-0.793457,-1.007080,-0.183105,31.539062
8680,-9.753978,-0.100556,1.403002,-0.793457,-0.732422,-0.030518,31.548828
8720,-9.749189,-0.119710,1.422156,-0.366211,0.183105,-0.030518,31.580078
8760,-9.792285,-0.143652,1.479617,-0.396729,1.190186,0.091553,31.593750
8800,-9.825804,-0.134075,1.527501,0.457764,3.967285,1.007080,31.583984
8840,-9.730036,-0.110133,1.383849,0.518799,5.706787,1.403809,31.578125
8880,-9.667787,-0.086191,1.288081,-0.549316,2.655029,0.518799,31.564453
8920,-9.706094,-0.062249,1.307234,-0.122070,-0.122070,-0.244141,31.589844
8960,-9.763555,-0.033519,1.278504,-0.061035,-0.396729,-0.335693,31.583984
9000,-9.725247,-0.057461,1.292869,-0.152588,-1.617432,-0.549316,31.568359
9040,-9.691729,-0.086191,1.292869,-0.335693,-2.929688,-0.946045,31.570312
9080,-9.758766,-0.076614,1.302446,-0.457764,-3.051758,-1.129150,31.597656
9120,-9.816227,-0.076614,1.359907,-0.640869,-1.861572,-0.946045,31.597656
9160,-9.739613,-0.076614,1.388637,-0.152588,-1.007080,-0.518799,31.593750
9200,-9.715671,-0.095768,1.355118,0.122070,-0.091553,0.061035,31.603516
9240,-9.787497,-0.124498,1.403002,-0.152588,0.152588,0.213623,31.597656
9280,-9.797073,-0.124498,1.407791,-0.732422,0.091553,0.183105,31.619141
9320,-9.720459,-0.095768,1.403002,-0.579834,-0.274658,0.152588,31.593750
9360,-9.730036,-0.086191,1.393425,-0.488281,-0.396729,0.213623,31.589844
9400,-9.720459,-0.114922,1.422156,-1.068115,-1.037598,0.030518,31.599609
9440,-9.730036,-0.143652,1.441309,-0.946045,-0.854492,0.030518,31.591797
9480,-9.758766,-0.114922,1.417367,-0.335693,0.274658,0.122070,31.607422
9520,-9.753978,-0.086191,1.407791,0.122070,0.244141,-0.244141,31.597656
9560,-9.739613,-0.071826,1.412579,0.366211,-0.335693,-0.671387,31.583984
9600,-9.763555,-0.095768,1.407791,0.396729,0.488281,-0.488281,31.587891
9640,-9.753978,-0.105345,1.422156,0.091553,0.823975,-0.244141,31.603516
9680,-9.720459,-0.110133,1.403002,-0.152588,0.152588,-0.244141,31.591797
9720,-9.749189,-0.095768,1.393425,0.152588,0.488281,-0.244141,31.601562
9760,-9.753978,-0.081403,1.407791,0.244141,0.457764,-0.335693,31.578125
9800,-9.734824,-0.100556,1.403002,0.335693,0.244141,-0.610352,31.597656
9840,-9.744401,-0.086191,1.412579,0.518799,0.091553,-0.518799,31.593750
9880,-9.744401,-0.090980,1.412579,0.518799,-0.091553,-0.396729,31.601562
9920,-9.739613,-0.110133,1.398214,0.305176,-0.335693,-0.457764,31.609375
9960,-9.744401,-0.110133,1.398214,0.213623,0.183105,-0.305176,31.619141
10000,-9.739613,-0.110133,1.398214,0.213623,0.213623,-0.305176,31.609375
10040,-9.730036,-0.114922,1.398214,-0.061035,-0.610352,-0.366211,31.609375
10080,-9.739613,-0.114922,1.393425,-0.122070,-0.366211,-0.366211,31.603516
10120,-9.739613,-0.095768,1.398214,-0.152588,-0.946045,-0.366211,31.603516
10160,-9.739613,-0.114922,1.403002,-0.183105,-0.915527,-0.274658,31.607422
10200,-9.753978,-0.148441,1.403002,-0.701904,-0.732422,-0.366211,31.589844
10240,-9.768343,-0.105345,1.383849,-0.366211,-0.274658,-0.183105,31.613281
10280,-9.749189,-0.081403,1.369483,-0.091553,-0.488281,-0.152588,31.634766
10320,-9.744401,-0.095768,1.379060,0.061035,-0.183105,-0.244141,31.601562
10360,-9.749189,-0.105345,1.403002,-0.274658,0.091553,-0.152588,31.593750
10400,-9.749189,-0.124498,1.403002,-0.457764,0.518799,0.030518,31.615234
10440,-9.744401,-0.100556,1.388637,-0.610352,0.305176,-0.030518,31.628906
10480,-9.734824,-0.090980,1.383849,-0.396729,0.213623,-0.152588,31.626953
10520,-9.749189,-0.090980,1.393425,-0.305176,0.366211,-0.091553,31.642578
10560,-9.744401,-0.105345,1.398214,-0.274658,0.488281,0.030518,31.613281
10600,-9.744401,-0.110133,1.398214,-0.274658,0.305176,-0.091553,31.617188
10640,-9.773131,-0.105345,1.383849,-0.030518,1.037598,-0.091553,31.607422
10680,-9.753978,-0.076614,1.369483,0.213623,1.159668,-0.122070,31.617188
10720,-9.739613,-0.076614,1.369483,0.305176,0.427246,-0.244141,31.646484
10760,-9.725247,-0.090980,1.369483,0.366211,-0.061035,-0.244141,31.669922
10800,-9.734824,-0.114922,1.388637,-0.122070,-0.335693,-0.274658,31.683594
10840,-9.753978,-0.114922,1.379060,0.152588,0.091553,-0.427246,31.671875
10880,-9.734824,-0.119710,1.379060,0.152588,-0.549316,-0.366211,31.675781
10920,-9.725247,-0.119710,1.359907,0.091553,-0.396729,-0.488281,31.671875
10960,-9.730036,-0.129287,1.355118,-0.122070,-0.640869,-0.610352,31.662109
11000,-9.758766,-0.124498,1.359907,-0.671387,-0.946045,-0.518799,31.667969
11040,-9.768343,-0.100556,1.379060,-0.366211,0.579834,-0.274658,31.654297
11080,-9.773131,-0.076614,1.398214,-0.030518,1.434326,-0.183105,31.671875
11120,-9.744401,-0.062249,1.379060,0.274658,0.976562,-0.366211,31.667969
11160,-9.725247,-0.067038,1.379060,1.007080,-0.061035,-0.549316,31.683594
11200,-9.739613,-0.081403,1.393425,1.708984,0.305176,-0.427246,31.662109
11240,-9.744401,-0.081403,1.374272,1.739502,-0.335693,-0.640869,31.685547
11280,-9.739613,-0.138864,1.359907,1.525879,-0.396729,-0.427246,31.671875
11320,-9.744401,-0.158017,1.364695,0.823975,-0.213623,-0.122070,31.669922
11360,-9.763555,-0.162806,1.364695,-0.061035,-0.244141,-0.152588,31.658203
11400,-9.753978,-0.153229,1.355118,-0.488281,-0.122070,-0.244141,31.654297
11440,-9.749189,-0.129287,1.355118,-0.701904,0.000000,-0.213623,31.671875
11480,-9.749189,-0.143652,1.359907,-0.915527,0.152588,-0.152588,31.687500
11520,-9.749189,-0.143652,1.364695,-1.129150,0.061035,-0.213623,31.681641
11560,-9.777920,-0.134075,1.374272,-1.342773,0.701904,0.030518,31.669922
11600,-9.773131,-0.105345,1.359907,-1.312256,1.220703,0.000000,31.681641
11640,-9.720459,-0.067038,1.369483,-0.610352,-0.091553,-0.061035,31.667969
11680,-9.706094,-0.062249,1.359907,0.030518,-1.373291,0.061035,31.681641
11720,-9.734824,-0.071826,1.369483,0.274658,-2.105713,0.366211,31.652344
11760,-9.744401,-0.134075,1.388637,-0.427246,-2.105713,0.457764,31.687500
11800,-9.768343,-0.210690,1.374272,-1.922607,-1.983643,0.000000,31.656250
11840,-9.763555,-0.181959,1.369483,-2.044678,-0.335693,0.061035,31.671875
11880,-9.763555,-0.134075,1.374272,-1.739502,0.610352,-0.061035,31.685547
11920,-9.739613,-0.086191,1.403002,-1.495361,-0.061035,-0.457764,31.658203
11960,-9.730036,-0.095768,1.422156,-1.159668,-0.549316,-0.396729,31.695312
12000,-9.739613,-0.110133,1.431733,-1.281738,0.091553,-0.274658,31.662109
12040,-9.720459,-0.119710,1.431733,-1.708984,-0.701904,-0.427246,31.683594
12080,-9.730036,-0.134075,1.426944,-1.281738,-0.732422,-0.579834,31.675781
12120,-9.739613,-0.105345,1.422156,-0.640869,-1.617432,-0.701904,31.683594
12160,-9.739613,-0.110133,1.412579,-0.396729,-1.098633,-0.671387,31.679688
12200,-9.749189,-0.114922,1.412579,-0.244141,-0.854492,-0.671387,31.673828
12240,-9.749189,-0.114922,1.417367,0.030518,-0.457764,-0.427246,31.693359
12280,-9.753978,-0.105345,1.426944,0.488281,0.366211,-0.335693,31.693359
12320,-9.744401,-0.081403,1.441309,1.220703,0.793457,-0.335693,31.671875
12360,-9.734824,-0.076614,1.426944,1.983643,0.427246,-0.518799,31.677734
12400,-9.730036,-0.076614,1.417367,2.441406,0.488281,-0.427246,31.681641
12440,-9.734824,-0.124498,1.441309,2.410889,0.488281,-0.335693,31.681641
12480,-9.739613,-0.172383,1.436521,1.953125,0.366211,-0.213623,31.687500
12520,-9.749189,-0.177171,1.417367,1.770020,0.640869,-0.152588,31.683594
12560,-9.744401,-0.177171,1.422156,1.068115,0.335693,-0.183105,31.673828
12600,-9.739613,-0.181959,1.412579,0.488281,0.915527,-0.061035,31.714844
12640,-9.758766,-0.143652,1.407791,0.396729,1.403809,0.152588,31.687500
12680,-9.763555,-0.167594,1.398214,-0.457764,1.617432,0.183105,31.744141
12720,-9.744401,-0.181959,1.407791,-1.037598,2.136230,0.030518,31.724609
12760,-9.734824,-0.162806,1.398214,-1.342773,1.831055,0.213623,31.720703
12800,-9.730036,-0.143652,1.388637,-1.647949,1.312256,0.274658,31.734375
12840,-9.734824,-0.148441,1.379060,-2.014160,0.061035,0.183105,31.716797
12880,-9.739613,-0.134075,1.364695,-1.770020,-0.152588,0.213623,31.730469
12920,-9.777920,-0.114922,1.364695,-1.556396,0.762939,0.152588,31.726562
12960,-9.758766,-0.114922,1.345541,-1.403809,0.549316,0.122070,31.724609
13000,-9.749189,-0.105345,1.335965,-1.068115,0.640869,0.183105,31.730469
13040,-9.749189,-0.100556,1.340753,-0.579834,0.335693,0.091553,31.738281
13080,-9.730036,-0.095768,1.340753,-0.122070,-0.427246,0.000000,31.718750
13120,-9.782708,-0.095768,1.355118,0.061035,0.488281,-0.183105,31.753906
13160,-9.758766,-0.105345,1.335965,0.488281,0.762939,-0.030518,31.734375
13200,-9.739613,-0.114922,1.321599,0.518799,0.152588,-0.152588,31.748047
13240,-9.753978,-0.090980,1.326388,0.854492,0.610352,-0.366211,31.720703
13280,-9.744401,-0.086191,1.326388,1.098633,-0.091553,-0.366211,31.730469
13320,-9.749189,-0.124498,1.312023,0.549316,-0.335693,-0.518799,31.750000
13360,-9.763555,-0.143652,1.321599,0.244141,0.061035,-0.549316,31.750000
13400,-9.753978,-0.119710,1.312023,-0.213623,0.335693,-0.427246,31.750000
13440,-9.730036,-0.138864,1.307234,-0.640869,-0.549316,-0.427246,31.753906
13480,-9.725247,-0.134075,1.326388,-0.640869,-1.373291,-0.396729,31.724609
13520,-9.768343,-0.119710,1.345541,-0.854492,-0.518799,-0.366211,31.738281
13560,-9.763555,-0.114922,1.340753,-0.823975,-0.427246,-0.305176,31.710938
13600,-9.725247,-0.129287,1.350330,-1.037598,-1.342773,-0.091553,31.750000
13640,-9.782708,-0.124498,1.374272,-0.823975,0.854492,0.274658,31.738281
13680,-9.801862,-0.081403,1.359907,-0.213623,0.823975,0.152588,31.744141
13720,-9.682152,-0.100556,1.345541,0.000000,-1.434326,-0.091553,31.767578
13760,-9.715671,-0.124498,1.355118,-0.518799,-2.502441,0.030518,31.763672
13800,-9.792285,-0.134075,1.379060,-0.885010,-0.946045,0.244141,31.744141
13840,-9.768343,-0.158017,1.388637,-1.098633,-1.129150,-0.122070,31.744141
13880,-9.734824,-0.153229,1.379060,-0.854492,-1.220703,-0.366211,31.753906
13920,-9.734824,-0.129287,1.374272,-0.274658,-1.007080,-0.396729,31.740234
13960,-9.739613,-0.129287,1.388637,-0.457764,-1.342773,-0.640869,31.765625
14000,-9.744401,-0.134075,1.393425,-0.915527,-1.739502,-0.854492,31.753906
14040,-9.739613,-0.114922,1.398214,-0.579834,-1.037598,-0.549316,31.759766
14080,-9.734824,-0.119710,1.417367,-0.610352,-1.037598,-0.366211,31.748047
14120,-9.758766,-0.143652,1.398214,-0.823975,-0.762939,-0.518799,31.759766
14160,-9.725247,-0.086191,1.412579,0.335693,-0.366211,-0.366211,31.763672
14200,-9.739613,-0.090980,1.422156,0.701904,-0.793457,-0.610352,31.773438
14240,-9.768343,-0.134075,1.422156,0.701904,0.244141,-0.488281,31.757812
14280,-9.749189,-0.143652,1.426944,0.701904,0.732422,-0.244141,31.738281
14320,-9.739613,-0.158017,1.417367,0.152588,0.610352,0.000000,31.750000
14360,-9.734824,-0.143652,1.412579,-0.152588,0.701904,0.030518,31.748047
14400,-9.730036,-0.148441,1.417367,-0.030518,0.610352,-0.061035,31.742188
14440,-9.730036,-0.153229,1.426944,-0.061035,0.305176,-0.122070,31.742188
14480,-9.734824,-0.158017,1.426944,-0.183105,-0.061035,-0.183105,31.744141
14520,-9.730036,-0.148441,1.417367,-0.335693,0.061035,-0.213623,31.767578
14560,-9.739613,-0.143652,1.412579,-0.396729,-0.091553,-0.183105,31.763672
14600,-9.749189,-0.138864,1.417367,-0.335693,-0.183105,-0.122070,31.753906
14640,-9.744401,-0.143652,1.422156,-0.244141,0.122070,-0.152588,31.744141
14680,-9.734824,-0.148441,1.417367,-0.274658,-0.183105,-0.244141,31.810547
14720,-9.739613,-0.134075,1.403002,-0.091553,0.061035,-0.091553,31.824219
14760,-9.734824,-0.129287,1.407791,-0.122070,-0.122070,-0.183105,31.779297
14800,-9.730036,-0.124498,1.412579,0.244141,-0.335693,-0.305176,31.769531
14840,-9.734824,-0.129287,1.407791,0.335693,-0.610352,-0.244141,31.798828
14880,-9.753978,-0.153229,1.407791,0.030518,-0.183105,-0.244141,31.789062
14920,-9.739613,-0.143652,1.417367,0.305176,-0.030518,-0.183105,31.792969
14960,-9.749189,-0.138864,1.398214,0.274658,-0.274658,-0.213623,31.806641
15000,-9.744401,-0.143652,1.412579,0.335693,0.335693,-0.274658,31.800781
15040,-9.739613,-0.148441,1.426944,0.091553,0.274658,-0.244141,31.835938
15080,-9.734824,-0.162806,1.417367,-0.152588,0.427246,-0.030518,31.800781
15120,-9.730036,-0.153229,1.412579,-0.610352,-0.213623,-0.091553,31.789062
15160,-9.730036,-0.153229,1.422156,-0.823975,-0.610352,-0.122070,31.781250
15200,-9.744401,-0.143652,1.422156,-0.823975,-0.274658,-0.030518,31.783203
15240,-9.749189,-0.138864,1.426944,-0.701904,0.152588,-0.305176,31.812500
15280,-9.744401,-0.134075,1.417367,-0.335693,0.122070,-0.274658,31.808594
15320,-9.749189,-0.124498,1.407791,0.061035,0.549316,-0.152588,31.812500
15360,-9.720459,-0.110133,1.403002,0.244141,-0.274658,-0.366211,31.824219
15400,-9.749189,-0.114922,1.398214,0.274658,-0.274658,-0.183105,31.826172
15440,-9.768343,-0.134075,1.407791,0.488281,0.427246,0.000000,31.779297
15480,-9.739613,-0.158017,1.417367,0.213623,0.335693,-0.061035,31.828125
15520,-9.739613,-0.138864,1.407791,0.274658,0.305176,-0.091553,31.812500
15560,-9.749189,-0.138864,1.403002,0.396729,0.823975,-0.122070,31.812500
15600,-9.744401,-0.129287,1.403002,0.488281,0.457764,-0.183105,31.835938
15640,-9.734824,-0.138864,1.403002,0.457764,0.610352,-0.061035,31.820312
15680,-9.734824,-0.162806,1.412579,-0.244141,0.061035,-0.183105,31.789062
15720,-9.744401,-0.134075,1.388637,0.091553,0.671387,0.000000,31.818359
15760,-9.753978,-0.124498,1.379060,0.244141,0.823975,-0.030518,31.796875
15800,-9.753978,-0.134075,1.379060,0.152588,0.701904,-0.152588,31.796875
15840,-9.749189,-0.134075,1.374272,-0.061035,1.251221,-0.030518,31.791016
15880,-9.749189,-0.134075,1.359907,-0.274658,1.159668,0.213623,31.814453
15920,-9.734824,-0.119710,1.355118,-0.427246,1.007080,0.152588,31.812500
15960,-9.753978,-0.119710,1.340753,-0.610352,0.457764,-0.030518,31.804688
16000,-9.773131,-0.114922,1.340753,-0.213623,2.227783,0.152588,31.816406
16040,-9.773131,-0.114922,1.335965,0.274658,2.807617,0.213623,31.812500
16080,-9.749189,-0.110133,1.307234,0.366211,2.258301,0.061035,31.810547
16120,-9.730036,-0.086191,1.283292,0.488281,0.946045,-0.152588,31.826172
16160,-9.763555,-0.076614,1.283292,0.671387,0.579834,-0.122070,31.810547
16200,-9.768343,-0.095768,1.288081,0.610352,0.732422,0.000000,31.822266
16240,-9.758766,-0.129287,1.283292,0.518799,0.305176,-0.091553,31.818359
16280,-9.744401,-0.162806,1.268927,0.244141,0.030518,-0.244141,31.816406
16320,-9.758766,-0.172383,1.259350,-0.335693,-0.427246,-0.427246,31.816406
16360,-9.758766,-0.172383,1.254562,-0.854492,0.030518,-0.396729,31.818359
16400,-9.782708,-0.148441,1.230620,-1.220703,1.220703,-0.274658,31.816406
16440,-9.801862,-0.071826,1.249773,-0.854492,1.983643,-0.152588,31.822266
16480,-9.744401,-0.014365,1.273715,-0.152588,0.671387,-0.091553,31.841797
16520,-9.725247,-0.033519,1.244985,1.037598,-0.122070,-0.152588,31.810547
16560,-9.749189,-0.086191,1.225831,1.403809,-0.518799,-0.305176,31.806641
16600,-9.749189,-0.158017,1.259350,1.037598,-0.885010,-0.427246,31.818359
16640,-9.777920,-0.167594,1.268927,0.732422,0.091553,-0.274658,31.865234
16680,-9.773131,-0.153229,1.259350,0.061035,0.335693,-0.183105,31.845703
16720,-9.744401,-0.158017,1.254562,-0.488281,0.122070,-0.244141,31.859375
16760,-9.753978,-0.134075,1.264138,-0.762939,-0.305176,-0.244141,31.847656
16800,-9.744401,-0.114922,1.268927,-0.457764,-0.885010,-0.305176,31.869141
16840,-9.753978,-0.124498,1.259350,-0.396729,-0.823975,-0.335693,31.851562
16880,-9.763555,-0.138864,1.268927,-0.793457,-1.159668,-0.305176,31.876953
16920,-9.763555,-0.134075,1.273715,-0.823975,-1.312256,-0.183105,31.869141
16960,-9.753978,-0.114922,1.292869,-0.671387,-1.953125,-0.305176,31.876953
17000,-9.734824,-0.100556,1.307234,-0.701904,-2.777100,-0.518799,31.869141
17040,-9.763555,-0.129287,1.307234,-0.732422,-2.349854,-0.518799,31.865234
17080,-9.787497,-0.148441,1.326388,-0.579834,-0.915527,-0.366211,31.853516
17120,-9.768343,-0.138864,1.321599,-0.549316,-0.579834,-0.274658,31.875000
17160,-9.763555,-0.129287,1.321599,-0.579834,-0.305176,-0.274658,31.859375
17200,-9.758766,-0.090980,1.326388,-0.274658,-0.335693,-0.274658,31.880859
17240,-9.758766,-0.105345,1.340753,-0.061035,-0.671387,-0.305176,31.855469
17280,-9.744401,-0.143652,1.364695,-0.274658,-0.366211,-0.274658,31.841797
17320,-9.758766,-0.153229,1.355118,-0.091553,0.152588,-0.305176,31.859375
17360,-9.744401,-0.119710,1.359907,0.488281,-0.061035,-0.274658,31.861328
17400,-9.749189,-0.114922,1.355118,0.579834,-0.457764,-0.366211,31.878906
17440,-9.763555,-0.148441,1.359907,0.518799,0.549316,-0.152588,31.880859
17480,-9.749189,-0.167594,1.355118,-0.213623,0.732422,-0.030518,31.869141
17520,-9.725247,-0.134075,1.364695,-0.152588,0.213623,0.183105,31.875000
17560,-9.744401,-0.100556,1.369483,-0.061035,-0.030518,0.061035,31.871094
17600,-9.753978,-0.114922,1.369483,0.061035,0.091553,-0.061035,31.867188
17640,-9.749189,-0.134075,1.369483,0.183105,-0.396729,0.030518,31.869141
17680,-9.734824,-0.158017,1.355118,0.244141,-0.152588,0.000000,31.873047
17720,-9.749189,-0.172383,1.335965,-0.152588,-0.274658,-0.122070,31.865234
17760,-9.758766,-0.167594,1.335965,-0.671387,-0.366211,-0.244141,31.869141
17800,-9.763555,-0.172383,1.326388,-1.159668,0.061035,-0.274658,31.869141
17840,-9.768343,-0.167594,1.340753,-1.678467,0.549316,-0.335693,31.880859
17880,-9.753978,-0.153229,1.345541,-1.739502,0.915527,-0.305176,31.890625
17920,-9.753978,-0.114922,1.340753,-1.373291,1.007080,-0.335693,31.861328
17960,-9.744401,-0.090980,1.331176,-0.885010,0.610352,-0.274658,31.894531
18000,-9.744401,-0.095768,1.331176,-0.518799,0.030518,-0.335693,31.882812
18040,-9.758766,-0.100556,1.321599,-0.030518,0.213623,-0.366211,31.882812
18080,-9.744401,-0.095768,1.335965,0.366211,-0.152588,-0.274658,31.878906
18120,-9.744401,-0.134075,1.326388,0.213623,-0.366211,-0.122070,31.878906
18160,-9.758766,-0.134075,1.326388,0.457764,0.122070,0.061035,31.888672
18200,-9.753978,-0.129287,1.312023,0.518799,-0.183105,0.061035,31.884766
18240,-9.753978,-0.138864,1.316811,0.366211,-0.244141,0.030518,31.898438
18280,-9.773131,-0.162806,1.331176,-0.274658,-0.183105,0.213623,31.886719
18320,-9.782708,-0.167594,1.340753,-0.396729,1.464844,0.396729,31.875000
18360,-9.753978,-0.138864,1.316811,-0.366211,1.129150,0.091553,31.882812
18400,-9.720459,-0.153229,1.312023,-0.457764,0.061035,-0.213623,31.869141
18440,-9.730036,-0.129287,1.297657,-0.183105,-0.671387,-0.396729,31.892578
18480,-9.749189,-0.124498,1.273715,-0.183105,-0.427246,-0.122070,31.869141
18520,-9.782708,-0.119710,1.288081,0.030518,0.885010,0.091553,31.896484
18560,-9.797073,-0.086191,1.302446,0.244141,1.556396,0.061035,31.898438
18600,-9.739613,-0.043096,1.278504,1.037598,1.647949,0.061035,31.894531
18640,-9.734824,-0.043096,1.278504,1.892090,1.159668,0.061035,31.941406
18680,-9.773131,-0.090980,1.278504,2.075195,1.342773,0.030518,31.937500
18720,-9.753978,-0.138864,1.283292,1.892090,0.946045,-0.061035,31.933594
18760,-9.749189,-0.172383,1.278504,1.373291,0.823975,-0.122070,31.923828
18800,-9.777920,-0.167594,1.264138,0.854492,1.037598,-0.091553,31.910156
18840,-9.753978,-0.134075,1.254562,0.640869,0.457764,-0.183105,31.941406
18880,-9.763555,-0.114922,1.235408,0.091553,0.122070,-0.152588,31.941406
18920,-9.768343,-0.124498,1.249773,-0.732422,0.305176,0.122070,31.941406
18960,-9.797073,-0.143652,1.273715,-1.129150,1.098633,0.244141,31.929688
19000,-9.787497,-0.110133,1.249773,-1.068115,1.068115,0.305176,31.937500
19040,-9.744401,-0.119710,1.216254,-1.342773,-0.274658,0.122070,31.914062
19080,-9.763555,-0.090980,1.230620,-1.098633,0.488281,-0.030518,31.941406
19120,-9.811439,-0.081403,1.244985,-0.762939,0.823975,0.244141,31.929688
19160,-9.758766,-0.086191,1.225831,-0.579834,0.518799,0.335693,31.941406
19200,-9.749189,-0.081403,1.211466,-0.885010,-0.274658,0.030518,31.921875
19240,-9.773131,-0.076614,1.197101,-0.488281,0.183105,-0.030518,31.945312
19280,-9.758766,-0.081403,1.192312,-0.305176,-0.152588,-0.122070,31.937500
19320,-9.749189,-0.086191,1.197101,-0.366211,-0.335693,-0.396729,31.947266
19360,-9.763555,-0.076614,1.201889,-0.244141,-0.732422,-0.396729,31.943359
19400,-9.763555,-0.100556,1.197101,-0.244141,-0.854492,-0.213623,31.921875
19440,-9.758766,-0.110133,1.192312,-0.671387,-1.068115,-0.213623,31.937500
19480,-9.768343,-0.110133,1.216254,-0.885010,-0.457764,-0.152588,31.951172
19520,-9.782708,-0.138864,1.240196,-1.159668,-0.274658,-0.366211,31.960938
19560,-9.773131,-0.129287,1.235408,-1.159668,-0.640869,-0.640869,31.939453
19600,-9.758766,-0.086191,1.225831,-0.671387,-0.793457,-0.640869,31.949219
19640,-9.758766,-0.067038,1.235408,-0.213623,-1.098633,-0.732422,31.958984
19680,-9.777920,-0.057461,1.264138,0.457764,-0.885010,-0.549316,31.943359
19720,-9.758766,-0.062249,1.288081,0.732422,-1.312256,-0.671387,31.931641
19760,-9.744401,-0.095768,1.283292,1.159668,-2.166748,-0.885010,31.937500
19800,-9.744401,-0.105345,1.273715,1.312256,-2.593994,-0.854492,31.947266
19840,-9.763555,-0.143652,1.278504,0.823975,-2.716064,-0.915527,31.941406
19880,-9.768343,-0.181959,1.297657,-0.122070,-2.746582,-1.068115,31.947266
19920,-9.777920,-0.205901,1.297657,-0.762939,-0.976562,-0.762939,31.955078
19960,-9.787497,-0.172383,1.302446,-0.976562,0.640869,-0.427246,31.929688
20000,-9.797073,-0.100556,1.321599,-0.427246,2.105713,-0.244141,31.943359
20040,-9.773131,-0.033519,1.335965,1.190186,3.082275,-0.091553,31.945312
20080,-9.749189,0.000000,1.345541,2.777100,2.166748,-0.152588,31.929688
20120,-9.710882,-0.052672,1.340753,3.051758,-0.152588,-0.122070,31.947266
20160,-9.691729,-0.148441,1.321599,2.349854,-2.410889,-0.152588,31.958984
20200,-9.725247,-0.196325,1.307234,1.922607,-2.655029,0.335693,31.939453
20240,-9.782708,-0.215478,1.321599,0.823975,-1.403809,0.488281,31.962891
20280,-9.787497,-0.225055,1.321599,-0.579834,-0.335693,-0.213623,31.943359
20320,-9.782708,-0.167594,1.321599,-1.129150,-0.244141,-0.488281,31.960938
20360,-9.753978,-0.143652,1.326388,-1.251221,-0.274658,-0.061035,31.953125
20400,-9.730036,-0.143652,1.340753,-1.251221,-0.213623,-0.061035,31.953125
20440,-9.744401,-0.143652,1.350330,-1.312256,0.000000,-0.152588,31.960938
20480,-9.749189,-0.153229,1.350330,-1.586914,-0.274658,-0.274658,31.984375
20520,-9.734824,-0.138864,1.355118,-1.678467,-1.129150,-0.366211,31.962891
20560,-9.749189,-0.114922,1.345541,-1.098633,-1.098633,-0.274658,31.976562
20600,-9.758766,-0.086191,1.340753,-0.396729,-1.068115,-0.061035,31.998047
20640,-9.763555,-0.100556,1.340753,0.183105,0.030518,0.000000,32.015625
20680,-9.753978,-0.105345,1.355118,0.396729,0.091553,-0.335693,32.013672
20720,-9.758766,-0.110133,1.340753,0.671387,0.427246,-0.244141,32.001953
20760,-9.768343,-0.110133,1.326388,0.732422,0.518799,-0.213623,31.992188
20800,-9.744401,-0.110133,1.331176,0.823975,0.213623,-0.183105,31.982422
20840,-9.739613,-0.129287,1.355118,0.762939,-0.030518,-0.244141,32.023438
20880,-9.763555,-0.134075,1.359907,0.610352,0.061035,-0.335693,31.982422
20920,-9.744401,-0.119710,1.350330,0.671387,-0.061035,-0.396729,32.003906
20960,-9.725247,-0.134075,1.340753,0.396729,-0.610352,-0.518799,31.980469
21000,-9.753978,-0.134075,1.345541,0.152588,-0.610352,-0.335693,31.996094
21040,-9.763555,-0.143652,1.355118,-0.183105,-0.396729,-0.183105,32.015625
21080,-9.739613,-0.158017,1.364695,-0.427246,-0.061035,-0.152588,31.992188
21120,-9.749189,-0.162806,1.364695,-0.762939,-0.274658,-0.213623,32.021484
21160,-9.749189,-0.148441,1.355118,-0.885010,-0.030518,-0.244141,32.005859
21200,-9.739613,-0.124498,1.359907,-0.885010,-0.152588,-0.335693,31.986328
21240,-9.749189,-0.114922,1.355118,-0.427246,-0.122070,-0.030518,31.986328
21280,-9.749189,-0.124498,1.374272,-0.427246,0.000000,0.000000,31.990234
21320,-9.768343,-0.129287,1.374272,-0.274658,0.305176,-0.030518,32.005859
21360,-9.753978,-0.110133,1.355118,0.457764,1.068115,-0.091553,32.001953
21400,-9.753978,-0.095768,1.355118,0.946045,1.281738,0.152588,32.000000
21440,-9.777920,-0.124498,1.340753,0.762939,2.075195,0.091553,32.021484
21480,-9.739613,-0.119710,1.335965,0.640869,1.586914,-0.152588,31.994141
21520,-9.744401,-0.124498,1.316811,0.366211,1.586914,-0.091553,32.015625
21560,-9.777920,-0.119710,1.302446,0.396729,2.044678,0.152588,32.000000
21600,-9.753978,-0.124498,1.312023,0.152588,1.190186,0.091553,32.015625
21640,-9.739613,-0.124498,1.292869,0.030518,1.007080,0.152588,32.011719
21680,-9.753978,-0.138864,1.283292,-0.305176,0.915527,0.274658,32.000000
21720,-9.758766,-0.148441,1.283292,-0.701904,1.037598,0.152588,32.025391
21760,-9.749189,-0.138864,1.264138,-0.854492,0.213623,-0.152588,32.000000
21800,-9.763555,-0.105345,1.268927,-0.579834,0.671387,-0.091553,31.986328
21840,-9.792285,-0.095768,1.273715,-0.427246,1.342773,-0.213623,32.011719
21880,-9.763555,-0.114922,1.259350,-0.366211,1.068115,-0.122070,32.015625
21920,-9.749189,-0.110133,1.244985,-0.396729,0.701904,-0.122070,32.005859
21960,-9.758766,-0.100556,1.240196,-0.518799,0.396729,-0.335693,32.011719
22000,-9.777920,-0.090980,1.225831,-0.244141,0.152588,-0.244141,32.031250
22040,-9.782708,-0.081403,1.216254,0.183105,0.976562,-0.152588,32.019531
22080,-9.758766,-0.086191,1.221043,0.030518,-0.274658,-0.427246,31.988281
22120,-9.777920,-0.105345,1.230620,0.091553,-0.305176,-0.305176,32.035156
22160,-9.787497,-0.095768,1.221043,0.274658,0.640869,-0.457764,32.019531
22200,-9.768343,-0.114922,1.197101,0.457764,0.061035,-0.671387,32.015625
22240,-9.758766,-0.129287,1.197101,0.701904,0.244141,-0.457764,32.015625
22280,-9.777920,-0.110133,1.211466,0.457764,0.427246,-0.427246,32.011719
22320,-9.739613,-0.119710,1.177947,0.030518,-0.305176,0.213623,32.015625
22360,-9.749189,-0.158017,1.206678,-0.976562,-0.946045,0.305176,32.033203
22400,-9.773131,-0.153229,1.221043,-1.129150,-0.366211,0.244141,31.990234
22440,-9.777920,-0.110133,1.211466,-0.671387,-0.122070,0.213623,32.015625
22480,-9.753978,-0.090980,1.201889,-0.396729,-0.366211,0.244141,32.013672
22520,-9.773131,-0.086191,1.197101,0.000000,-0.030518,0.305176,32.017578
22560,-9.792285,-0.081403,1.206678,0.274658,0.061035,-0.183105,32.044922
22600,-9.763555,-0.071826,1.216254,0.640869,-0.274658,-0.335693,32.035156
22640,-9.777920,-0.100556,1.216254,0.823975,0.183105,-0.366211,32.068359
22680,-9.768343,-0.129287,1.230620,0.549316,0.183105,-0.427246,32.062500
22720,-9.768343,-0.143652,1.244985,0.366211,0.122070,-0.549316,32.039062
22760,-9.777920,-0.129287,1.259350,0.427246,0.030518,-0.701904,32.048828
22800,-9.749189,-0.076614,1.254562,0.762939,-0.854492,-0.488281,32.029297
22840,-9.725247,-0.095768,1.254562,0.335693,-2.075195,-0.427246,32.042969
22880,-9.768343,-0.138864,1.259350,-0.274658,-1.861572,-0.457764,32.056641
22920,-9.768343,-0.105345,1.273715,-0.091553,-2.258301,-0.396729,32.064453
22960,-9.763555,-0.124498,1.268927,0.000000,-2.166748,-0.427246,32.052734
23000,-9.773131,-0.148441,1.273715,-0.518799,-2.014160,-0.549316,32.058594
23040,-9.782708,-0.129287,1.278504,-0.732422,-1.068115,-0.366211,32.054688
23080,-9.782708,-0.134075,1.292869,-0.915527,-0.457764,-0.122070,32.050781
23120,-9.768343,-0.119710,1.302446,-0.946045,-0.396729,-0.061035,32.058594
23160,-9.749189,-0.100556,1.288081,-0.793457,0.091553,-0.061035,32.066406
23200,-9.777920,-0.100556,1.331176,-0.213623,1.007080,0.244141,32.066406
23240,-9.825804,-0.119710,1.407791,-0.213623,2.136230,0.823975,32.066406
23280,-9.782708,-0.100556,1.393425,0.122070,4.089355,1.556396,32.062500
23320,-9.686940,-0.129287,1.235408,0.274658,4.791260,2.136230,32.054688
23360,-9.725247,-0.153229,1.216254,-0.274658,2.044678,0.885010,32.074219
23400,-9.739613,-0.081403,1.201889,-0.518799,-0.762939,-0.183105,32.066406
23440,-9.749189,-0.023942,1.149217,-0.030518,-1.403809,-0.305176,32.062500
23480,-9.758766,-0.067038,1.182736,0.427246,-0.793457,-0.366211,32.076172
23520,-9.763555,-0.119710,1.192312,-0.030518,-1.556396,-0.976562,32.074219
23560,-9.758766,-0.100556,1.230620,-0.152588,-2.777100,-1.831055,32.068359
23600,-9.792285,-0.067038,1.278504,0.335693,-2.960205,-1.586914,32.058594
23640,-9.763555,-0.090980,1.297657,0.274658,-1.525879,-0.976562,32.060547
23680,-9.753978,-0.076614,1.249773,0.549316,0.091553,-0.274658,32.078125
23720,-9.801862,-0.086191,1.283292,1.037598,0.854492,-0.091553,32.068359
23760,-9.787497,-0.095768,1.302446,0.701904,0.274658,-0.244141,32.072266
23800,-9.753978,-0.105345,1.278504,0.213623,0.244141,-0.183105,32.082031
23840,-9.744401,-0.119710,1.283292,-0.122070,0.183105,-0.061035,32.070312
23880,-9.753978,-0.124498,1.283292,-0.610352,-0.152588,-0.030518,32.074219
23920,-9.753978,-0.119710,1.283292,-0.640869,-0.366211,-0.122070,32.080078
23960,-9.753978,-0.100556,1.292869,-0.213623,-0.396729,-0.091553,32.087891
24000,-9.768343,-0.124498,1.292869,-0.549316,0.122070,-0.305176,32.078125
24040,-9.777920,-0.105345,1.292869,-0.213623,0.305176,-0.457764,32.078125
24080,-9.773131,-0.114922,1.302446,-0.030518,0.793457,-0.061035,32.074219
24120,-9.739613,-0.119710,1.288081,-0.061035,0.396729,-0.396729,32.062500
24160,-9.739613,-0.081403,1.216254,-0.518799,-0.518799,-0.671387,32.072266
24200,-9.801862,-0.129287,1.192312,-1.159668,0.701904,-0.366211,32.070312
24240,-9.844957,-0.181959,1.312023,0.274658,2.044678,-0.762939,32.070312
24280,-9.835381,-0.076614,1.254562,-0.152588,1.312256,-0.946045,32.056641
24320,-9.706094,-0.004788,1.211466,0.885010,-1.037598,-1.251221,32.054688
24360,-9.653421,-0.038307,1.259350,1.983643,-0.885010,-0.793457,32.072266
24400,-9.777920,-0.143652,1.278504,2.014160,-0.213623,-0.640869,32.050781
24440,-9.739613,-0.201113,1.278504,2.197266,-1.068115,-0.885010,32.076172
24480,-9.782708,-0.196325,1.249773,1.403809,-1.678467,-0.946045,32.080078
24520,-9.797073,-0.134075,1.259350,0.427246,-0.366211,-0.488281,32.093750
24560,-9.730036,-0.134075,1.283292,-0.396729,-0.457764,-0.183105,32.111328
24600,-9.720459,-0.191536,1.302446,-0.762939,-0.274658,-0.091553,32.107422
24640,-9.782708,-0.201113,1.321599,-1.068115,-0.274658,-0.366211,32.109375
24680,-9.768343,-0.181959,1.326388,-0.579834,-1.129150,-0.823975,32.115234
24720,-9.734824,-0.129287,1.283292,-0.305176,-1.586914,-0.915527,32.113281
24760,-9.730036,-0.105345,1.240196,-0.152588,-1.434326,-0.762939,32.107422
24800,-9.792285,-0.186748,1.288081,-0.762939,-0.274658,-0.640869,32.101562
24840,-9.792285,-0.220267,1.316811,-1.708984,0.427246,-0.579834,32.093750
24880,-9.706094,-0.134075,1.302446,-1.098633,-0.061035,-0.427246,32.097656
24920,-9.739613,-0.110133,1.278504,-0.579834,-0.488281,-0.213623,32.121094
24960,-9.777920,-0.134075,1.292869,-0.579834,0.152588,-0.183105,32.121094
25000,-9.753978,-0.148441,1.312023,-0.335693,-0.244141,-0.122070,32.123047
25040,-9.734824,-0.138864,1.288081,0.549316,-0.061035,-0.091553,32.103516
25080,-9.739613,-0.138864,1.297657,0.823975,-0.579834,-0.061035,32.109375
25120,-9.763555,-0.158017,1.297657,0.762939,-0.640869,-0.152588,32.132812
25160,-9.782708,-0.162806,1.297657,0.518799,-0.518799,-0.091553,32.125000
25200,-9.744401,-0.153229,1.278504,0.335693,-0.274658,0.183105,32.117188
25240,-9.753978,-0.167594,1.278504,0.091553,-0.244141,0.244141,32.128906
25280,-9.782708,-0.186748,1.292869,-0.549316,-0.122070,0.183105,32.132812
25320,-9.758766,-0.177171,1.288081,-0.701904,0.549316,0.396729,32.121094
25360,-9.763555,-0.143652,1.312023,-0.488281,0.549316,0.274658,32.126953
25400,-9.758766,-0.143652,1.316811,-0.549316,-0.244141,-0.030518,32.121094
25440,-9.739613,-0.148441,1.326388,-0.244141,-0.091553,0.213623,32.136719
25480,-9.739613,-0.143652,1.326388,0.091553,0.213623,0.244141,32.105469
25520,-9.715671,-0.124498,1.331176,0.274658,-0.488281,-0.122070,32.121094
25560,-9.749189,-0.124498,1.331176,0.488281,-0.457764,-0.183105,32.121094
25600,-9.768343,-0.143652,1.326388,0.335693,-0.183105,0.000000,32.125000
25640,-9.768343,-0.167594,1.326388,0.213623,-0.061035,0.244141,32.126953
25680,-9.753978,-0.148441,1.321599,0.518799,0.701904,0.091553,32.117188
25720,-9.773131,-0.134075,1.326388,0.213623,0.640869,0.244141,32.146484
25760,-9.763555,-0.143652,1.321599,-0.213623,0.579834,0.457764,32.117188
25800,-9.725247,-0.134075,1.335965,-0.213623,0.976562,0.335693,32.121094
25840,-9.758766,-0.129287,1.326388,-0.366211,0.366211,0.091553,32.142578
25880,-9.749189,-0.119710,1.312023,-0.610352,-0.244141,0.091553,32.140625
25920,-9.739613,-0.124498,1.307234,-0.488281,-0.335693,-0.335693,32.130859
25960,-9.768343,-0.095768,1.312023,0.061035,-0.061035,-0.183105,32.138672
26000,-9.753978,-0.105345,1.302446,0.152588,0.305176,-0.152588,32.117188
26040,-9.744401,-0.110133,1.326388,0.244141,-0.213623,-0.701904,32.136719
26080,-9.768343,-0.124498,1.331176,-0.091553,-0.518799,-0.640869,32.117188
26120,-9.763555,-0.105345,1.307234,-0.213623,-0.579834,-0.396729,32.140625
26160,-9.744401,-0.110133,1.302446,-0.091553,-1.068115,-0.427246,32.150391
26200,-9.744401,-0.119710,1.312023,-0.030518,-1.342773,-0.366211,32.140625
26240,-9.753978,-0.138864,1.335965,-0.030518,-0.854492,-0.305176,32.138672
26280,-9.773131,-0.158017,1.345541,-0.274658,-0.610352,-0.305176,32.128906
26320,-9.749189,-0.158017,1.335965,-0.457764,-0.457764,-0.244141,32.134766
26360,-9.749189,-0.148441,1.335965,-0.488281,-0.366211,-0.213623,32.134766
26400,-9.758766,-0.143652,1.326388,-0.488281,-0.183105,-0.305176,32.132812
26440,-9.758766,-0.143652,1.340753,-0.396729,-0.183105,-0.305176,32.130859
26480,-9.758766,-0.143652,1.359907,-0.274658,0.396729,-0.183105,32.140625
26520,-9.753978,-0.138864,1.350330,-0.274658,0.671387,-0.274658,32.142578
26560,-9.715671,-0.119710,1.340753,0.061035,-0.488281,-0.183105,32.156250
26600,-9.739613,-0.129287,1.369483,0.213623,-0.549316,0.213623,32.169922
26640,-9.777920,-0.162806,1.364695,-0.183105,-0.061035,-0.030518,32.185547
26680,-9.753978,-0.158017,1.345541,0.061035,0.061035,-0.244141,32.169922
26720,-9.730036,-0.134075,1.355118,0.549316,0.061035,-0.152588,32.179688
26760,-9.753978,-0.148441,1.340753,0.244141,-0.091553,-0.122070,32.175781
26800,-9.768343,-0.153229,1.364695,0.061035,0.976562,-0.152588,32.164062
26840,-9.758766,-0.148441,1.364695,-0.122070,0.762939,-0.152588,32.169922
26880,-9.730036,-0.138864,1.335965,-0.518799,-0.061035,-0.061035,32.193359
26920,-9.706094,-0.138864,1.326388,-0.793457,-0.854492,-0.030518,32.167969
26960,-9.782708,-0.134075,1.355118,-0.183105,0.305176,0.030518,32.171875
27000,-9.797073,-0.105345,1.359907,0.030518,0.732422,-0.213623,32.195312
27040,-9.739613,-0.129287,1.340753,-0.061035,0.427246,-0.152588,32.164062
27080,-9.739613,-0.129287,1.326388,-0.152588,0.091553,-0.091553,32.173828
27120,-9.749189,-0.114922,1.326388,0.000000,-0.213623,0.061035,32.177734
27160,-9.758766,-0.090980,1.326388,0.244141,0.640869,0.457764,32.166016
27200,-9.773131,-0.105345,1.321599,0.122070,0.976562,0.488281,32.167969
27240,-9.768343,-0.114922,1.302446,0.457764,1.586914,0.640869,32.179688
27280,-9.749189,-0.105345,1.292869,0.762939,1.434326,0.183105,32.169922
27320,-9.744401,-0.090980,1.288081,0.976562,0.823975,-0.213623,32.166016
27360,-9.753978,-0.095768,1.288081,0.885010,-0.091553,-0.335693,32.191406
27400,-9.768343,-0.129287,1.278504,0.518799,0.213623,-0.213623,32.193359
27440,-9.782708,-0.100556,1.283292,0.762939,0.823975,-0.030518,32.175781
27480,-9.773131,-0.114922,1.273715,0.091553,0.854492,-0.061035,32.167969
27520,-9.739613,-0.119710,1.278504,0.030518,0.305176,-0.152588,32.156250
27560,-9.768343,-0.110133,1.278504,-0.183105,0.518799,-0.061035,32.185547
27600,-9.758766,-0.105345,1.268927,-0.549316,0.488281,-0.061035,32.164062
27640,-9.753978,-0.105345,1.249773,-0.946045,0.091553,-0.183105,32.175781
27680,-9.773131,-0.090980,1.264138,-0.671387,0.793457,-0.061035,32.183594
27720,-9.758766,-0.081403,1.278504,-0.671387,0.274658,-0.061035,32.183594
27760,-9.744401,-0.110133,1.244985,-1.098633,-0.396729,-0.244141,32.185547
27800,-9.768343,-0.105345,1.240196,-0.885010,0.122070,-0.427246,32.201172
27840,-9.797073,-0.062249,1.230620,0.183105,1.617432,-0.488281,32.193359
27880,-9.777920,-0.038307,1.225831,0.793457,1.129150,-0.610352,32.173828
27920,-9.734824,-0.062249,1.225831,1.159668,0.244141,-0.793457,32.175781
27960,-9.720459,-0.119710,1.230620,0.305176,-1.037598,-0.640869,32.189453
28000,-9.773131,-0.172383,1.221043,-0.488281,-0.549316,-0.335693,32.191406
28040,-9.806650,-0.114922,1.211466,-0.122070,0.579834,-0.366211,32.197266
28080,-9.753978,-0.071826,1.197101,0.213623,0.122070,-0.396729,32.175781
28120,-9.744401,-0.105345,1.206678,0.335693,-0.701904,-0.701904,32.175781
28160,-9.773131,-0.100556,1.201889,0.671387,-0.427246,-0.427246,32.167969
28200,-9.777920,-0.138864,1.197101,0.091553,-0.183105,-0.396729,32.189453
28240,-9.777920,-0.172383,1.216254,-0.457764,-0.183105,-0.457764,32.207031
28280,-9.782708,-0.167594,1.216254,-0.732422,0.457764,-0.244141,32.220703
28320,-9.753978,-0.124498,1.221043,-0.793457,-0.274658,-0.305176,32.195312
28360,-9.758766,-0.148441,1.211466,-0.701904,-0.427246,-0.305176,32.199219
28400,-9.787497,-0.143652,1.230620,-0.457764,0.122070,-0.152588,32.212891
28440,-9.753978,-0.129287,1.230620,-0.488281,-0.274658,-0.091553,32.177734
28480,-9.768343,-0.138864,1.216254,-0.335693,0.213623,0.091553,32.212891
28520,-9.797073,-0.124498,1.225831,0.000000,0.976562,0.244141,32.224609
28560,-9.773131,-0.143652,1.221043,-0.183105,0.488281,0.183105,32.222656
28600,-9.749189,-0.153229,1.230620,-0.152588,0.030518,0.335693,32.205078
28640,-9.777920,-0.138864,1.244985,0.061035,1.342773,0.274658,32.210938
28680,-9.797073,-0.134075,1.230620,-0.244141,1.556396,0.427246,32.257812
28720,-9.773131,-0.143652,1.216254,-0.305176,1.434326,0.793457,32.230469
28760,-9.734824,-0.110133,1.197101,0.091553,1.586914,0.762939,32.220703
28800,-9.739613,-0.095768,1.182736,-0.122070,0.793457,0.274658,32.248047
28840,-9.797073,-0.062249,1.173159,0.396729,1.617432,0.335693,32.214844
28880,-9.792285,-0.047884,1.177947,0.701904,1.251221,0.396729,32.214844
28920,-9.763555,-0.105345,1.182736,0.366211,1.037598,0.335693,32.228516
28960,-9.806650,-0.134075,1.206678,-0.213623,1.953125,0.640869,32.222656
29000,-9.844957,-0.105345,1.259350,0.091553,3.204346,1.220703,32.228516
29040,-9.744401,-0.057461,1.197101,0.854492,1.800537,1.220703,32.222656
29080,-9.662998,-0.052672,1.077391,0.152588,-0.671387,0.518799,32.253906
29120,-9.725247,-0.076614,1.077391,-0.335693,-2.655029,-0.213623,32.226562
29160,-9.763555,-0.095768,1.101333,-0.976562,-3.631592,-0.793457,32.242188
29200,-9.763555,-0.100556,1.110910,-1.312256,-4.516602,-1.281738,32.246094
29240,-9.835381,-0.071826,1.144428,-1.464844,-3.540039,-1.312256,32.212891
29280,-9.830592,-0.052672,1.216254,-1.159668,-2.960205,-1.129150,32.222656
29320,-9.715671,-0.062249,1.249773,-0.762939,-2.899170,-0.823975,32.234375
29360,-9.725247,-0.052672,1.235408,-0.610352,-2.899170,-0.671387,32.222656
29400,-9.768343,-0.071826,1.288081,-0.640869,-4.241943,-0.946045,32.228516
29440,-9.811439,-0.071826,1.340753,-0.213623,-3.540039,-1.068115,32.226562
29480,-9.811439,-0.062249,1.292869,-0.030518,-1.007080,-0.579834,32.255859
29520,-9.739613,-0.090980,1.292869,0.640869,-0.488281,-0.488281,32.238281
29560,-9.720459,-0.090980,1.302446,0.244141,-2.410889,-0.671387,32.228516
29600,-9.739613,-0.124498,1.292869,-0.549316,-2.990723,-0.274658,32.253906
29640,-9.768343,-0.162806,1.350330,-0.701904,-1.800537,-0.732422,32.240234
29680,-9.811439,-0.148441,1.383849,-0.854492,0.152588,-0.579834,32.248047
29720,-9.763555,-0.100556,1.379060,-0.823975,0.549316,-0.213623,32.244141
29760,-9.710882,-0.090980,1.379060,-0.488281,0.061035,-0.183105,32.236328
29800,-9.730036,-0.095768,1.383849,-0.213623,-0.640869,-0.274658,32.224609
29840,-9.758766,-0.100556,1.383849,0.091553,-0.671387,-0.274658,32.240234
29880,-9.753978,-0.119710,1.388637,0.244141,-0.335693,-0.183105,32.248047
29920,-9.749189,-0.124498,1.388637,0.335693,0.244141,-0.122070,32.236328
29960,-9.734824,-0.124498,1.407791,0.488281,-0.030518,-0.427246,32.224609
30000,-9.763555,-0.124498,1.412579,0.732422,0.061035,-0.457764,32.240234
30040,-9.749189,-0.119710,1.407791,0.915527,-0.030518,-0.396729,32.224609
30080,-9.715671,-0.153229,1.422156,0.579834,-0.335693,-0.610352,32.244141
30120,-9.730036,-0.167594,1.426944,0.213623,-0.366211,-0.762939,32.238281
30160,-9.739613,-0.134075,1.417367,0.427246,-0.762939,-0.549316,32.236328
30200,-9.725247,-0.124498,1.407791,0.091553,-1.098633,-0.518799,32.250000
30240,-9.753978,-0.119710,1.407791,0.061035,-1.556396,0.030518,32.216797
30280,-9.749189,-0.148441,1.393425,-0.213623,-1.068115,0.152588,32.255859
30320,-9.753978,-0.177171,1.422156,-0.549316,0.061035,-0.183105,32.263672
30360,-9.787497,-0.172383,1.431733,-0.701904,0.823975,-0.122070,32.248047
30400,-9.758766,-0.114922,1.407791,-0.030518,1.525879,0.335693,32.246094
30440,-9.730036,-0.090980,1.407791,0.213623,0.610352,0.000000,32.228516
30480,-9.696517,-0.134075,1.393425,-0.244141,-1.037598,-0.183105,32.236328
30520,-9.734824,-0.138864,1.403002,-0.457764,-0.640869,-0.030518,32.306641
30560,-9.787497,-0.134075,1.417367,-0.213623,0.640869,0.213623,32.281250
30600,-9.753978,-0.148441,1.403002,-0.366211,0.762939,0.091553,32.292969
30640,-9.720459,-0.129287,1.388637,-0.030518,0.396729,-0.305176,32.294922
30680,-9.725247,-0.110133,1.398214,0.030518,-0.305176,-0.366211,32.294922
30720,-9.763555,-0.114922,1.398214,0.061035,0.244141,-0.305176,32.246094
30760,-9.758766,-0.124498,1.379060,0.061035,0.457764,-0.213623,32.277344
30800,-9.725247,-0.143652,1.369483,-0.213623,0.061035,-0.549316,32.271484
30840,-9.739613,-0.105345,1.364695,0.152588,0.305176,-0.488281,32.277344
30880,-9.730036,-0.110133,1.374272,0.091553,-0.122070,-0.457764,32.281250
30920,-9.797073,-0.119710,1.364695,0.518799,0.854492,-0.579834,32.271484
30960,-9.773131,-0.086191,1.340753,1.037598,1.251221,-0.335693,32.287109
31000,-9.715671,-0.100556,1.331176,0.854492,0.640869,-0.518799,32.281250
31040,-9.715671,-0.148441,1.350330,-0.122070,-0.640869,-0.488281,32.283203
31080,-9.763555,-0.181959,1.379060,-0.701904,0.427246,-0.549316,32.300781
31120,-9.797073,-0.134075,1.364695,-0.274658,2.227783,-0.244141,32.287109
31160,-9.739613,-0.124498,1.345541,-0.061035,1.342773,-0.152588,32.273438
31200,-9.734824,-0.124498,1.335965,-0.152588,0.579834,-0.305176,32.273438
31240,-9.730036,-0.153229,1.316811,-1.068115,-0.183105,0.030518,32.281250
31280,-9.749189,-0.177171,1.331176,-1.708984,-0.274658,0.610352,32.291016
31320,-9.777920,-0.148441,1.326388,-1.678467,0.885010,0.915527,32.287109
31360,-9.773131,-0.095768,1.302446,-1.068115,1.983643,1.129150,32.298828
31400,-9.758766,-0.038307,1.297657,0.335693,2.136230,0.671387,32.279297
31440,-9.734824,-0.047884,1.283292,1.190186,0.488281,-0.061035,32.308594
31480,-9.734824,-0.095768,1.283292,1.342773,-0.061035,-0.152588,32.296875
31520,-9.758766,-0.129287,1.302446,1.190186,0.305176,-0.122070,32.277344
31560,-9.777920,-0.162806,1.316811,0.946045,0.976562,-0.244141,32.281250
31600,-9.734824,-0.143652,1.312023,0.793457,-0.152588,-0.549316,32.291016
31640,-9.739613,-0.138864,1.292869,0.366211,-1.190186,-0.793457,32.302734
31680,-9.753978,-0.129287,1.283292,0.518799,-0.854492,-0.671387,32.294922
31720,-9.753978,-0.124498,1.283292,0.305176,-0.976562,-0.610352,32.279297
31760,-9.792285,-0.153229,1.307234,-0.274658,0.122070,-0.366211,32.271484
31800,-9.777920,-0.158017,1.316811,-0.701904,0.610352,-0.213623,32.300781
31840,-9.744401,-0.153229,1.302446,-1.220703,0.579834,-0.122070,32.292969
31880,-9.773131,-0.119710,1.283292,-1.281738,0.762939,-0.152588,32.296875
31920,-9.758766,-0.090980,1.278504,-0.793457,0.762939,-0.183105,32.281250
31960,-9.763555,-0.067038,1.273715,-0.152588,0.671387,0.000000,32.294922
32000,-9.773131,-0.090980,1.268927,0.000000,1.403809,0.213623,32.314453
32040,-9.763555,-0.119710,1.268927,-0.030518,1.800537,0.579834,32.294922
32080,-9.753978,-0.148441,1.254562,-0.274658,1.983643,0.457764,32.285156
32120,-9.753978,-0.153229,1.259350,-0.701904,1.281738,0.457764,32.294922
32160,-9.753978,-0.138864,1.254562,-0.701904,0.457764,0.213623,32.302734
32200,-9.782708,-0.100556,1.235408,-0.366211,1.831055,0.152588,32.287109
32240,-9.811439,-0.081403,1.211466,-0.305176,2.227783,0.366211,32.298828
32280,-9.749189,-0.076614,1.197101,0.091553,1.403809,0.213623,32.294922
32320,-9.734824,-0.081403,1.192312,0.457764,0.457764,0.030518,32.314453
32360,-9.773131,-0.100556,1.187524,0.030518,0.183105,-0.183105,32.285156
32400,-9.792285,-0.110133,1.182736,0.122070,0.793457,-0.244141,32.296875
32440,-9.777920,-0.086191,1.173159,0.488281,1.403809,-0.152588,32.300781
32480,-9.782708,-0.105345,1.158794,0.152588,1.159668,-0.396729,32.320312
32520,-9.777920,-0.114922,1.168370,-0.244141,0.701904,-0.610352,32.345703
32560,-9.768343,-0.105345,1.163582,-0.335693,0.946045,-0.305176,32.322266
32600,-9.777920,-0.100556,1.139640,-0.640869,0.610352,-0.579834,32.333984
32640,-9.749189,-0.124498,1.139640,-0.885010,-0.915527,-0.946045,32.339844
32680,-9.734824,-0.119710,1.154005,-0.762939,-1.586914,-0.823975,32.326172
32720,-9.773131,-0.100556,1.168370,-0.549316,-0.885010,-0.732422,32.326172
32760,-9.787497,-0.090980,1.173159,-0.610352,-0.823975,-0.579834,32.335938
32800,-9.787497,-0.095768,1.173159,-0.610352,-0.427246,-0.152588,32.316406
32840,-9.792285,-0.119710,1.182736,-0.366211,0.000000,-0.457764,32.339844
32880,-9.763555,-0.119710,1.182736,-0.030518,-0.640869,-0.885010,32.339844
32920,-9.763555,-0.124498,1.177947,0.457764,-0.671387,-1.007080,32.369141
32960,-9.777920,-0.090980,1.192312,1.068115,-0.396729,-0.823975,32.353516
33000,-9.773131,-0.071826,1.211466,1.556396,-0.396729,-0.610352,32.345703
33040,-9.744401,-0.114922,1.201889,1.373291,-1.983643,0.061035,32.349609
33080,-9.753978,-0.191536,1.221043,0.305176,-1.495361,0.274658,32.318359
33120,-9.806650,-0.205901,1.216254,-0.396729,-0.732422,0.030518,32.351562
33160,-9.758766,-0.129287,1.221043,-0.366211,-1.708984,0.122070,32.349609
33200,-9.749189,-0.138864,1.216254,-0.701904,-2.563477,0.366211,32.328125
33240,-9.782708,-0.191536,1.244985,-1.922607,-2.258301,0.213623,32.335938
33280,-9.797073,-0.201113,1.273715,-1.831055,-0.610352,-0.274658,32.330078
33320,-9.763555,-0.138864,1.268927,-1.281738,-0.335693,-0.488281,32.324219
33360,-9.734824,-0.110133,1.268927,-0.946045,-1.220703,-0.793457,32.306641
33400,-9.763555,-0.086191,1.273715,-0.366211,-1.129150,-0.885010,32.333984
33440,-9.773131,-0.090980,1.292869,0.030518,-0.885010,-1.129150,32.343750
33480,-9.768343,-0.119710,1.278504,0.213623,-1.190186,-0.976562,32.355469
33520,-9.739613,-0.143652,1.278504,0.457764,-1.037598,0.030518,32.353516
33560,-9.773131,-0.124498,1.292869,0.549316,0.183105,0.030518,32.333984
33600,-9.777920,-0.148441,1.312023,0.152588,0.122070,0.732422,32.333984
33640,-9.768343,-0.181959,1.326388,-0.427246,0.823975,0.732422,32.335938
33680,-9.758766,-0.172383,1.302446,-0.366211,0.610352,0.335693,32.341797
33720,-9.715671,-0.167594,1.302446,-0.762939,-0.610352,-0.091553,32.332031
33760,-9.739613,-0.105345,1.292869,0.122070,-0.671387,-0.427246,32.332031
33800,-9.768343,-0.071826,1.288081,0.915527,-0.274658,-0.549316,32.351562
33840,-9.768343,-0.124498,1.297657,0.488281,-0.549316,-0.488281,32.345703
33880,-9.787497,-0.134075,1.292869,0.518799,0.396729,-0.610352,32.345703
33920,-9.773131,-0.153229,1.292869,0.305176,0.518799,-0.335693,32.367188
33960,-9.739613,-0.143652,1.307234,0.488281,0.427246,-0.366211,32.347656
34000,-9.749189,-0.134075,1.326388,0.091553,-0.244141,-0.335693,32.343750
34040,-9.768343,-0.167594,1.316811,-0.732422,0.122070,0.061035,32.353516
34080,-9.753978,-0.148441,1.302446,-1.129150,0.122070,-0.030518,32.357422
34120,-9.739613,-0.143652,1.302446,-1.098633,-0.366211,0.091553,32.324219
34160,-9.753978,-0.129287,1.321599,-0.732422,-0.061035,0.061035,32.345703
34200,-9.758766,-0.110133,1.321599,-0.671387,-0.427246,-0.091553,32.353516
34240,-9.739613,-0.124498,1.292869,-0.579834,-0.762939,-0.030518,32.339844
34280,-9.739613,-0.124498,1.302446,-0.305176,-0.793457,0.000000,32.339844
34320,-9.777920,-0.110133,1.302446,-0.122070,-0.061035,0.091553,32.343750
34360,-9.763555,-0.105345,1.302446,0.122070,-0.152588,0.152588,32.369141
34400,-9.749189,-0.124498,1.312023,0.610352,0.274658,0.152588,32.355469
34440,-9.782708,-0.129287,1.312023,0.671387,1.007080,0.152588,32.351562
34480,-9.744401,-0.129287,1.312023,0.732422,0.518799,-0.122070,32.380859
34520,-9.734824,-0.124498,1.312023,0.701904,-0.122070,-0.152588,32.373047
34560,-9.758766,-0.138864,1.307234,0.396729,-0.091553,-0.122070,32.396484
34600,-9.753978,-0.158017,1.297657,0.213623,-0.030518,-0.183105,32.384766
34640,-9.763555,-0.124498,1.297657,0.427246,0.366211,0.030518,32.363281
34680,-9.768343,-0.119710,1.288081,0.488281,0.976562,0.091553,32.376953
34720,-9.787497,-0.119710,1.283292,0.213623,1.251221,-0.061035,32.396484
34760,-9.768343,-0.134075,1.278504,0.000000,1.831055,0.274658,32.380859
34800,-9.749189,-0.124498,1.278504,-0.152588,1.922607,0.366211,32.386719
34840,-9.773131,-0.110133,1.259350,-0.427246,1.342773,0.000000,32.378906
34880,-9.773131,-0.086191,1.235408,0.030518,1.281738,0.061035,32.371094
34920,-9.753978,-0.086191,1.235408,0.366211,0.946045,0.030518,32.373047
34960,-9.768343,-0.105345,1.235408,0.152588,0.823975,-0.183105,32.382812
35000,-9.749189,-0.100556,1.225831,0.091553,0.549316,-0.091553,32.382812
35040,-9.753978,-0.110133,1.240196,-0.152588,0.396729,0.030518,32.376953
35080,-9.768343,-0.153229,1.225831,-0.701904,0.030518,-0.152588,32.378906
35120,-9.763555,-0.134075,1.216254,-0.885010,0.549316,0.030518,32.375000
35160,-9.782708,-0.100556,1.221043,-0.946045,1.525879,0.274658,32.373047
35200,-9.782708,-0.100556,1.206678,-0.915527,1.312256,0.091553,32.392578
35240,-9.753978,-0.067038,1.197101,-0.213623,0.671387,-0.061035,32.398438
35280,-9.758766,-0.062249,1.187524,0.061035,0.061035,0.213623,32.388672
35320,-9.777920,-0.076614,1.206678,-0.030518,0.885010,0.335693,32.408203
35360,-9.811439,-0.086191,1.206678,-0.091553,1.464844,0.213623,32.382812
35400,-9.768343,-0.067038,1.177947,0.793457,1.403809,0.427246,32.378906
35440,-9.758766,-0.086191,1.144428,0.885010,1.129150,0.244141,32.419922
35480,-9.787497,-0.086191,1.139640,0.518799,1.098633,-0.030518,32.404297
35520,-9.787497,-0.062249,1.144428,0.549316,1.129150,0.091553,32.384766
35560,-9.797073,-0.062249,1.120486,0.000000,1.464844,0.366211,32.400391
35600,-9.768343,-0.095768,1.110910,-0.396729,0.976562,0.549316,32.390625
35640,-9.753978,-0.105345,1.101333,-0.762939,0.701904,0.518799,32.402344
35680,-9.768343,-0.086191,1.096544,-0.793457,0.579834,0.061035,32.378906
35720,-9.763555,-0.071826,1.086968,-0.762939,-0.152588,-0.396729,32.400391
35760,-9.782708,-0.052672,1.082179,-0.457764,-0.244141,-0.640869,32.378906
35800,-9.782708,-0.052672,1.096544,-0.274658,-0.427246,-0.671387,32.388672
35840,-9.768343,-0.047884,1.101333,-0.183105,-0.946045,-0.854492,32.390625
35880,-9.777920,-0.052672,1.106121,-0.091553,-1.007080,-0.793457,32.390625
35920,-9.782708,-0.067038,1.125275,-0.305176,-0.823975,-0.762939,32.394531
35960,-9.787497,-0.067038,1.139640,-0.061035,-0.854492,-0.671387,32.371094
36000,-9.797073,-0.057461,1.154005,-0.030518,-0.885010,-1.098633,32.394531
36040,-9.777920,-0.052672,1.144428,0.518799,-0.366211,-1.281738,32.402344
36080,-9.753978,-0.057461,1.158794,1.007080,-0.946045,-0.854492,32.414062
36120,-9.763555,-0.067038,1.154005,1.403809,-0.915527,-0.762939,32.392578
36160,-9.777920,-0.071826,1.163582,1.525879,-0.915527,-0.396729,32.402344
36200,-9.777920,-0.124498,1.158794,0.732422,-1.007080,-0.183105,32.416016
36240,-9.773131,-0.162806,1.177947,-0.335693,-0.671387,0.213623,32.375000
36280,-9.792285,-0.153229,1.192312,-0.885010,-0.183105,0.244141,32.402344
36320,-9.782708,-0.119710,1.187524,-1.068115,-0.183105,0.122070,32.402344
36360,-9.758766,-0.119710,1.173159,-1.190186,-0.976562,-0.274658,32.382812
36400,-9.777920,-0.100556,1.163582,-0.976562,-0.885010,-0.152588,32.396484
36440,-9.782708,-0.090980,1.177947,-0.976562,-0.671387,-0.305176,32.433594
36480,-9.773131,-0.095768,1.187524,-1.098633,-1.098633,-0.427246,32.425781
36520,-9.787497,-0.114922,1.192312,-0.823975,-0.488281,-0.274658,32.404297
36560,-9.773131,-0.110133,1.187524,-0.610352,0.152588,-0.152588,32.406250
36600,-9.768343,-0.086191,1.201889,-0.457764,-0.488281,-0.305176,32.425781
36640,-9.768343,-0.095768,1.201889,-0.274658,-0.640869,-0.366211,32.433594
36680,-9.773131,-0.110133,1.201889,-0.183105,-0.915527,-0.427246,32.410156
36720,-9.763555,-0.119710,1.206678,0.000000,-0.885010,-0.366211,32.419922
36760,-9.773131,-0.100556,1.225831,0.244141,-0.061035,-0.488281,32.408203
36800,-9.777920,-0.086191,1.225831,0.518799,-0.274658,-0.335693,32.445312
36840,-9.773131,-0.119710,1.221043,0.244141,-0.183105,-0.183105,32.433594
36880,-9.768343,-0.119710,1.201889,0.579834,0.488281,-0.244141,32.416016
36920,-9.749189,-0.086191,1.216254,0.976562,-0.518799,-0.488281,32.427734
36960,-9.763555,-0.119710,1.216254,0.671387,-0.854492,-0.640869,32.421875
37000,-9.768343,-0.162806,1.230620,-0.183105,-1.129150,-0.579834,32.419922
37040,-9.753978,-0.177171,1.244985,-0.793457,-0.976562,-0.366211,32.447266
37080,-9.773131,-0.138864,1.249773,-0.885010,-0.152588,-0.366211,32.443359
37120,-9.782708,-0.105345,1.235408,-0.823975,-0.305176,-0.091553,32.437500
37160,-9.758766,-0.110133,1.235408,-0.671387,-0.335693,-0.030518,32.431641
37200,-9.758766,-0.119710,1.235408,-0.549316,-0.061035,-0.152588,32.437500
37240,-9.753978,-0.105345,1.240196,-0.244141,-0.213623,-0.274658,32.437500
37280,-9.777920,-0.100556,1.240196,0.000000,-0.061035,-0.152588,32.437500
37320,-9.768343,-0.114922,1.244985,0.122070,0.427246,-0.091553,32.427734
37360,-9.758766,-0.114922,1.249773,0.213623,0.000000,-0.305176,32.431641
37400,-9.768343,-0.124498,1.240196,0.518799,0.030518,-0.305176,32.439453
37440,-9.773131,-0.114922,1.240196,0.488281,0.030518,-0.244141,32.433594
37480,-9.763555,-0.129287,1.249773,0.274658,-0.152588,-0.305176,32.443359
37520,-9.758766,-0.148441,1.235408,-0.061035,-0.518799,-0.274658,32.441406
37560,-9.763555,-0.129287,1.240196,0.122070,-0.122070,-0.274658,32.423828
37600,-9.763555,-0.119710,1.259350,-0.030518,-0.701904,-0.244141,32.437500
37640,-9.768343,-0.162806,1.273715,-0.671387,-1.068115,-0.335693,32.441406
37680,-9.763555,-0.148441,1.264138,-0.396729,-0.122070,-0.122070,32.447266
37720,-9.797073,-0.134075,1.292869,-0.091553,1.403809,0.335693,32.441406
37760,-9.825804,-0.124498,1.355118,0.030518,2.655029,0.946045,32.441406
37800,-9.696517,-0.090980,1.254562,0.213623,2.990723,1.129150,32.445312
37840,-9.715671,-0.110133,1.163582,-0.518799,1.647949,0.549316,32.449219
37880,-9.787497,-0.134075,1.221043,-0.915527,-0.396729,-0.030518,32.445312
37920,-9.768343,-0.081403,1.173159,-0.366211,-1.251221,-0.335693,32.441406
37960,-9.753978,-0.067038,1.149217,0.183105,-0.915527,-0.579834,32.433594
38000,-9.730036,-0.134075,1.201889,-0.183105,-2.258301,-1.098633,32.447266
38040,-9.787497,-0.148441,1.225831,-0.427246,-2.563477,-1.220703,32.443359
38080,-9.797073,-0.100556,1.264138,-0.305176,-1.464844,-0.671387,32.455078
38120,-9.730036,-0.090980,1.264138,-0.122070,-0.823975,-0.305176,32.447266
38160,-9.763555,-0.129287,1.249773,-0.396729,0.610352,0.030518,32.447266
38200,-9.787497,-0.138864,1.288081,-0.183105,0.915527,0.091553,32.445312
38240,-9.763555,-0.105345,1.273715,0.091553,0.427246,0.030518,32.451172
38280,-9.782708,-0.086191,1.240196,0.457764,0.976562,0.213623,32.437500
38320,-9.749189,-0.090980,1.244985,0.457764,0.305176,-0.061035,32.447266
38360,-9.758766,-0.114922,1.249773,0.305176,0.213623,-0.030518,32.423828
38400,-9.753978,-0.124498,1.278504,0.152588,-0.244141,0.000000,32.451172
38440,-9.739613,-0.129287,1.264138,0.122070,-0.915527,-0.335693,32.464844
38480,-9.753978,-0.114922,1.249773,0.457764,-0.915527,-0.305176,32.458984
38520,-9.773131,-0.110133,1.230620,0.213623,-0.579834,-0.183105,32.466797
38560,-9.768343,-0.114922,1.254562,-0.244141,-0.549316,-0.305176,32.470703
38600,-9.777920,-0.134075,1.268927,-0.488281,-0.518799,-0.305176,32.501953
38640,-9.787497,-0.119710,1.254562,-0.518799,0.305176,0.030518,32.466797
38680,-9.758766,-0.105345,1.235408,-0.610352,-0.061035,-0.152588,32.468750
38720,-9.763555,-0.110133,1.254562,-0.366211,0.183105,-0.122070,32.458984
38760,-9.773131,-0.100556,1.264138,-0.335693,0.122070,-0.122070,32.501953
38800,-9.758766,-0.114922,1.264138,-0.701904,-0.030518,-0.091553,32.476562
38840,-9.749189,-0.129287,1.268927,-0.946045,0.000000,0.183105,32.470703
38880,-9.777920,-0.124498,1.259350,-0.610352,0.915527,0.610352,32.458984
38920,-9.744401,-0.076614,1.254562,0.061035,0.823975,0.335693,32.486328
38960,-9.744401,-0.052672,1.254562,0.732422,0.213623,-0.335693,32.490234
39000,-9.773131,-0.057461,1.244985,1.037598,0.183105,-0.427246,32.484375
39040,-9.758766,-0.100556,1.259350,0.976562,-0.244141,-0.305176,32.484375
39080,-9.773131,-0.138864,1.254562,0.457764,0.061035,-0.091553,32.474609
39120,-9.792285,-0.134075,1.254562,0.061035,0.610352,-0.122070,32.478516
39160,-9.763555,-0.090980,1.244985,0.305176,0.488281,-0.244141,32.476562
39200,-9.725247,-0.095768,1.249773,0.335693,-0.213623,-0.244141,32.480469
39240,-9.758766,-0.124498,1.244985,-0.183105,-0.488281,-0.396729,32.464844
39280,-9.777920,-0.095768,1.235408,-0.122070,0.030518,-0.152588,32.476562
39320,-9.768343,-0.086191,1.230620,0.000000,0.030518,-0.091553,32.464844
39360,-9.787497,-0.105345,1.230620,-0.335693,0.518799,-0.244141,32.474609
39400,-9.787497,-0.105345,1.221043,-0.610352,0.823975,-0.122070,32.470703
39440,-9.749189,-0.095768,1.221043,-0.671387,0.579834,-0.061035,32.470703
39480,-9.753978,-0.095768,1.225831,-0.854492,0.122070,-0.122070,32.470703
39520,-9.797073,-0.100556,1.244985,-0.549316,1.373291,-0.183105,32.470703
39560,-9.777920,-0.086191,1.235408,-0.305176,1.525879,-0.122070,32.484375
39600,-9.749189,-0.100556,1.197101,-0.488281,0.762939,-0.244141,32.476562
39640,-9.763555,-0.105345,1.177947,-0.549316,0.793457,-0.213623,32.474609
39680,-9.768343,-0.081403,1.197101,-0.366211,0.946045,-0.305176,32.498047
39720,-9.768343,-0.067038,1.192312,-0.274658,0.335693,-0.335693,32.498047
39760,-9.758766,-0.095768,1.173159,-0.335693,0.030518,-0.244141,32.486328
39800,-9.768343,-0.119710,1.173159,-0.671387,0.213623,-0.061035,32.494141
39840,-9.773131,-0.110133,1.182736,-0.671387,0.213623,-0.274658,32.484375
39880,-9.792285,-0.105345,1.168370,-0.793457,0.396729,-0.122070,32.474609
39920,-9.773131,-0.095768,1.163582,-0.946045,-0.366211,0.000000,32.492188
39960,-9.734824,-0.086191,1.173159,-0.610352,-1.159668,-0.274658,32.474609
40000,-9.777920,-0.081403,1.187524,-0.549316,-1.129150,-0.213623,32.505859
40040,-9.777920,-0.119710,1.201889,-1.037598,-1.770020,-0.030518,32.490234
40080,-9.777920,-0.138864,1.197101,-1.007080,-0.640869,-0.030518,32.496094
40120,-9.777920,-0.110133,1.187524,-0.793457,-0.213623,0.061035,32.500000
40160,-9.792285,-0.110133,1.168370,-0.732422,0.183105,0.000000,32.478516
40200,-9.768343,-0.100556,1.197101,-0.427246,0.152588,-0.183105,32.486328
40240,-9.768343,-0.124498,1.197101,-0.610352,0.488281,-0.183105,32.474609
40280,-9.773131,-0.119710,1.192312,-0.610352,0.762939,-0.396729,32.500000
40320,-9.773131,-0.090980,1.192312,-0.061035,0.701904,-0.488281,32.492188
40360,-9.801862,-0.076614,1.197101,0.976562,2.258301,-0.335693,32.476562
40400,-9.773131,-0.057461,1.168370,1.586914,1.800537,-0.213623,32.513672
40440,-9.744401,-0.076614,1.144428,1.373291,0.640869,-0.061035,32.529297
40480,-9.773131,-0.110133,1.149217,1.068115,0.274658,-0.061035,32.515625
40520,-9.801862,-0.119710,1.154005,0.885010,0.976562,0.000000,32.523438
40560,-9.792285,-0.119710,1.139640,0.854492,1.312256,0.061035,32.515625
40600,-9.749189,-0.119710,1.144428,0.762939,0.518799,-0.061035,32.529297
40640,-9.773131,-0.119710,1.125275,0.305176,-0.061035,-0.061035,32.515625
40680,-9.797073,-0.114922,1.110910,-0.061035,0.671387,0.061035,32.519531
40720,-9.792285,-0.119710,1.125275,-0.396729,0.915527,0.091553,32.529297
40760,-9.797073,-0.129287,1.139640,-0.549316,0.854492,-0.061035,32.515625
40800,-9.787497,-0.114922,1.120486,-0.854492,0.762939,-0.061035,32.513672
40840,-9.758766,-0.114922,1.110910,-1.037598,-0.396729,0.000000,32.515625
40880,-9.768343,-0.119710,1.125275,-1.434326,-0.579834,-0.152588,32.542969
40920,-9.782708,-0.067038,1.110910,-1.037598,-0.854492,-0.274658,32.521484
40960,-9.773131,-0.052672,1.086968,-0.793457,-0.946045,-0.274658,32.535156
41000,-9.777920,-0.081403,1.110910,-0.762939,-0.885010,-0.427246,32.515625
41040,-9.806650,-0.095768,1.130063,-0.579834,-0.091553,-0.244141,32.527344
41080,-9.792285,-0.081403,1.130063,-0.305176,0.366211,0.061035,32.509766
41120,-9.758766,-0.086191,1.149217,-0.091553,0.152588,0.183105,32.533203
41160,-9.758766,-0.090980,1.168370,-0.030518,-0.335693,-0.183105,32.517578
41200,-9.773131,-0.076614,1.173159,0.091553,-0.885010,-0.427246,32.535156
41240,-9.763555,-0.095768,1.177947,-0.091553,-1.495361,-0.366211,32.542969
41280,-9.782708,-0.100556,1.177947,-0.030518,-1.068115,-0.091553,32.541016
41320,-9.792285,-0.105345,1.187524,0.030518,-0.976562,-0.244141,32.525391
41360,-9.768343,-0.095768,1.182736,0.091553,-1.007080,-0.488281,32.521484
41400,-9.749189,-0.086191,1.182736,0.183105,-1.922607,-0.640869,32.513672
41440,-9.777920,-0.114922,1.187524,-0.122070,-1.831055,-0.640869,32.539062
41480,-9.792285,-0.114922,1.197101,-0.274658,-1.129150,-0.549316,32.558594
41520,-9.782708,-0.124498,1.206678,-0.457764,-0.854492,-0.488281,32.539062
41560,-9.768343,-0.114922,1.201889,-0.366211,-0.671387,-0.366211,32.513672
41600,-9.782708,-0.086191,1.206678,-0.152588,-0.488281,-0.366211,32.542969
41640,-9.758766,-0.090980,1.221043,-0.122070,-0.854492,-0.488281,32.535156
41680,-9.763555,-0.124498,1.216254,-0.152588,-0.640869,-0.213623,32.533203
41720,-9.758766,-0.114922,1.230620,-0.213623,-0.823975,-0.091553,32.527344
41760,-9.768343,-0.138864,1.235408,-0.579834,-0.885010,-0.183105,32.537109
41800,-9.777920,-0.148441,1.254562,-0.732422,-0.244141,-0.183105,32.535156
41840,-9.777920,-0.138864,1.254562,-0.915527,0.518799,0.030518,32.552734
41880,-9.758766,-0.124498,1.249773,-0.762939,0.366211,0.152588,32.527344
41920,-9.739613,-0.114922,1.235408,-0.579834,-0.061035,-0.030518,32.515625
41960,-9.749189,-0.100556,1.240196,-0.122070,-0.396729,-0.335693,32.513672
42000,-9.773131,-0.086191,1.240196,0.335693,-0.366211,-0.457764,32.552734
42040,-9.763555,-0.086191,1.240196,0.823975,-0.213623,-0.549316,32.525391
42080,-9.777920,-0.090980,1.230620,0.946045,0.213623,-0.274658,32.535156
42120,-9.782708,-0.119710,1.235408,0.732422,0.061035,-0.366211,32.539062
42160,-9.763555,-0.134075,1.244985,0.579834,-0.366211,-0.427246,32.550781
42200,-9.758766,-0.124498,1.230620,0.579834,-0.457764,-0.366211,32.521484
42240,-9.768343,-0.119710,1.240196,0.335693,-0.488281,-0.305176,32.544922
42280,-9.758766,-0.138864,1.244985,-0.061035,-0.183105,-0.366211,32.521484
42320,-9.763555,-0.143652,1.244985,-0.366211,-0.396729,-0.366211,32.541016
42360,-9.773131,-0.119710,1.244985,-0.366211,-0.244141,-0.213623,32.539062
42400,-9.773131,-0.100556,1.249773,-0.244141,-0.091553,-0.122070,32.554688
42440,-9.777920,-0.124498,1.244985,-0.793457,-0.061035,0.000000,32.558594
42480,-9.749189,-0.110133,1.235408,-0.732422,-0.335693,0.030518,32.554688
42520,-9.749189,-0.114922,1.230620,-0.793457,-0.854492,0.091553,32.582031
42560,-9.768343,-0.143652,1.264138,-0.976562,-0.549316,-0.152588,32.564453
42600,-9.773131,-0.124498,1.288081,-0.671387,0.122070,-0.274658,32.562500
42640,-9.768343,-0.110133,1.264138,-0.793457,0.183105,0.061035,32.570312
42680,-9.734824,-0.110133,1.254562,-0.579834,-0.152588,-0.152588,32.556641
42720,-9.734824,-0.095768,1.268927,-0.122070,-0.488281,-0.305176,32.558594
42760,-9.782708,-0.081403,1.259350,0.305176,-0.183105,-0.061035,32.566406
42800,-9.777920,-0.110133,1.244985,0.396729,0.274658,-0.183105,32.548828
42840,-9.753978,-0.124498,1.254562,0.549316,0.305176,-0.274658,32.560547
42880,-9.768343,-0.124498,1.259350,0.549316,0.366211,-0.122070,32.552734
42920,-9.777920,-0.119710,1.254562,0.610352,0.823975,-0.061035,32.558594
42960,-9.768343,-0.124498,1.254562,0.579834,0.762939,-0.061035,32.550781
43000,-9.763555,-0.143652,1.249773,0.457764,0.701904,0.030518,32.556641
43040,-9.773131,-0.134075,1.230620,0.305176,1.373291,0.152588,32.574219
43080,-9.773131,-0.119710,1.235408,0.122070,1.220703,0.152588,32.572266
43120,-9.758766,-0.129287,1.240196,0.091553,0.854492,0.091553,32.568359
43160,-9.773131,-0.114922,1.230620,-0.061035,0.457764,0.152588,32.566406
43200,-9.758766,-0.119710,1.225831,-0.335693,0.457764,0.183105,32.562500
43240,-9.749189,-0.129287,1.201889,-0.671387,0.091553,-0.030518,32.585938
43280,-9.768343,-0.086191,1.211466,-0.274658,-0.457764,0.091553,32.578125
43320,-9.792285,-0.100556,1.201889,-0.335693,0.274658,0.122070,32.566406
43360,-9.773131,-0.100556,1.197101,-0.610352,0.579834,0.061035,32.568359
43400,-9.773131,-0.105345,1.187524,-0.793457,0.793457,0.274658,32.562500
43440,-9.763555,-0.086191,1.177947,-0.854492,0.518799,0.335693,32.556641
43480,-9.777920,-0.062249,1.173159,-0.762939,0.488281,0.366211,32.560547
43520,-9.782708,-0.062249,1.173159,-0.518799,0.976562,0.457764,32.558594
43560,-9.768343,-0.081403,1.182736,-0.396729,0.518799,0.396729,32.572266
43600,-9.768343,-0.090980,1.173159,-0.610352,-0.091553,0.213623,32.585938
43640,-9.777920,-0.086191,1.182736,-0.335693,0.854492,0.213623,32.576172
43680,-9.773131,-0.067038,1.182736,0.030518,1.342773,0.000000,32.578125
43720,-9.787497,-0.052672,1.168370,0.671387,1.647949,-0.122070,32.576172
43760,-9.792285,-0.062249,1.158794,1.312256,2.563477,0.122070,32.595703
43800,-9.787497,-0.062249,1.139640,1.098633,2.563477,-0.122070,32.585938
43840,-9.739613,-0.081403,1.110910,0.274658,0.030518,-0.335693,32.591797
43880,-9.744401,-0.129287,1.115698,-0.457764,-1.037598,-0.335693,32.593750
43920,-9.806650,-0.100556,1.125275,-0.579834,-0.030518,-0.366211,32.564453
43960,-9.787497,-0.057461,1.110910,-0.793457,-0.213623,-0.335693,32.566406
44000,-9.753978,-0.071826,1.110910,-0.335693,-1.190186,-0.457764,32.599609
44040,-9.773131,-0.023942,1.091756,0.122070,-1.129150,-0.427246,32.582031
44080,-9.792285,-0.023942,1.086968,0.030518,-0.762939,-0.427246,32.572266
44120,-9.792285,-0.076614,1.120486,-0.091553,-0.396729,-0.579834,32.585938
44160,-9.801862,-0.081403,1.125275,-0.030518,0.335693,-0.427246,32.595703
44200,-9.787497,-0.067038,1.125275,-0.030518,0.915527,-0.427246,32.591797
44240,-9.758766,-0.071826,1.134852,-0.122070,-0.335693,-0.701904,32.589844
44280,-9.763555,-0.076614,1.154005,-0.061035,-1.159668,-0.579834,32.591797
44320,-9.768343,-0.090980,1.177947,-0.183105,-1.312256,-0.122070,32.576172
44360,-9.777920,-0.095768,1.173159,-0.183105,-0.976562,0.061035,32.617188
44400,-9.773131,-0.095768,1.168370,-0.244141,-0.610352,0.091553,32.605469
44440,-9.787497,-0.090980,1.173159,0.305176,-0.671387,-0.244141,32.617188
44480,-9.782708,-0.076614,1.168370,0.793457,-0.366211,-0.549316,32.621094
44520,-9.797073,-0.100556,1.168370,0.854492,0.366211,-0.488281,32.617188
44560,-9.734824,-0.110133,1.158794,0.366211,-1.525879,-0.610352,32.595703
44600,-9.753978,-0.143652,1.163582,-0.701904,-1.953125,-0.396729,32.601562
44640,-9.816227,-0.124498,1.182736,-0.915527,-0.305176,-0.488281,32.615234
44680,-9.797073,-0.100556,1.192312,-0.854492,-0.457764,-0.366211,32.634766
44720,-9.744401,-0.105345,1.197101,-0.762939,-1.312256,-0.610352,32.623047
44760,-9.758766,-0.086191,1.197101,-0.183105,-1.007080,-0.793457,32.613281
44800,-9.768343,-0.081403,1.206678,0.396729,-1.556396,-0.274658,32.626953
44840,-9.773131,-0.124498,1.225831,0.152588,-0.579834,-0.366211,32.628906
44880,-9.801862,-0.124498,1.235408,-0.061035,0.457764,-0.701904,32.613281
44920,-9.768343,-0.095768,1.216254,0.061035,0.152588,-0.305176,32.625000
44960,-9.730036,-0.105345,1.216254,-0.335693,-0.885010,-0.122070,32.617188
45000,-9.739613,-0.138864,1.216254,-0.762939,-1.556396,-0.274658,32.615234
45040,-9.777920,-0.110133,1.244985,-0.457764,-0.976562,-0.671387,32.619141
45080,-9.811439,-0.090980,1.249773,0.396729,-0.061035,-0.854492,32.625000
45120,-9.768343,-0.100556,1.240196,0.885010,-0.122070,-0.793457,32.632812
45160,-9.749189,-0.100556,1.235408,1.403809,0.030518,-0.244141,32.625000
45200,-9.758766,-0.119710,1.235408,0.915527,0.183105,-0.244141,32.625000
45240,-9.749189,-0.153229,1.235408,-0.335693,-1.251221,-0.183105,32.634766
45280,-9.753978,-0.181959,1.259350,-0.976562,-0.976562,0.183105,32.621094
45320,-9.777920,-0.138864,1.273715,-0.793457,0.274658,-0.061035,32.623047
45360,-9.787497,-0.086191,1.259350,-0.610352,-0.244141,-0.061035,32.630859
45400,-9.744401,-0.105345,1.259350,-0.305176,-0.854492,-0.152588,32.603516
45440,-9.753978,-0.114922,1.264138,-0.091553,-1.403809,-0.213623,32.626953
45480,-9.763555,-0.129287,1.278504,-0.305176,-1.190186,-0.244141,32.628906
45520,-9.777920,-0.138864,1.278504,-0.396729,-0.579834,-0.244141,32.636719
45560,-9.763555,-0.119710,1.273715,-0.152588,-0.762939,-0.244141,32.634766
45600,-9.763555,-0.124498,1.273715,-0.213623,-0.854492,-0.640869,32.640625
45640,-9.744401,-0.110133,1.292869,0.305176,-1.098633,-0.823975,32.636719
45680,-9.753978,-0.100556,1.302446,0.427246,-0.793457,-0.701904,32.646484
45720,-9.753978,-0.090980,1.307234,0.488281,-0.579834,-0.579834,32.623047
45760,-9.768343,-0.124498,1.307234,0.488281,-0.640869,-0.793457,32.619141
45800,-9.763555,-0.143652,1.302446,0.640869,-0.335693,-0.579834,32.615234
45840,-9.753978,-0.162806,1.302446,0.122070,-0.152588,-0.518799,32.646484
45880,-9.773131,-0.167594,1.297657,-0.183105,0.579834,-0.335693,32.644531
45920,-9.777920,-0.138864,1.302446,-0.305176,0.976562,-0.091553,32.652344
45960,-9.739613,-0.148441,1.302446,-0.701904,0.366211,-0.091553,32.636719
46000,-9.730036,-0.153229,1.312023,-0.793457,-0.122070,0.030518,32.626953
46040,-9.749189,-0.138864,1.316811,-0.579834,-0.152588,-0.091553,32.644531
46080,-9.758766,-0.153229,1.312023,-0.976562,-0.427246,0.000000,32.609375
46120,-9.773131,-0.196325,1.331176,-1.556396,0.335693,0.579834,32.640625
46160,-9.777920,-0.124498,1.331176,-0.396729,1.922607,0.640869,32.634766
46200,-9.763555,-0.067038,1.292869,-0.305176,1.251221,0.762939,32.638672
46240,-9.744401,-0.114922,1.268927,-0.549316,0.701904,1.098633,32.630859
46280,-9.773131,-0.143652,1.278504,-0.793457,0.549316,0.976562,32.640625
46320,-9.801862,-0.100556,1.268927,-0.274658,2.014160,0.854492,32.621094
46360,-9.763555,-0.095768,1.249773,0.427246,1.953125,0.335693,32.681641
46400,-9.758766,-0.100556,1.244985,0.885010,2.502441,0.061035,32.656250
46440,-9.797073,-0.105345,1.240196,1.800537,3.234863,0.000000,32.677734
46480,-9.763555,-0.090980,1.197101,1.739502,2.929688,0.030518,32.646484
46520,-9.734824,-0.095768,1.168370,0.732422,1.342773,0.030518,32.664062
46560,-9.773131,-0.105345,1.168370,0.488281,1.098633,0.000000,32.654297
46600,-9.782708,-0.110133,1.173159,0.152588,0.610352,-0.030518,32.652344
46640,-9.763555,-0.110133,1.154005,-0.213623,0.427246,0.122070,32.667969
46680,-9.753978,-0.100556,1.144428,-0.579834,0.030518,0.000000,32.654297
46720,-9.763555,-0.105345,1.154005,-1.007080,-0.762939,0.213623,32.656250
46760,-9.787497,-0.110133,1.158794,-1.312256,0.183105,0.000000,32.664062
46800,-9.792285,-0.090980,1.149217,-1.068115,0.305176,0.152588,32.664062
46840,-9.777920,-0.081403,1.144428,-0.885010,-0.122070,-0.061035,32.681641
46880,-9.768343,-0.057461,1.144428,-0.701904,-0.061035,-0.122070,32.658203
46920,-9.792285,-0.028730,1.149217,-0.457764,0.183105,0.091553,32.685547
46960,-9.792285,-0.047884,1.144428,-0.122070,0.640869,0.244141,32.683594
47000,-9.753978,-0.052672,1.130063,-0.061035,-0.366211,0.061035,32.673828
47040,-9.782708,-0.071826,1.149217,0.030518,-0.396729,0.122070,32.654297
47080,-9.811439,-0.057461,1.144428,0.610352,0.976562,0.335693,32.673828
47120,-9.782708,-0.047884,1.139640,0.701904,0.976562,0.122070,32.681641
47160,-9.787497,-0.052672,1.163582,0.885010,0.396729,-0.061035,32.675781
47200,-9.792285,-0.076614,1.154005,0.640869,0.457764,0.274658,32.673828
47240,-9.777920,-0.076614,1.106121,0.000000,1.007080,0.488281,32.683594
47280,-9.782708,-0.071826,1.110910,-0.396729,1.068115,0.457764,32.675781
47320,-9.806650,-0.038307,1.134852,-0.152588,1.617432,0.305176,32.662109
47360,-9.801862,-0.014365,1.120486,0.122070,1.922607,0.579834,32.664062
47400,-9.768343,-0.019154,1.101333,0.244141,2.044678,1.007080,32.669922
47440,-9.763555,-0.019154,1.082179,0.030518,1.281738,0.946045,32.667969
47480,-9.797073,-0.009577,1.063026,0.091553,1.342773,1.037598,32.673828
47520,-9.801862,0.004788,1.063026,0.274658,1.373291,1.098633,32.675781
47560,-9.806650,-0.004788,1.039083,0.366211,1.770020,0.762939,32.677734
47600,-9.825804,0.009577,1.029507,0.549316,2.136230,0.610352,32.681641
47640,-9.787497,0.000000,1.039083,0.579834,2.014160,1.098633,32.667969
47680,-9.806650,0.004788,1.039083,0.640869,2.227783,0.366211,32.673828
47720,-9.816227,0.019154,1.029507,0.640869,1.525879,0.335693,32.693359
47760,-9.773131,0.000000,1.043872,0.000000,0.549316,0.885010,32.677734
47800,-9.773131,-0.023942,1.000776,-0.366211,1.220703,0.793457,32.697266
47840,-9.777920,0.033519,0.957681,-0.366211,1.220703,0.305176,32.693359
47880,-9.792285,0.057461,0.948104,-0.152588,1.068115,-0.274658,32.685547
47920,-9.792285,0.028730,0.948104,-0.183105,0.122070,-0.274658,32.683594
47960,-9.773131,0.014365,0.919373,-0.823975,0.152588,-0.183105,32.681641
48000,-9.749189,0.023942,0.890643,-1.586914,-1.190186,-0.457764,32.677734
48040,-9.773131,0.047884,0.928950,-1.464844,-1.708984,-0.457764,32.677734
48080,-9.777920,0.057461,1.005565,-0.793457,-1.892090,-0.427246,32.679688
48120,-9.787497,0.047884,1.015141,-0.457764,-2.349854,-0.549316,32.689453
48160,-9.782708,0.043096,0.991199,-0.610352,-3.601074,-0.946045,32.699219
48200,-9.792285,0.047884,1.005565,0.366211,-2.929688,-1.037598,32.685547
48240,-9.811439,0.028730,1.039083,1.281738,-4.394531,-1.495361,32.707031
48280,-9.801862,0.038307,1.082179,1.403809,-4.028320,-1.617432,32.677734
48320,-9.801862,0.004788,1.125275,1.190186,-3.692627,-1.342773,32.722656
48360,-9.777920,-0.019154,1.158794,0.793457,-2.685547,-0.976562,32.720703
48400,-9.749189,-0.014365,1.197101,0.640869,-3.448486,-0.915527,32.730469
48440,-9.758766,-0.014365,1.216254,0.335693,-4.089355,-1.007080,32.716797
48480,-9.768343,-0.047884,1.254562,-0.061035,-5.004883,-0.976562,32.707031
48520,-9.792285,-0.086191,1.264138,-0.488281,-3.723145,-0.885010,32.712891
48560,-9.773131,-0.062249,1.264138,-0.701904,-3.234863,-0.457764,32.712891
48600,-9.763555,-0.047884,1.259350,-0.701904,-2.929688,-0.640869,32.712891
48640,-9.773131,-0.028730,1.264138,-0.885010,-2.807617,-0.854492,32.714844
48680,-9.777920,-0.047884,1.244985,-0.946045,-1.983643,-0.946045,32.716797
48720,-9.777920,-0.047884,1.211466,-1.678467,-1.464844,-1.129150,32.705078
48760,-9.749189,-0.014365,1.211466,-2.227783,-1.129150,-1.403809,32.750000
48800,-9.753978,-0.023942,1.254562,-1.525879,-0.152588,-1.007080,32.716797
48840,-9.830592,-0.014365,1.383849,-0.213623,-0.213623,-0.671387,32.742188
48880,-9.787497,-0.043096,1.403002,-0.488281,0.244141,-0.366211,32.732422
48920,-9.715671,-0.086191,1.374272,-0.640869,1.037598,-0.122070,32.718750
48960,-9.739613,-0.086191,1.335965,-0.701904,1.007080,-0.061035,32.738281
49000,-9.734824,-0.062249,1.345541,-0.366211,-0.427246,-0.396729,32.732422
49040,-9.734824,-0.057461,1.355118,-0.091553,-1.190186,-0.488281,32.708984
49080,-9.763555,-0.086191,1.359907,-0.030518,-1.220703,-0.335693,32.728516
49120,-9.782708,-0.110133,1.345541,-0.122070,-0.488281,-0.213623,32.724609
49160,-9.768343,-0.100556,1.355118,-0.152588,0.061035,-0.183105,32.728516
49200,-9.725247,-0.076614,1.374272,0.335693,-0.030518,-0.274658,32.728516
49240,-9.730036,-0.090980,1.364695,-0.030518,-1.617432,-0.244141,32.744141
49280,-9.749189,-0.134075,1.359907,-0.488281,-1.617432,-0.305176,32.718750
49320,-9.749189,-0.134075,1.388637,-0.732422,-1.251221,0.122070,32.722656
49360,-9.777920,-0.129287,1.369483,-0.701904,0.335693,0.244141,32.732422
49400,-9.763555,-0.090980,1.393425,-0.274658,-0.579834,0.091553,32.707031
49440,-9.739613,-0.062249,1.383849,0.122070,-0.213623,0.274658,32.716797
49480,-9.773131,-0.033519,1.388637,0.610352,0.915527,0.305176,32.710938
49520,-9.763555,-0.009577,1.374272,0.946045,0.976562,0.183105,32.724609
49560,-9.725247,-0.023942,1.388637,1.434326,1.037598,0.061035,32.722656
49600,-9.720459,-0.033519,1.407791,1.403809,-0.457764,-0.061035,32.734375
49640,-9.744401,-0.076614,1.383849,0.823975,-0.213623,-0.122070,32.738281
49680,-9.739613,-0.114922,1.369483,-0.427246,-0.366211,-0.335693,32.728516
49720,-9.739613,-0.110133,1.364695,-1.678467,-1.037598,-0.366211,32.728516
49760,-9.730036,-0.100556,1.369483,-2.380371,-0.762939,-0.457764,32.722656
49800,-9.749189,-0.076614,1.379060,-2.716064,-0.793457,-0.579834,32.736328
49840,-9.768343,-0.052672,1.364695,-2.471924,-0.579834,-0.488281,32.730469
49880,-9.763555,-0.028730,1.355118,-1.800537,-0.152588,-0.427246,32.708984
49920,-9.753978,-0.019154,1.374272,-1.220703,-0.152588,-0.488281,32.722656
49960,-9.739613,-0.043096,1.383849,-0.823975,-0.396729,-0.640869,32.736328
50000,-9.758766,-0.081403,1.379060,-0.488281,-0.183105,-0.427246,32.708984
50040,-9.753978,-0.095768,1.393425,-0.732422,0.122070,-0.152588,32.736328
50080,-9.734824,-0.124498,1.379060,-1.159668,0.122070,-0.152588,32.742188
50120,-9.720459,-0.110133,1.388637,-1.190186,-0.152588,-0.030518,32.744141
50160,-9.763555,-0.095768,1.388637,-1.403809,-0.030518,0.000000,32.742188
50200,-9.758766,-0.114922,1.407791,-1.403809,0.518799,-0.030518,32.738281
50240,-9.749189,-0.124498,1.407791,-1.556396,0.244141,-0.122070,32.744141
50280,-9.758766,-0.086191,1.393425,-1.281738,0.640869,0.122070,32.734375
50320,-9.758766,-0.081403,1.393425,-1.068115,0.762939,0.091553,32.742188
50360,-9.749189,-0.095768,1.383849,-1.098633,0.549316,0.091553,32.761719
50400,-9.768343,-0.095768,1.374272,-1.068115,0.823975,0.244141,32.744141
50440,-9.753978,-0.086191,1.374272,-0.976562,0.793457,0.213623,32.751953
50480,-9.720459,-0.052672,1.374272,-0.396729,0.244141,0.122070,32.736328
50520,-9.715671,-0.052672,1.383849,0.152588,-0.518799,0.183105,32.773438
50560,-9.715671,-0.124498,1.364695,-0.091553,-0.701904,0.183105,32.753906
50600,-9.773131,-0.167594,1.355118,-0.732422,0.671387,0.030518,32.753906
50640,-9.782708,-0.105345,1.369483,-0.244141,1.373291,-0.061035,32.767578
50680,-9.725247,-0.023942,1.355118,1.312256,1.861572,0.122070,32.767578
50720,-9.792285,-0.014365,1.388637,2.624512,3.417969,0.274658,32.761719
50760,-9.792285,-0.019154,1.364695,3.631592,4.455566,0.671387,32.773438
50800,-9.672575,-0.047884,1.230620,3.723145,3.875732,0.732422,32.757812
50840,-9.686940,-0.071826,1.206678,2.410889,-0.183105,-0.152588,32.757812
50880,-9.777920,-0.052672,1.216254,2.563477,-0.488281,-0.732422,32.765625
50920,-9.758766,-0.023942,1.173159,2.410889,-0.335693,-0.976562,32.767578
50960,-9.758766,-0.071826,1.201889,1.800537,-0.701904,-1.098633,32.759766
51000,-9.835381,-0.110133,1.244985,0.823975,0.518799,-0.732422,32.789062
51040,-9.797073,-0.100556,1.216254,0.274658,1.525879,-0.091553,32.794922
51080,-9.725247,-0.090980,1.187524,-0.701904,2.563477,0.213623,32.769531
51120,-9.797073,-0.134075,1.197101,-2.105713,2.014160,0.152588,32.761719
51160,-9.801862,-0.110133,1.225831,-2.166748,2.563477,0.152588,32.781250
51200,-9.773131,-0.009577,1.206678,-1.770020,2.410889,0.457764,32.767578
51240,-9.753978,0.014365,1.173159,-1.159668,2.075195,0.671387,32.775391
51280,-9.753978,0.004788,1.163582,-0.183105,2.777100,0.518799,32.775391
51320,-9.777920,0.004788,1.173159,0.762939,2.593994,0.457764,32.794922
51360,-9.777920,0.014365,1.158794,1.739502,1.861572,0.549316,32.765625
51400,-9.777920,-0.014365,1.139640,2.319336,1.525879,0.427246,32.777344
51440,-9.792285,-0.067038,1.115698,2.197266,1.770020,0.244141,32.775391
51480,-9.773131,-0.090980,1.106121,1.647949,1.708984,0.091553,32.781250
51520,-9.797073,-0.071826,1.091756,1.007080,1.892090,-0.091553,32.787109
51560,-9.806650,-0.057461,1.086968,0.152588,1.678467,-0.152588,32.775391
51600,-9.792285,-0.038307,1.077391,-0.122070,1.800537,0.335693,32.777344
51640,-9.768343,-0.014365,1.063026,-0.152588,1.190186,0.427246,32.771484
51680,-9.787497,0.009577,1.053449,0.061035,0.732422,0.244141,32.773438
51720,-9.782708,0.033519,1.019930,0.213623,0.762939,0.457764,32.783203
51760,-9.806650,0.014365,0.986411,-0.152588,0.610352,0.762939,32.771484
51800,-9.811439,0.000000,0.991199,-0.579834,0.518799,0.915527,32.765625
51840,-9.801862,0.014365,0.995988,-0.671387,0.610352,0.823975,32.791016
51880,-9.792285,0.047884,1.000776,-0.671387,0.305176,0.823975,32.757812
51920,-9.801862,0.062249,1.005565,-0.610352,0.274658,1.007080,32.785156
51960,-9.801862,0.038307,1.024718,-0.488281,0.579834,1.190186,32.781250
52000,-9.816227,0.028730,1.034295,-0.579834,0.823975,1.190186,32.765625
52040,-9.782708,0.038307,1.015141,-0.305176,0.915527,1.159668,32.796875
52080,-9.777920,0.043096,1.005565,0.000000,0.915527,1.068115,32.765625
52120,-9.797073,0.076614,1.005565,0.244141,1.007080,0.976562,32.789062
52160,-9.782708,0.090980,1.000776,0.732422,0.244141,0.488281,32.767578
52200,-9.763555,0.062249,1.010353,0.854492,-0.274658,0.061035,32.775391
52240,-9.768343,0.062249,1.010353,0.671387,-0.854492,0.030518,32.791016
52280,-9.811439,0.071826,1.005565,0.122070,-0.305176,0.488281,32.820312
52320,-9.816227,0.076614,1.005565,-0.366211,-0.366211,0.762939,32.814453
52360,-9.806650,0.100556,1.010353,-0.610352,-0.061035,1.190186,32.810547
52400,-9.787497,0.105345,1.019930,-0.457764,-0.854492,1.098633,32.818359
52440,-9.806650,0.086191,1.015141,-0.640869,-0.396729,1.190186,32.814453
52480,-9.801862,0.124498,1.005565,-0.396729,-0.030518,1.190186,32.800781
52520,-9.773131,0.129287,0.995988,-0.213623,-0.061035,0.885010,32.830078
52560,-9.816227,0.129287,0.995988,-0.244141,-0.061035,0.518799,32.806641
52600,-9.821015,0.134075,1.019930,-0.366211,0.915527,0.640869,32.814453
52640,-9.811439,0.134075,1.005565,-0.823975,1.251221,0.854492,32.810547
52680,-9.797073,0.148441,0.995988,-1.190186,0.946045,0.793457,32.814453
52720,-9.797073,0.162806,1.000776,-1.037598,0.885010,0.732422,32.843750
52760,-9.806650,0.181959,1.019930,-0.335693,1.312256,0.518799,32.824219
52800,-9.792285,0.181959,1.010353,-0.122070,0.701904,0.183105,32.818359
52840,-9.801862,0.186748,0.991199,0.183105,0.976562,0.305176,32.835938
52880,-9.801862,0.186748,0.986411,0.244141,1.159668,0.427246,32.824219
52920,-9.806650,0.196325,0.976834,0.305176,0.885010,0.366211,32.804688
52960,-9.792285,0.210690,0.957681,0.488281,0.732422,0.396729,32.810547
53000,-9.811439,0.210690,0.928950,0.427246,1.098633,0.671387,32.820312
53040,-9.806650,0.191536,0.933739,0.061035,1.495361,0.701904,32.853516
53080,-9.806650,0.196325,0.919373,0.000000,1.770020,0.549316,32.847656
53120,-9.806650,0.229843,0.905008,0.061035,1.617432,0.823975,32.832031
53160,-9.768343,0.229843,0.924162,0.274658,0.427246,0.274658,32.814453
53200,-9.797073,0.215478,0.900220,0.366211,0.122070,0.091553,32.837891
53240,-9.782708,0.239420,0.885855,0.610352,0.305176,0.061035,32.841797
53280,-9.811439,0.196325,0.871489,-0.305176,0.000000,-0.122070,32.841797
53320,-9.821015,0.191536,0.890643,-0.610352,0.000000,-0.183105,32.837891
53360,-9.821015,0.225055,0.881066,-0.610352,0.335693,-0.213623,32.824219
53400,-9.806650,0.239420,0.847547,-0.701904,0.518799,-0.274658,32.824219
53440,-9.806650,0.229843,0.866701,-0.762939,0.396729,-0.366211,32.824219
53480,-9.816227,0.205901,0.881066,-0.854492,1.007080,-0.366211,32.828125
53520,-9.830592,0.205901,0.876278,-1.129150,1.068115,-0.335693,32.835938
53560,-9.801862,0.248997,0.861913,-0.885010,1.068115,-0.091553,32.824219
53600,-9.782708,0.277727,0.861913,-0.122070,0.335693,-0.305176,32.826172
53640,-9.806650,0.253785,0.852336,0.122070,0.366211,-0.488281,32.824219
53680,-9.806650,0.220267,0.847547,0.457764,1.098633,-0.427246,32.830078
53720,-9.816227,0.210690,0.837971,0.579834,1.434326,-0.457764,32.828125
53760,-9.811439,0.210690,0.828394,0.000000,0.061035,-0.640869,32.828125
53800,-9.792285,0.220267,0.828394,-0.274658,-0.335693,-0.579834,32.814453
53840,-9.806650,0.210690,0.847547,-0.549316,-0.457764,-0.823975,32.833984
53880,-9.806650,0.162806,0.847547,-1.281738,-2.624512,-0.885010,32.839844
53920,-9.787497,0.162806,0.866701,-0.854492,-2.563477,-0.701904,32.833984
53960,-9.811439,0.234632,0.861913,-0.030518,-2.197266,-0.518799,32.832031
54000,-9.801862,0.196325,0.857124,-0.335693,-2.258301,-0.427246,32.841797
54040,-9.811439,0.143652,0.876278,-0.793457,-2.777100,-0.885010,32.833984
54080,-9.825804,0.153229,0.890643,-0.549316,-1.464844,-1.098633,32.843750
54120,-9.816227,0.167594,0.885855,-0.762939,-0.427246,-1.037598,32.828125
54160,-9.782708,0.148441,0.895431,-1.281738,-1.434326,-1.220703,32.839844
54200,-9.797073,0.167594,0.924162,-0.823975,-1.464844,-1.464844,32.849609
54240,-9.849746,0.229843,0.900220,-0.030518,0.701904,-0.946045,32.841797
54280,-9.792285,0.186748,0.881066,-0.305176,0.762939,-0.579834,32.876953
54320,-9.744401,0.090980,0.938527,-0.152588,-2.349854,-1.647949,32.855469
54360,-9.816227,0.100556,1.005565,-0.396729,-3.479004,-1.525879,32.869141
54400,-9.768343,0.134075,1.019930,-0.488281,-3.112793,-0.915527,32.876953
54440,-9.753978,0.124498,0.995988,-0.732422,-3.265381,-0.457764,32.867188
54480,-9.792285,0.105345,1.005565,-0.671387,-3.845215,-0.732422,32.873047
54520,-9.806650,0.153229,1.034295,-0.122070,-4.028320,-0.915527,32.843750
54560,-9.849746,0.153229,1.053449,0.396729,-2.075195,-0.549316,32.873047
54600,-9.811439,0.119710,1.048660,0.091553,-1.373291,-0.396729,32.873047
54640,-9.787497,0.114922,1.067814,-0.061035,-1.922607,-0.427246,32.886719
54680,-9.734824,0.129287,1.110910,1.037598,-2.105713,-0.701904,32.869141
54720,-9.777920,0.124498,1.115698,1.159668,-2.319336,-1.007080,32.869141
54760,-9.816227,0.086191,1.154005,0.762939,-1.403809,-1.220703,32.871094
54800,-9.777920,0.076614,1.163582,0.885010,-1.220703,-1.556396,32.878906
54840,-9.725247,0.057461,1.139640,0.305176,-2.593994,-1.739502,32.888672
54880,-9.811439,0.052672,1.158794,-0.457764,-1.770020,-1.403809,32.853516
54920,-9.782708,0.057461,1.173159,-0.946045,-1.220703,-1.068115,32.886719
54960,-9.753978,0.033519,1.187524,-1.464844,-1.861572,-1.098633,32.873047
55000,-9.763555,0.019154,1.182736,-2.380371,-2.288818,-0.976562,32.882812
55040,-9.763555,0.009577,1.221043,-3.051758,-2.136230,-0.976562,32.882812
55080,-9.768343,0.043096,1.225831,-2.655029,-2.227783,-0.946045,32.855469
55120,-9.730036,0.047884,1.230620,-2.197266,-2.380371,-0.976562,32.888672
55160,-9.777920,0.057461,1.240196,-1.403809,-1.983643,-0.946045,32.888672
55200,-9.768343,0.081403,1.249773,-0.610352,-1.831055,-1.068115,32.894531
55240,-9.763555,0.062249,1.249773,0.274658,-1.373291,-0.976562,32.888672
55280,-9.773131,0.043096,1.273715,0.701904,-1.708984,-0.946045,32.871094
55320,-9.753978,-0.014365,1.302446,0.457764,-1.281738,-0.701904,32.882812
55360,-9.777920,-0.038307,1.302446,0.732422,-0.610352,-0.732422,32.878906
55400,-9.758766,-0.004788,1.316811,1.342773,-0.793457,-0.701904,32.894531
55440,-9.758766,-0.028730,1.292869,0.854492,-0.823975,-0.976562,32.886719
55480,-9.773131,-0.028730,1.312023,0.976562,-0.122070,-0.915527,32.890625
55520,-9.758766,-0.033519,1.335965,0.671387,0.305176,-0.823975,32.894531
55560,-9.758766,-0.038307,1.335965,0.152588,-0.030518,-0.762939,32.873047
55600,-9.739613,-0.043096,1.340753,0.152588,-0.213623,-0.579834,32.902344
55640,-9.763555,-0.009577,1.331176,0.396729,-0.091553,-0.549316,32.896484
55680,-9.758766,0.000000,1.331176,0.793457,0.854492,-0.488281,32.892578
55720,-9.763555,-0.023942,1.316811,1.190186,1.739502,-0.518799,32.900391
55760,-9.773131,0.009577,1.307234,1.647949,1.403809,-0.335693,32.878906
55800,-9.749189,0.019154,1.331176,1.739502,1.525879,-0.122070,32.884766
55840,-9.749189,-0.019154,1.335965,1.525879,0.671387,0.030518,32.898438
55880,-9.753978,-0.023942,1.331176,1.922607,0.610352,0.183105,32.892578
55920,-9.734824,-0.033519,1.321599,1.922607,0.122070,0.091553,32.900391
55960,-9.730036,-0.071826,1.321599,1.556396,-0.610352,-0.274658,32.896484
56000,-9.744401,-0.138864,1.321599,0.091553,-1.403809,-0.274658,32.910156
56040,-9.763555,-0.201113,1.312023,-1.922607,-0.854492,-0.335693,32.892578
56080,-9.801862,-0.143652,1.297657,-1.861572,1.434326,-0.427246,32.900391
56120,-9.782708,-0.038307,1.264138,-0.732422,1.922607,-0.823975,32.894531
56160,-9.758766,0.052672,1.254562,0.976562,1.586914,-1.495361,32.902344
56200,-9.749189,0.114922,1.268927,2.960205,1.403809,-1.403809,32.902344
56240,-9.782708,0.114922,1.268927,4.150391,2.471924,-0.793457,32.939453
56280,-9.734824,0.052672,1.240196,3.662109,0.183105,-0.518799,32.916016
56320,-9.701305,-0.023942,1.244985,2.716064,-1.586914,-0.335693,32.921875
56360,-9.749189,-0.110133,1.254562,1.129150,-2.349854,0.030518,32.912109
56400,-9.773131,-0.201113,1.249773,-1.190186,-2.166748,0.152588,32.912109
56440,-9.821015,-0.186748,1.259350,-2.197266,-0.213623,0.335693,32.906250
56480,-9.797073,-0.105345,1.268927,-2.349854,0.610352,0.305176,32.914062
56520,-9.744401,-0.043096,1.249773,-1.556396,0.549316,-0.122070,32.931641
56560,-9.730036,-0.043096,1.249773,-1.342773,-0.579834,-0.183105,32.945312
56600,-9.758766,-0.047884,1.278504,-1.861572,-0.518799,-0.213623,32.914062
56640,-9.777920,-0.038307,1.288081,-2.258301,-0.793457,-0.061035,32.921875
56680,-9.739613,-0.009577,1.268927,-2.044678,-1.281738,0.244141,32.921875
56720,-9.749189,0.023942,1.259350,-0.701904,-0.579834,-0.213623,32.931641
56760,-9.734824,0.043096,1.278504,1.068115,-1.159668,-0.549316,32.941406
56800,-9.744401,0.004788,1.278504,1.220703,-1.281738,-0.640869,32.921875
56840,-9.763555,-0.019154,1.307234,1.342773,-1.342773,-0.885010,32.919922
56880,-9.758766,-0.038307,1.321599,0.946045,-1.831055,-0.701904,32.912109
56920,-9.744401,-0.047884,1.312023,0.396729,-1.373291,-0.213623,32.914062
56960,-9.758766,-0.081403,1.335965,-0.488281,-0.854492,-0.152588,32.935547
57000,-9.782708,-0.067038,1.374272,0.000000,-0.366211,-0.152588,32.925781
57040,-9.749189,-0.043096,1.379060,0.091553,-0.610352,-0.122070,32.945312
57080,-9.715671,-0.038307,1.374272,-0.061035,-1.617432,-0.305176,32.939453
57120,-9.739613,-0.043096,1.388637,-0.061035,-1.922607,-0.427246,32.951172
57160,-9.753978,-0.062249,1.398214,-0.183105,-1.434326,-0.213623,32.937500
57200,-9.744401,-0.081403,1.398214,-0.274658,-1.281738,-0.335693,32.931641
57240,-9.744401,-0.052672,1.403002,-0.610352,-1.281738,-0.244141,32.931641
57280,-9.715671,-0.052672,1.412579,-0.823975,-0.946045,-0.183105,32.943359
57320,-9.734824,-0.052672,1.431733,-0.579834,-1.617432,-0.244141,32.931641
57360,-9.739613,-0.057461,1.436521,-0.976562,-1.464844,-0.152588,32.935547
57400,-9.744401,-0.062249,1.417367,-0.488281,-0.793457,-0.122070,32.943359
57440,-9.749189,-0.028730,1.436521,0.000000,-1.129150,-0.213623,32.951172
57480,-9.758766,-0.057461,1.446098,0.030518,-0.305176,-0.213623,32.929688
57520,-9.749189,-0.076614,1.455675,0.030518,0.244141,-0.213623,32.935547
57560,-9.739613,-0.057461,1.455675,-0.122070,0.305176,-0.122070,32.931641
57600,-9.734824,-0.062249,1.441309,-0.305176,0.366211,-0.152588,32.949219
57640,-9.725247,-0.047884,1.431733,-0.061035,0.427246,-0.183105,32.943359
57680,-9.730036,-0.043096,1.446098,-0.030518,0.152588,-0.061035,32.929688
57720,-9.730036,-0.067038,1.446098,0.183105,0.640869,-0.152588,32.949219
57760,-9.730036,-0.062249,1.450886,0.152588,0.457764,-0.183105,32.917969
57800,-9.730036,-0.062249,1.450886,0.427246,0.579834,-0.152588,32.931641
57840,-9.725247,-0.047884,1.446098,0.549316,0.183105,-0.366211,32.955078
57880,-9.725247,-0.023942,1.417367,0.640869,-0.152588,-0.488281,32.949219
57920,-9.744401,-0.038307,1.412579,0.610352,-0.122070,-0.335693,32.921875
57960,-9.744401,-0.052672,1.407791,0.579834,0.213623,-0.274658,32.957031
58000,-9.730036,-0.067038,1.417367,0.091553,-0.366211,-0.152588,32.917969
58040,-9.739613,-0.090980,1.403002,-0.244141,-0.213623,-0.213623,32.945312
58080,-9.734824,-0.057461,1.407791,0.000000,-0.152588,-0.122070,32.949219
58120,-9.744401,-0.062249,1.407791,-0.152588,-0.244141,-0.091553,32.929688
58160,-9.758766,-0.076614,1.407791,-0.488281,0.518799,-0.152588,32.931641
58200,-9.753978,-0.067038,1.407791,-0.854492,0.640869,-0.061035,32.941406
58240,-9.744401,-0.057461,1.398214,-1.068115,0.762939,0.061035,32.970703
58280,-9.749189,-0.047884,1.388637,-0.885010,0.915527,0.000000,32.976562
58320,-9.739613,-0.033519,1.412579,-0.549316,0.518799,-0.061035,32.968750
58360,-9.734824,-0.047884,1.403002,-0.457764,0.366211,-0.183105,32.972656
58400,-9.734824,-0.052672,1.407791,-0.152588,0.579834,-0.274658,32.958984
58440,-9.749189,-0.038307,1.403002,0.244141,0.671387,-0.244141,32.968750
58480,-9.730036,-0.043096,1.398214,0.579834,0.518799,-0.335693,32.964844
58520,-9.734824,-0.047884,1.398214,0.732422,0.244141,-0.427246,32.976562
58560,-9.753978,-0.057461,1.374272,0.793457,0.640869,-0.335693,32.964844
58600,-9.749189,-0.067038,1.369483,0.762939,0.335693,-0.396729,32.976562
58640,-9.749189,-0.067038,1.359907,0.579834,0.366211,-0.305176,32.964844
58680,-9.749189,-0.076614,1.369483,0.305176,0.213623,-0.244141,32.968750
58720,-9.753978,-0.086191,1.364695,-0.213623,0.457764,-0.152588,32.953125
58760,-9.763555,-0.071826,1.359907,-0.152588,0.701904,-0.122070,32.943359
58800,-9.753978,-0.067038,1.340753,-0.091553,0.823975,-0.061035,32.966797
58840,-9.753978,-0.076614,1.345541,-0.549316,0.976562,-0.091553,32.955078
58880,-9.763555,-0.076614,1.359907,-0.823975,1.342773,-0.091553,32.958984
58920,-9.744401,-0.062249,1.355118,-1.007080,0.915527,-0.030518,32.968750
58960,-9.744401,-0.052672,1.335965,-1.251221,0.457764,0.000000,32.968750
59000,-9.739613,-0.038307,1.335965,-0.915527,0.640869,-0.061035,32.978516
59040,-9.744401,-0.023942,1.326388,-0.762939,0.366211,-0.091553,32.978516
59080,-9.758766,-0.043096,1.316811,-0.579834,0.610352,-0.122070,32.966797
59120,-9.758766,-0.028730,1.316811,-0.213623,0.762939,-0.152588,32.958984
59160,-9.749189,-0.023942,1.321599,0.183105,0.427246,-0.274658,32.968750
59200,-9.749189,-0.043096,1.307234,0.335693,0.366211,-0.335693,32.984375
59240,-9.758766,-0.038307,1.292869,0.396729,0.427246,-0.396729,32.947266
59280,-9.768343,-0.043096,1.283292,0.396729,0.579834,-0.335693,32.980469
59320,-9.753978,-0.043096,1.283292,0.457764,0.549316,-0.335693,32.974609
59360,-9.763555,-0.052672,1.288081,0.457764,0.518799,-0.244141,32.976562
59400,-9.749189,-0.062249,1.278504,0.091553,0.122070,-0.427246,32.988281
59440,-9.753978,-0.062249,1.254562,0.366211,0.579834,-0.396729,32.982422
59480,-9.753978,-0.038307,1.268927,0.579834,0.061035,-0.427246,32.980469
59520,-9.739613,-0.095768,1.268927,-0.122070,-0.305176,-0.305176,32.994141
59560,-9.777920,-0.090980,1.288081,0.091553,0.976562,-0.732422,32.984375
59600,-9.816227,-0.033519,1.264138,0.488281,1.464844,-0.732422,32.980469
59640,-9.739613,-0.067038,1.244985,-0.061035,-0.122070,-0.213623,32.988281
59680,-9.686940,-0.090980,1.259350,-0.793457,-0.671387,-0.396729,32.990234
59720,-9.840169,-0.076614,1.326388,-0.244141,1.098633,0.091553,32.962891
59760,-9.825804,-0.033519,1.374272,0.427246,2.258301,0.915527,32.990234
59800,-9.686940,-0.067038,1.273715,0.701904,2.899170,1.464844,32.978516
59840,-9.744401,-0.119710,1.163582,-0.579834,2.075195,0.946045,32.998047
59880,-9.744401,-0.090980,1.216254,-0.366211,0.000000,-0.122070,32.972656
59920,-9.734824,-0.014365,1.173159,-0.061035,-1.678467,-0.579834,32.978516
59960,-9.730036,-0.033519,1.144428,0.183105,-2.593994,-1.220703,32.978516
60000,-9.753978,-0.100556,1.192312,0.061035,-3.204346,-1.831055,33.000000
60040,-9.811439,-0.095768,1.244985,-0.396729,-3.173828,-1.983643,32.988281
60080,-9.787497,-0.057461,1.278504,0.000000,-2.655029,-1.617432,32.984375
60120,-9.734824,-0.047884,1.254562,0.305176,-0.915527,-0.793457,32.980469
60160,-9.758766,-0.052672,1.254562,1.373291,0.030518,-0.305176,32.994141
60200,-9.797073,-0.062249,1.302446,1.586914,-0.305176,-0.213623,33.003906
60240,-9.787497,-0.086191,1.297657,1.037598,0.488281,-0.183105,33.001953
60280,-9.758766,-0.100556,1.278504,0.946045,1.068115,0.000000,33.013672
60320,-9.739613,-0.110133,1.288081,0.427246,0.946045,0.183105,33.009766
60360,-9.749189,-0.124498,1.302446,-0.152588,0.579834,0.091553,33.007812
60400,-9.749189,-0.114922,1.307234,-0.274658,0.274658,0.152588,33.003906
60440,-9.730036,-0.100556,1.312023,-0.366211,-0.518799,0.000000,33.000000
60480,-9.739613,-0.114922,1.297657,-0.823975,-0.488281,-0.030518,32.988281
60520,-9.749189,-0.105345,1.302446,-1.068115,-0.793457,-0.091553,33.017578
60560,-9.744401,-0.086191,1.326388,-1.068115,-1.220703,-0.213623,33.011719
60600,-9.753978,-0.067038,1.312023,-0.915527,-1.525879,-0.213623,33.003906
60640,-9.739613,-0.071826,1.292869,-0.854492,-1.953125,-0.244141,33.011719
60680,-9.739613,-0.062249,1.321599,-0.732422,-2.288818,-0.366211,33.009766
60720,-9.753978,-0.052672,1.345541,-0.091553,-2.655029,-0.427246,33.003906
60760,-9.753978,-0.043096,1.350330,0.274658,-2.624512,-0.274658,33.013672
60800,-9.744401,-0.062249,1.355118,0.213623,-2.136230,-0.213623,33.003906
60840,-9.753978,-0.071826,1.359907,0.701904,-1.800537,-0.366211,33.033203
60880,-9.753978,-0.076614,1.379060,0.915527,-1.220703,-0.457764,33.000000
60920,-9.777920,-0.110133,1.398214,0.518799,-0.488281,-0.457764,33.007812
60960,-9.763555,-0.138864,1.412579,-0.183105,0.335693,-0.457764,33.013672
61000,-9.744401,-0.129287,1.417367,-0.579834,0.610352,-0.335693,33.009766
61040,-9.720459,-0.100556,1.426944,-0.854492,-0.396729,-0.335693,33.007812
61080,-9.715671,-0.095768,1.431733,-1.037598,-0.640869,-0.274658,33.011719
61120,-9.730036,-0.110133,1.426944,-1.403809,-0.793457,-0.244141,33.025391
61160,-9.739613,-0.124498,1.441309,-1.495361,-0.488281,-0.335693,33.019531
61200,-9.753978,-0.100556,1.431733,-1.251221,-0.244141,-0.457764,33.005859
61240,-9.734824,-0.071826,1.426944,-0.732422,-0.274658,-0.640869,33.021484
61280,-9.730036,-0.062249,1.431733,-0.152588,-0.671387,-0.854492,33.007812
61320,-9.749189,-0.057461,1.426944,0.701904,-0.488281,-1.068115,33.029297
61360,-9.734824,-0.028730,1.426944,1.678467,-0.335693,-1.159668,33.015625
61400,-9.686940,-0.081403,1.436521,1.068115,-0.549316,-1.037598,33.033203
61440,-9.753978,-0.234632,1.422156,-0.030518,-0.549316,-0.885010,33.017578
61480,-9.758766,-0.253785,1.431733,-1.922607,-0.427246,-0.823975,33.013672
61520,-9.710882,-0.153229,1.426944,-1.678467,-0.640869,-0.274658,33.031250
61560,-9.734824,-0.081403,1.407791,-1.403809,-0.823975,0.274658,33.033203
61600,-9.758766,-0.114922,1.422156,-1.739502,0.030518,0.427246,33.033203
61640,-9.753978,-0.138864,1.446098,-1.892090,0.396729,0.610352,33.017578
61680,-9.744401,-0.138864,1.446098,-1.800537,1.037598,0.762939,33.035156
61720,-9.725247,-0.105345,1.436521,-1.403809,0.823975,0.610352,33.007812
61760,-9.710882,-0.100556,1.436521,-0.854492,0.732422,0.488281,33.033203
61800,-9.773131,-0.110133,1.417367,-0.335693,1.739502,0.640869,33.011719
61840,-9.768343,-0.086191,1.426944,0.152588,2.807617,0.366211,33.046875
61880,-9.749189,-0.062249,1.407791,1.251221,3.112793,0.244141,33.031250
61920,-9.744401,-0.057461,1.388637,1.922607,2.380371,0.244141,33.031250
61960,-9.682152,-0.081403,1.393425,2.014160,0.061035,0.091553,33.017578
62000,-9.701305,-0.100556,1.383849,1.831055,-0.640869,-0.122070,33.023438
62040,-9.739613,-0.119710,1.359907,1.525879,-0.732422,0.152588,33.041016
62080,-9.739613,-0.143652,1.374272,0.946045,-1.068115,-0.061035,33.027344
62120,-9.763555,-0.138864,1.374272,0.488281,-0.976562,-0.335693,33.031250
62160,-9.763555,-0.114922,1.359907,0.091553,-0.610352,-0.335693,33.023438
62200,-9.753978,-0.134075,1.355118,-0.366211,-0.305176,-0.427246,33.044922
62240,-9.749189,-0.114922,1.369483,-0.305176,-0.274658,-0.305176,33.068359
62280,-9.763555,-0.100556,1.369483,-0.915527,-0.183105,-0.335693,33.062500
62320,-9.758766,-0.110133,1.379060,-1.190186,0.274658,-0.305176,33.044922
62360,-9.749189,-0.119710,1.388637,-1.647949,0.518799,-0.061035,33.052734
62400,-9.744401,-0.100556,1.383849,-1.739502,0.610352,0.030518,33.062500
62440,-9.710882,-0.086191,1.388637,-1.495361,-0.427246,-0.091553,33.068359
62480,-9.773131,-0.038307,1.398214,-0.183105,1.251221,-0.244141,33.048828
62520,-9.758766,-0.038307,1.403002,0.030518,0.854492,0.061035,33.054688
62560,-9.696517,-0.086191,1.407791,0.061035,-0.396729,-0.244141,33.052734
62600,-9.706094,-0.086191,1.383849,0.091553,-0.885010,-0.091553,33.056641
62640,-9.749189,-0.076614,1.403002,0.213623,-0.671387,0.244141,33.054688
62680,-9.753978,-0.086191,1.393425,0.122070,-0.732422,0.274658,33.052734
62720,-9.753978,-0.095768,1.379060,0.030518,-0.335693,0.213623,33.064453
62760,-9.763555,-0.086191,1.393425,0.610352,0.335693,0.152588,33.044922
62800,-9.749189,-0.076614,1.388637,1.007080,0.488281,-0.061035,33.060547
62840,-9.730036,-0.081403,1.379060,1.190186,0.183105,-0.213623,33.041016
62880,-9.730036,-0.110133,1.388637,0.518799,-0.732422,-0.457764,33.050781
62920,-9.753978,-0.124498,1.379060,0.213623,0.152588,-0.274658,33.054688
62960,-9.744401,-0.086191,1.383849,0.396729,0.244141,-0.213623,33.042969
63000,-9.739613,-0.095768,1.393425,0.000000,0.152588,-0.335693,33.058594
63040,-9.753978,-0.105345,1.398214,-0.274658,0.396729,-0.366211,33.052734
63080,-9.749189,-0.086191,1.383849,-0.579834,0.579834,-0.152588,33.072266
63120,-9.739613,-0.081403,1.359907,-0.793457,0.549316,-0.122070,33.056641
63160,-9.730036,-0.081403,1.359907,-0.579834,0.366211,-0.305176,33.072266
63200,-9.753978,-0.062249,1.364695,-0.183105,0.274658,-0.335693,33.066406
63240,-9.749189,-0.067038,1.355118,-0.061035,0.488281,-0.244141,33.058594
63280,-9.725247,-0.086191,1.355118,-0.061035,0.366211,-0.244141,33.060547
63320,-9.749189,-0.086191,1.345541,-0.152588,0.457764,-0.183105,33.064453
63360,-9.758766,-0.067038,1.350330,-0.152588,0.579834,-0.030518,33.068359
63400,-9.730036,-0.057461,1.340753,0.091553,0.396729,0.000000,33.062500
63440,-9.749189,-0.067038,1.326388,0.305176,0.518799,-0.061035,33.060547
63480,-9.758766,-0.067038,1.326388,0.274658,0.488281,-0.122070,33.056641
63520,-9.744401,-0.071826,1.331176,0.274658,0.305176,-0.213623,33.070312
63560,-9.758766,-0.071826,1.326388,0.213623,0.457764,-0.061035,33.054688
63600,-9.744401,-0.090980,1.321599,-0.152588,0.152588,-0.244141,33.080078
63640,-9.749189,-0.086191,1.321599,-0.061035,0.305176,-0.244141,33.072266
63680,-9.744401,-0.067038,1.321599,0.213623,-0.274658,-0.305176,33.076172
63720,-9.749189,-0.086191,1.307234,-0.274658,0.183105,-0.366211,33.052734
63760,-9.768343,-0.100556,1.316811,-0.518799,0.488281,-0.274658,33.070312
63800,-9.758766,-0.090980,1.316811,-0.823975,0.549316,-0.152588,33.089844
63840,-9.744401,-0.071826,1.302446,-0.823975,0.030518,-0.244141,33.076172
63880,-9.749189,-0.071826,1.297657,-0.640869,0.122070,-0.274658,33.072266
63920,-9.758766,-0.071826,1.307234,-0.457764,0.091553,-0.305176,33.048828
63960,-9.768343,-0.081403,1.302446,-0.579834,0.366211,-0.274658,33.087891
64000,-9.744401,-0.086191,1.302446,-0.610352,-0.244141,-0.335693,33.060547
64040,-9.753978,-0.071826,1.292869,-0.213623,-0.152588,-0.152588,33.060547
64080,-9.758766,-0.071826,1.292869,0.091553,0.244141,-0.091553,33.070312
64120,-9.749189,-0.100556,1.302446,0.030518,0.061035,-0.213623,33.078125
64160,-9.758766,-0.090980,1.292869,0.488281,0.457764,-0.305176,33.085938
64200,-9.768343,-0.067038,1.302446,0.915527,0.427246,-0.183105,33.093750
64240,-9.753978,-0.086191,1.302446,0.915527,0.244141,-0.091553,33.087891
64280,-9.753978,-0.110133,1.292869,0.549316,0.030518,0.000000,33.089844
64320,-9.763555,-0.124498,1.283292,-0.213623,0.091553,0.000000,33.091797
64360,-9.763555,-0.129287,1.283292,-0.244141,0.701904,-0.122070,33.089844
64400,-9.753978,-0.086191,1.297657,0.244141,0.610352,-0.061035,33.093750
64440,-9.758766,-0.081403,1.278504,-0.152588,0.732422,-0.091553,33.099609
64480,-9.768343,-0.114922,1.278504,-0.549316,0.976562,-0.152588,33.091797
64520,-9.768343,-0.129287,1.283292,-1.098633,1.525879,0.061035,33.095703
64560,-9.739613,-0.076614,1.268927,-1.281738,0.549316,0.244141,33.099609
64600,-9.744401,-0.067038,1.254562,-1.251221,0.335693,0.427246,33.089844
64640,-9.758766,-0.052672,1.264138,-0.732422,0.793457,0.396729,33.085938
64680,-9.763555,-0.052672,1.259350,-0.244141,0.457764,0.122070,33.083984
64720,-9.758766,-0.071826,1.235408,-0.091553,0.610352,0.091553,33.097656
64760,-9.753978,-0.067038,1.244985,0.061035,0.213623,0.091553,33.105469
64800,-9.753978,-0.090980,1.249773,-0.305176,-0.915527,0.122070,33.101562
64840,-9.787497,-0.090980,1.240196,-0.213623,0.274658,-0.091553,33.085938
64880,-9.792285,-0.076614,1.235408,0.305176,0.427246,-0.213623,33.099609
64920,-9.753978,-0.067038,1.230620,0.762939,0.335693,-0.366211,33.101562
64960,-9.739613,-0.033519,1.240196,1.403809,-0.335693,-0.549316,33.099609
65000,-9.787497,-0.033519,1.249773,1.464844,-0.091553,-0.244141,33.101562
65040,-9.768343,-0.067038,1.240196,0.946045,0.061035,-0.244141,33.099609
65080,-9.744401,-0.062249,1.249773,1.251221,0.366211,-0.305176,33.097656
65120,-9.749189,-0.038307,1.268927,1.495361,-0.610352,-0.213623,33.113281
65160,-9.777920,-0.057461,1.254562,1.342773,-0.305176,-0.122070,33.091797
65200,-9.768343,-0.081403,1.268927,1.251221,0.000000,-0.244141,33.070312
65240,-9.749189,-0.105345,1.268927,0.457764,-0.366211,-0.152588,33.115234
65280,-9.768343,-0.081403,1.244985,-0.213623,-0.183105,0.061035,33.115234
65320,-9.763555,-0.086191,1.259350,-0.427246,0.122070,0.061035,33.115234
65360,-9.763555,-0.081403,1.254562,-0.549316,-0.030518,0.122070,33.095703
65400,-9.758766,-0.090980,1.244985,-1.068115,0.061035,0.122070,33.115234
65440,-9.758766,-0.076614,1.259350,-1.525879,-0.122070,0.000000,33.099609
65480,-9.768343,-0.067038,1.249773,-1.525879,0.030518,0.000000,33.109375
65520,-9.753978,-0.057461,1.254562,-1.312256,-0.030518,-0.091553,33.119141
65560,-9.758766,-0.028730,1.259350,-0.823975,-0.488281,-0.244141,33.117188
65600,-9.758766,-0.043096,1.249773,-0.793457,-1.068115,-0.244141,33.101562
