MS,Accel X (m/s²),Accel Y (m/s²),Accel Z (m/s²),Gyro X (°/s),Gyro Y (°/s),Gyro Z (°/s),Temp (°C)
30000,0.167594,4.850653,3.390190,-182.739258,-111.907959,28.137207,38.929688
30040,2.667141,1.757344,5.406107,122.528076,232.238770,-0.488281,38.917969
30080,1.106121,0.263362,4.472369,-7.965088,30.303955,-59.722900,38.910156
30120,-5.726931,11.851298,7.297527,-203.857422,5.493164,-165.161133,38.914062
30160,-9.074024,25.910051,-2.796427,160.614014,11.230469,113.525391,38.902344
30200,-5.238513,20.891804,-8.221688,-70.251465,160.461426,-10.498047,38.917969
30240,-2.762909,13.187263,-6.880936,-33.508301,118.652344,10.284424,38.904297
30280,-4.022259,6.555324,-2.260126,2.136230,43.029785,1.098633,38.919922
30320,-5.793968,0.670376,1.484405,-40.679932,29.632568,-6.805420,38.917969
30360,-5.851429,-2.154782,1.244985,-22.186279,-2.258301,17.913818,38.929688
30400,-3.873818,-2.073379,0.392649,42.846680,-76.171875,23.590088,38.917969
30440,-3.165135,0.718261,2.427721,-106.811523,-83.892822,12.756348,38.919922
30480,-11.262324,12.023681,5.343858,-15.991211,-42.663574,84.747314,38.916016
30520,-6.991069,28.026525,-4.314352,138.824463,-89.965820,-21.453857,38.921875
30560,-5.693412,18.301277,-7.062895,75.653076,-96.099854,7.965088,38.914062
30600,-2.379837,9.940725,-6.435614,81.970215,-104.492188,3.021240,38.917969
30640,0.507571,6.081272,-2.408567,53.314209,-84.808350,18.829346,38.914062
30680,0.311246,4.984728,2.839523,-190.856934,-124.633789,42.053223,38.917969
30720,2.513912,1.833959,5.377377,111.968994,206.817627,-11.016846,38.917969
30760,1.651999,-0.531513,2.600103,56.488037,69.885254,30.822754,38.904297
30800,-1.288081,3.830723,5.181053,-208.221436,-77.301025,-194.244385,38.896484
30840,-7.091625,24.310724,2.882619,88.562012,46.569824,105.224609,38.914062
30880,-5.066131,25.713726,-6.196194,22.766113,159.332275,-20.843506,38.908203
30920,-1.771709,15.734694,-9.409213,-28.167725,158.538818,-1.556396,38.923828
30960,-2.715025,8.590396,-5.142745,-15.319824,70.312500,-12.298584,38.910156
31000,-6.536170,2.992752,0.742203,-66.314697,-13.305664,-27.038574,38.908203
31040,-6.497863,-1.115698,2.533065,-23.010254,49.835205,-35.461426,38.900391
31080,-3.864242,-1.786075,0.459687,33.966064,-56.518555,31.066895,38.916016
31120,-2.552219,-1.015141,0.818817,-20.538330,-110.290527,15.045166,38.912109
31160,-8.494628,8.451532,7.680599,-178.588867,-14.862061,48.278809,38.898438
31200,-7.584831,27.839777,-1.565808,207.885742,-60.333252,-25.543213,38.908203
31240,-6.392519,21.322760,-8.078036,89.447021,-106.079102,9.002686,38.929688
31280,-3.069367,11.089942,-7.580042,82.672119,-113.128662,10.192871,38.931641
31320,0.612916,6.148310,-3.294421,61.157227,-104.400635,14.648438,38.923828
31360,0.928950,4.673482,2.169147,-187.011719,-154.113770,70.404053,38.919922
31400,4.055778,2.624045,6.052542,103.881836,217.742920,-62.744141,38.917969
31440,2.628834,-0.028730,3.423708,53.833008,134.002686,5.065918,38.933594
31480,0.426168,1.628057,2.849100,-44.921875,38.513184,-79.681396,38.941406
31520,-9.715671,18.215086,4.707001,-111.846924,37.841797,-10.528564,38.939453
31560,-5.741296,27.188555,-6.263232,100.982666,109.558105,32.562256,38.941406
31600,-1.953669,17.697939,-10.218452,-27.709961,147.644043,0.946045,38.949219
31640,-2.231396,9.821015,-6.359000,1.739502,89.324951,7.354736,38.927734
31680,-5.841852,4.644751,-0.268151,1.373291,23.040771,-27.435303,38.923828
31720,-7.326257,-0.220267,2.154782,45.776367,28.015137,-24.871826,38.951172
31760,-5.195418,-1.651999,0.311246,45.196533,-77.270508,26.214600,38.921875
31800,-2.159570,-1.015141,0.272939,14.312744,-86.883545,32.531738,38.929688
31840,-3.912126,4.908113,3.514688,-241.424561,-107.543945,143.707275,38.933594
31880,-5.070919,23.037008,1.154005,7.598877,-38.452148,160.522461,38.953125
31920,-1.570596,25.038561,-7.603985,99.609375,-67.382812,-39.520264,38.917969
31960,-3.265691,14.269443,-9.595961,41.351318,-121.368408,21.667480,38.937500
32000,0.474052,8.465898,-5.956774,67.382812,-96.496582,18.554688,38.943359
32040,1.766921,5.391742,-0.402226,-93.719482,-107.452393,47.027588,38.923828
32080,2.815581,2.901772,6.995857,-41.564941,76.171875,-20.568848,38.921875
32120,3.418920,0.229843,5.343858,170.593262,56.030273,-18.493652,38.923828
32160,0.622492,1.331176,2.375048,-80.230713,4.791260,-40.130615,38.933594
32200,-4.515464,16.678009,3.969586,-38.665771,192.260742,93.292236,38.955078
32240,0.507571,26.513390,-7.129933,49.926758,72.326660,-45.623779,38.943359
32280,1.326388,18.267759,-11.051635,-11.383057,110.290527,-0.335693,38.943359
32320,1.302446,11.693281,-7.757214,18.371582,105.895996,9.246826,38.943359
32360,-2.920926,6.770802,-1.259350,24.719238,55.969238,-13.671875,38.945312
32400,-6.464345,1.991976,1.690306,49.896240,64.727783,-33.752441,38.951172
32440,-6.306327,-0.407014,0.287304,63.568115,-47.607422,-17.517090,38.949219
32480,-3.586514,-0.617704,0.114922,12.878418,-76.507568,50.140381,38.917969
32520,-3.543418,3.232172,3.189077,-167.236328,-43.090820,39.703369,38.958984
32560,-8.092402,20.489578,0.181959,-99.456787,23.315430,-52.368164,38.953125
32600,-0.885855,28.184542,-9.323022,79.101562,-149.444580,37.353516,38.937500
32640,-1.393425,16.414646,-8.892065,46.020508,-105.560303,8.636475,38.943359
32680,0.493206,7.733272,-6.651093,55.084229,-121.032715,-1.892090,38.933594
32720,1.948880,4.410120,-1.924938,-4.302979,-87.341309,4.058838,38.953125
32760,0.972046,4.022259,3.260903,-255.126953,-65.673828,60.882568,38.953125
32800,4.185065,0.948104,5.406107,177.947998,151.885986,-50.537109,38.943359
32840,1.589750,1.637634,5.434838,-35.064697,32.135010,-113.739014,38.962891
32880,-4.505888,14.211981,7.129933,-33.599854,144.683838,171.356201,38.933594
32920,0.770933,27.255592,-7.556100,82.122803,120.361328,-14.038086,38.941406
32960,0.483629,20.403387,-11.109096,-23.071289,111.175537,-13.488770,38.947266
33000,-0.071826,11.549629,-7.345411,-4.760742,86.456299,16.845703,38.957031
33040,-2.738967,5.602432,-1.637634,9.216309,28.015137,4.058838,38.951172
33080,-5.324705,1.010353,2.030283,44.403076,46.997070,-9.643555,38.933594
33120,-5.908890,-0.948104,0.588974,77.056885,-18.585205,11.291504,38.898438
33160,-4.228160,-0.861913,-0.435745,29.876709,-96.313477,59.478760,38.908203
33200,-2.604892,0.608127,1.024718,-50.811768,-96.099854,38.787842,38.912109
33240,-6.703765,15.907076,2.518700,-191.406250,51.483154,-73.394775,38.925781
33280,0.119710,29.965828,-8.504205,73.669434,-142.974854,33.081055,38.914062
33320,-0.287304,18.962078,-9.026140,65.368652,-71.166992,7.019043,38.923828
33360,-0.426168,8.781932,-7.891289,67.260742,-83.251953,2.532959,38.933594
33400,1.484405,5.272032,-3.323152,33.752441,-96.557617,15.686035,38.937500
33440,0.689530,5.530606,2.676718,-209.075928,-125.274658,52.062988,38.917969
33480,2.782062,2.226608,5.875371,29.541016,132.049561,-11.230469,38.937500
33520,2.509123,-0.110133,2.719813,107.788086,38.085938,-23.681641,38.919922
33560,-0.052672,1.704672,2.293645,-129.211426,2.777100,-54.656982,38.927734
33600,-1.647211,23.223757,3.979163,-17.974854,220.092773,133.941650,38.925781
33640,3.524265,27.911604,-7.527370,100.128174,156.433105,-48.522949,38.925781
33680,3.150769,15.988479,-11.252748,21.087646,141.571045,-8.056641,38.937500
33720,-0.186748,9.370906,-6.756437,26.184082,93.231201,-10.742188,38.912109
33760,-4.802769,5.248090,-0.962469,30.181885,32.073975,-29.937744,38.939453
33800,-7.321469,1.781286,1.594538,66.131592,18.035889,-49.102783,38.943359
33840,-5.286397,-0.344765,-0.215478,62.622070,-103.210449,4.760742,38.910156
33880,-2.494758,1.144428,1.666364,-70.983887,-105.987549,29.724121,38.929688
33920,-4.807557,12.339716,4.759673,-199.157715,71.990967,-23.345947,38.947266
33960,-2.178724,26.302700,-7.752425,54.656982,-75.744629,2.258301,38.939453
34000,-2.092532,19.546263,-9.677363,54.718018,-139.495850,11.840820,38.906250
34040,-0.622492,10.711658,-8.274361,42.114258,-139.617920,17.791748,38.929688
34080,2.312799,6.368577,-4.180276,57.617188,-106.811523,6.774902,38.923828
34120,1.872266,4.539406,0.593762,-160.705566,-157.836914,40.435791,38.919922
34160,3.490746,1.838747,6.679823,6.622314,151.336670,-41.778564,38.941406
34200,3.016694,-0.028730,4.017470,133.850098,35.614014,-49.072266,38.904297
34240,-0.038307,2.466028,3.620033,-135.345459,-9.674072,-43.975830,38.898438
34280,-3.892972,20.288465,1.929727,99.304199,244.689941,182.586670,38.925781
34320,1.407791,25.043350,-9.591172,42.999268,112.365723,-62.530518,38.927734
34360,2.370260,16.098612,-11.224017,-8.270264,96.740723,7.629395,38.933594
34400,0.545878,10.338163,-6.047753,22.827148,79.772949,-0.366211,38.917969
34440,-4.094085,5.008670,-0.804452,42.907715,22.796631,-17.059326,38.943359
34480,-7.388506,0.952892,1.422156,78.948975,17.883301,-26.855469,38.937500
34520,-5.899313,-0.574608,0.129287,42.236328,-90.606689,10.162354,38.933594
34560,-2.384625,-0.316035,0.646434,8.361816,-81.329346,35.705566,38.919922
34600,-2.873042,6.038177,4.089296,-174.987793,-83.251953,22.338867,38.943359
34640,-3.825934,23.209391,-4.046201,-65.856934,26.275635,-9.307861,38.935547
34680,0.172383,24.186226,-11.252748,71.258545,-124.908447,12.542725,38.923828
34720,-1.379060,13.096283,-10.141838,41.473389,-125.762939,25.970459,38.953125
34760,1.230620,7.718906,-7.580042,59.204102,-120.910645,19.805908,38.951172
34800,2.264915,6.062119,-1.666364,-25.329590,-83.404541,22.491455,38.933594
34840,1.436521,5.204995,4.180276,-247.070312,-46.447754,34.576416,38.945312
34880,4.295198,1.015141,6.569689,146.423340,156.402588,-48.950195,38.947266
34920,-0.186748,1.115698,4.702212,-60.638428,-102.966309,-119.201660,38.933594
34960,-4.687847,14.748282,4.189853,45.227051,206.573486,244.659424,38.937500
35000,1.288081,27.384878,-7.790732,68.481445,148.803711,-60.546875,38.964844
35040,1.790863,18.138472,-11.247959,-10.498047,131.164551,-20.385742,38.939453
35080,1.508347,10.151415,-8.398860,21.575928,97.442627,13.854980,38.937500
35120,-2.829947,5.602432,-2.561796,22.247314,22.186279,-13.122559,38.931641
35160,-6.229713,1.910573,1.857901,26.794434,36.224365,-28.625488,38.941406
35200,-6.311116,-0.919373,1.106121,69.091797,-32.897949,0.183105,38.935547
35240,-4.070143,-0.756568,0.335188,5.981445,-99.700928,66.955566,38.923828
35280,-1.675941,2.480393,1.029507,-33.843994,-103.973389,33.721924,38.935547
35320,-5.425261,20.839132,-0.732626,-226.715088,75.958252,-68.878174,38.929688
35360,-0.023942,27.657818,-12.239159,104.492188,-162.506104,2.532959,38.908203
35400,-1.632846,15.370775,-10.443508,61.370850,-112.365723,23.254395,38.937500
35440,0.670376,7.053318,-8.513782,68.542480,-123.443604,16.693115,38.951172
35480,2.327164,4.999093,-2.456451,-3.356934,-67.657471,18.341064,38.933594
35520,0.536301,5.329493,3.337517,-270.904541,-114.074707,74.127197,38.921875
35560,3.165135,1.790863,5.348647,130.859375,178.222656,-24.200439,38.927734
35600,1.867477,1.168370,5.458780,1.892090,58.349609,-66.162109,38.919922
35640,-2.159570,12.593501,5.712565,-53.283691,21.759033,169.616699,38.916016
35680,2.087744,26.676195,-8.212111,129.791260,136.718750,-45.318604,38.921875
35720,1.623269,19.474436,-12.785037,7.202148,134.399414,-48.675537,38.927734
35760,1.680730,10.687716,-10.065224,25.573730,100.738525,15.136719,38.910156
35800,-2.748544,6.722919,-3.059790,22.796631,36.987305,-23.468018,38.917969
35840,-7.038953,3.160346,1.675941,18.676758,6.103516,-44.525146,38.939453
35880,-6.038177,-0.339977,0.952892,77.514648,-65.368652,-1.068115,38.937500
35920,-3.327940,-0.545878,0.713472,-7.446289,-73.303223,38.726807,38.937500
35960,-2.331953,4.558560,2.935291,-122.314453,-59.112549,30.883789,38.929688
36000,-3.854665,20.087353,-2.772485,-82.855225,42.816162,-12.756348,38.929688
36040,-0.536301,24.899698,-11.535264,76.354980,-131.713867,14.282227,38.953125
36080,-1.766921,14.714764,-10.831368,36.956787,-113.433838,20.050049,38.933594
36120,0.857124,7.867347,-7.867347,57.159424,-120.025635,15.869141,38.937500
36160,1.738190,5.726931,-1.714248,-24.627686,-95.245361,17.639160,38.923828
36200,1.221043,4.984728,3.375824,-260.589600,-67.108154,38.421631,38.929688
36240,3.768473,1.163582,5.726931,104.125977,206.237793,-57.556152,38.929688
36280,1.134852,0.507571,3.399766,-2.075195,-65.063477,-88.562012,38.935547
36320,-4.673482,14.465767,6.028600,-28.045654,119.476318,191.986084,38.923828
36360,0.603339,26.843790,-5.990293,98.937988,140.380859,-27.374268,38.933594
36400,0.521936,18.296490,-11.061212,-5.279541,116.180420,-27.099609,38.943359
36440,0.751779,10.448297,-8.370130,6.225586,114.379883,5.828857,38.914062
36480,-2.269703,5.985504,-2.580950,15.472412,43.609619,-7.720947,38.943359
36520,-6.057330,2.322376,1.948880,23.071289,23.620605,-29.724121,38.929688
36560,-6.057330,-0.699107,0.986411,90.728760,-34.698486,0.305176,38.943359
36600,-3.974375,-0.976834,0.090980,14.648438,-78.399658,52.764893,38.929688
36640,-3.074155,3.514688,2.643199,-120.941162,-60.485840,51.696777,38.931641
36680,-5.315128,21.303606,-1.790863,-122.406006,67.230225,-50.659180,38.947266
36720,-0.057461,26.886885,-10.687716,77.392578,-133.300781,10.833740,38.939453
36760,-1.671153,15.251065,-10.084377,34.881592,-112.518311,21.148682,38.962891
36800,0.689530,8.710106,-7.718906,48.461914,-124.755859,18.951416,38.960938
36840,2.442086,5.951985,-2.422932,10.711670,-89.477539,14.465332,38.929688
36880,1.264138,4.888960,2.964022,-252.716064,-97.015381,60.974121,38.939453
36920,4.084508,1.283292,6.014235,108.184814,232.330322,-72.875977,38.937500
36960,0.627281,-0.368707,2.940080,44.250488,-50.140381,-38.604736,38.927734
37000,-3.256114,6.698977,6.871359,-172.851562,-10.864258,-27.038574,38.937500
37040,1.034295,25.407269,-4.687847,97.320557,181.274414,39.947510,38.933594
37080,1.580173,23.223757,-10.730812,-5.737305,106.140137,-47.088623,38.947266
37120,2.331953,13.575124,-9.907207,-5.767822,112.976074,5.706787,38.929688
37160,-0.407014,7.704541,-4.707001,8.514404,71.624756,-7.873535,38.919922
37200,-4.812346,3.490746,0.129287,24.902344,33.325195,-14.038086,38.962891
37240,-6.483498,0.038307,1.086968,70.678711,28.686523,-7.476807,38.937500
37280,-5.176264,-0.699107,0.004788,32.287598,-79.284668,32.958984,38.947266
37320,-3.150769,1.403002,1.455675,-66.986084,-89.599609,26.977539,38.937500
37360,-5.013458,13.527240,3.548207,-192.077637,72.418213,-49.163818,38.962891
37400,-0.713472,27.298687,-7.671022,52.917480,-110.473633,3.051758,38.939453
37440,-1.546654,19.359514,-9.270349,52.490234,-106.719971,16.815186,38.933594
37480,-1.283292,11.022904,-7.900866,39.794922,-145.568848,16.387939,38.919922
37520,1.589750,6.186617,-4.357447,57.067871,-125.823975,-5.340576,38.929688
37560,1.302446,4.587290,1.364695,-66.101074,-126.373291,0.732422,38.933594
37600,0.914585,1.920150,4.055778,-60.638428,-87.829590,107.330322,38.937500
37640,3.064578,0.656011,3.572149,110.046387,278.564453,82.946777,38.949219
37680,1.359907,4.788404,6.847417,-123.260498,17.364502,-90.240479,38.917969
37720,4.620809,24.200590,-1.288081,94.818115,132.354736,-35.614014,38.937500
37760,2.633622,24.961946,-9.054871,48.065186,175.415039,-66.223145,38.935547
37800,1.522712,14.748282,-10.548853,8.911133,125.885010,0.000000,38.921875
37840,-0.866701,8.480263,-5.722142,18.188477,90.240479,-6.958008,38.933594
37880,-5.013458,4.400543,-0.603339,26.855469,32.135010,-35.888672,38.949219
37920,-6.607996,0.818817,1.216254,66.650391,11.138916,-40.954590,38.917969
37960,-5.037400,-0.871489,-0.114922,32.501221,-71.899414,8.483887,38.937500
38000,-3.227384,-0.071826,1.086968,-37.597656,-75.531006,46.752930,38.933594
38040,-4.707001,11.305421,3.969586,-186.767578,41.412354,-12.023926,38.947266
38080,-2.595315,27.001806,-6.971915,35.400391,-100.372314,12.664795,38.955078
38120,-1.651999,20.446482,-9.883265,42.358398,-124.847412,9.643555,38.941406
38160,-1.043872,12.215217,-8.882488,31.219482,-141.571045,14.587402,38.939453
38200,1.924938,7.005434,-5.492299,78.643799,-123.809814,-0.885010,38.931641
38240,2.126051,4.410120,-0.095768,-17.547607,-116.180420,21.148682,38.949219
38280,1.297657,2.916138,3.902549,-203.094482,-57.983398,136.718750,38.937500
38320,4.175488,0.636858,4.836287,123.321533,189.880371,-67.932129,38.914062
38360,0.723049,1.963245,4.711789,-82.092285,-19.073486,-87.280273,38.947266
38400,-2.829947,18.081011,4.151546,32.897949,204.803467,145.324707,38.951172
38440,1.460463,26.719292,-7.489063,70.709229,154.998779,-58.898926,38.933594
38480,2.073379,17.788919,-11.013328,-10.925293,96.405029,-5.310059,38.923828
38520,1.211466,11.391612,-7.115568,3.692627,101.043701,5.645752,38.957031
38560,-2.485181,5.875371,-2.202666,56.976318,52.093506,-9.429932,38.939453
38600,-6.287174,1.742979,0.775721,54.504395,28.167725,-33.599854,38.949219
38640,-6.368577,-0.306458,0.148441,61.462402,-37.445068,-8.178711,38.933594
38680,-3.490746,-0.656011,-0.062249,7.965088,-81.237793,18.005371,38.941406
38720,-3.251326,3.888184,2.691083,-133.209229,-74.005127,45.379639,38.904297
38760,-4.635174,20.269312,-1.278504,-127.014160,13.916016,-26.153564,38.941406
38800,0.847547,25.249250,-9.404425,55.053711,-109.008789,14.099121,38.962891
38840,-1.154005,16.218323,-8.781932,11.535645,-112.579346,15.502930,38.957031
38880,0.411803,10.089166,-7.010222,37.384033,-132.110596,13.122559,38.925781
38920,1.857901,6.153099,-2.762909,36.834717,-102.844238,0.640869,38.943359
38960,0.933739,4.113238,2.063802,-93.811035,-120.086670,4.608154,38.933594
39000,1.853112,1.412579,3.466804,-96.679688,23.925781,74.340820,38.943359
39040,3.059790,-0.181959,3.021482,106.048584,83.343506,-95.367432,38.933594
39080,-1.268927,5.233725,5.655105,-193.450928,-84.564209,-48.187256,38.943359
39120,1.436521,24.147919,1.948880,68.695068,233.551025,91.033936,38.925781
39160,2.542642,25.009830,-7.939173,45.898438,138.000488,-69.305420,38.939453
39200,2.140416,15.796943,-10.074800,4.577637,121.582031,8.941650,38.966797
39240,0.368707,10.146626,-5.286397,12.786865,90.362549,11.444092,38.937500
39280,-3.514688,4.817134,-0.272939,18.280029,59.082031,-11.627197,38.927734
39320,-6.157887,1.077391,1.168370,57.067871,57.373047,-23.010254,38.943359
39360,-5.487510,-0.416591,-0.248997,59.570312,-72.357178,17.913818,38.933594
39400,-3.189077,-0.162806,0.047884,7.080078,-63.140869,27.313232,38.943359
39440,-6.157887,8.317456,4.505888,-163.024902,32.653809,-26.855469,38.931641
39480,-3.682282,25.383326,-6.071695,-24.475098,-98.632812,12.390137,38.945312
39520,0.804452,22.941240,-8.839393,56.396484,-117.279053,19.409180,38.968750
39560,-0.861913,12.579136,-7.637504,33.905029,-129.730225,14.312744,38.943359
39600,1.623269,6.900089,-5.655105,63.201904,-114.227295,9.857178,38.953125
39640,2.561796,5.343858,-0.469264,-22.766113,-86.273193,3.265381,38.970703
39680,1.537078,3.299210,4.271256,-43.853760,-115.264893,35.003662,38.937500
39720,1.628057,0.244209,3.098097,34.271240,126.220703,179.351807,38.921875
39760,0.828394,1.470040,4.113238,-20.019531,73.913574,0.030518,38.937500
39800,0.670376,15.782578,4.438850,-58.837891,110.961914,-66.986084,38.957031
39840,6.478710,28.960264,-7.029376,101.898193,143.218994,4.852295,38.962891
39880,5.837064,19.728222,-9.265560,29.388428,147.735596,-9.490967,38.964844
39920,3.596091,10.821792,-7.254431,30.883789,130.126953,3.784180,38.966797
39960,-2.576161,6.143522,-2.470816,36.895752,76.446533,-37.109375,38.945312
40000,-7.015011,2.815581,0.311246,41.412354,48.370361,-47.973633,38.978516
40040,-6.473921,0.220267,-0.837971,72.479248,-60.577393,-6.469727,38.955078
40080,-3.830723,-0.550666,-0.095768,4.791260,-67.321777,23.284912,38.929688
40120,-3.179500,4.419696,2.533065,-127.838135,-66.009521,29.083252,38.953125
40160,-4.711789,21.337126,-3.519476,-121.917725,-11.718750,-16.754150,38.951172
40200,1.891419,24.751257,-10.089166,55.267334,-118.774414,20.416260,38.968750
40240,1.848324,15.193604,-9.097966,30.792236,-82.458496,3.723145,38.966797
40280,2.375048,8.729259,-6.258443,40.771484,-136.535645,21.453857,38.986328
40320,3.026271,5.396531,-1.891419,18.127441,-113.830566,-21.057129,38.957031
40360,1.345541,3.969586,3.394978,-65.917969,-134.490967,-16.082764,38.966797
40400,1.493982,0.809240,3.902549,43.426514,5.340576,87.371826,38.947266
40440,1.335965,0.162806,1.786075,5.615234,169.708252,105.194092,38.945312
40480,0.526724,7.163452,6.315904,-193.023682,-18.890381,-130.310059,38.953125
40520,4.965574,26.159048,-4.362236,93.200684,177.825928,-53.314209,38.976562
40560,2.523489,23.774424,-9.888053,51.879883,104.248047,-38.299561,38.962891
40600,1.618480,13.737929,-9.461885,21.026611,103.851318,5.187988,38.964844
40640,-0.928950,6.880936,-5.133168,28.259277,55.725098,-13.488770,38.957031
40680,-4.989516,3.529053,-0.153229,28.747559,14.526367,-31.097412,38.953125
40720,-6.220136,0.976834,1.106121,48.187256,14.526367,-42.144775,38.980469
40760,-4.659117,-0.248997,0.167594,15.838623,-92.315674,20.996094,38.949219
40800,-3.557784,3.797204,2.628834,-106.201172,-41.717529,29.541016,38.951172
40840,-4.769250,17.238253,-3.418920,-82.427979,-6.835938,-23.773193,38.949219
40880,0.761356,24.961946,-9.342175,48.034668,-120.086670,9.399414,38.958984
40920,-0.646434,15.552734,-8.552089,22.827148,-134.338379,23.345947,38.978516
40960,0.651223,9.193734,-6.545747,31.738281,-135.375977,21.301270,38.966797
41000,2.298434,6.421249,-2.695871,20.294189,-103.332520,0.122070,38.939453
41040,1.848324,4.285621,2.288857,-44.036865,-95.916748,-49.316406,38.960938
41080,1.302446,0.426168,3.184288,55.297852,-44.219971,71.075439,38.945312
41120,1.201889,1.647211,3.466804,-107.818604,91.400146,34.301758,38.949219
41160,-0.071826,8.049306,6.033388,-91.735840,41.442871,7.507324,38.933594
41200,4.098873,23.180660,-3.418920,88.714600,171.661377,-37.933350,38.978516
41240,1.982399,24.511837,-9.744401,7.904053,123.931885,-42.694092,38.951172
41280,1.575385,15.236700,-9.825804,13.183594,93.109131,8.728027,38.976562
41320,-0.081403,7.101202,-4.922479,20.233154,77.209473,11.810303,38.957031
41360,-4.774038,3.457227,0.287304,7.843018,62.438965,-15.380859,38.949219
41400,-6.651093,0.316035,0.895431,71.929932,22.277832,-10.375977,38.951172
41440,-4.668694,-0.497994,-0.354342,43.395996,-85.693359,28.167725,38.974609
41480,-3.155558,1.675941,1.182736,-60.913086,-51.940918,36.102295,38.962891
41520,-7.575254,14.106636,2.039860,-144.287109,10.162354,-62.896729,38.964844
41560,-1.053449,25.541344,-9.854534,24.749756,-140.502930,39.489746,38.970703
41600,-0.512359,18.909405,-9.442732,50.506592,-136.383057,21.789551,38.958984
41640,0.531513,10.113108,-8.111555,47.119141,-121.917725,8.789062,38.970703
41680,2.442086,5.894525,-5.137957,48.889160,-88.348389,6.652832,38.972656
41720,2.226608,5.315128,0.785298,-42.419434,-124.389648,0.579834,38.933594
41760,1.666364,2.557007,4.343082,16.021729,-107.788086,50.018311,38.968750
41800,2.691083,0.301669,2.571373,37.963867,166.931152,216.644287,38.960938
41840,3.308787,8.264784,8.164227,-160.888672,77.484131,-117.553711,38.980469
41880,8.020576,24.229321,-3.682282,42.968750,212.890625,-44.097900,38.962891
41920,2.245761,23.008278,-10.314221,44.708252,190.979004,-94.573975,38.960938
41960,-0.057461,14.312538,-11.530476,-0.946045,110.839844,-10.467529,38.960938
42000,-1.335965,8.015787,-6.291962,4.058838,34.210205,8.666992,38.960938
42040,-4.304775,3.198653,-0.229843,23.895264,26.855469,-21.545410,38.960938
42080,-6.411672,0.402226,1.307234,56.610107,36.529541,-29.022217,38.978516
42120,-5.621585,-0.565032,0.210690,23.864746,-67.810059,14.129639,38.968750
42160,-3.529053,2.102109,1.958457,-80.566406,-78.491211,27.099609,38.980469
42200,-5.861006,16.108189,-1.632846,-126.831055,24.871826,-39.215088,38.972656
42240,-0.895431,25.206156,-8.925584,64.849854,-138.153076,20.080566,38.976562
42280,-0.814029,16.955736,-9.495404,33.447266,-122.558594,27.160645,38.990234
42320,0.727837,9.667787,-7.225701,32.135010,-135.467529,14.495850,38.966797
42360,2.834735,5.789180,-3.634398,44.586182,-104.705811,10.437012,38.962891
42400,2.121263,4.970363,2.030283,-61.279297,-132.415771,12.695312,38.974609
42440,2.073379,1.905785,4.414908,-26.641846,-68.267822,169.189453,38.978516
42480,2.408567,0.325611,3.203442,90.850830,215.057373,122.833252,38.957031
42520,1.853112,4.486734,5.075707,-163.177490,-21.118164,-128.845215,38.970703
42560,7.129933,26.245239,-2.260126,38.970947,227.966309,-55.450439,38.970703
42600,4.338294,24.009054,-9.165004,58.563232,160.919189,-38.452148,38.962891
42640,2.240973,14.523228,-9.902418,-4.699707,133.911133,-12.573242,38.992188
42680,-0.378284,9.078813,-5.851429,26.184082,102.111816,-6.164551,38.976562
42720,-4.912902,4.395754,-1.211466,48.522949,62.316895,-49.346924,38.939453
42760,-7.383718,0.871489,-0.138864,71.777344,10.467529,-37.658691,38.939453
42800,-5.473145,-0.818817,-1.015141,31.463623,-73.547363,13.031006,38.980469
42840,-4.118027,-0.411803,0.622492,-21.148682,-80.230713,61.584473,38.976562
42880,-6.737284,10.371682,2.054225,-149.261475,49.865723,-6.652832,38.951172
42920,0.497994,26.206932,-9.471462,-25.329590,-163.146973,41.412354,38.970703
42960,2.896984,19.996372,-9.399636,48.522949,-103.820801,21.362305,38.957031
43000,1.905785,11.338940,-7.412448,20.172119,-136.474609,15.136719,38.968750
43040,3.294421,7.029376,-4.568137,44.372559,-105.926514,-3.143311,38.970703
43080,2.700660,5.693412,1.077391,-33.233643,-96.832275,-23.712158,38.970703
43120,2.082955,3.007117,5.300763,14.373779,-87.677002,-73.638916,38.970703
43160,1.187524,-0.799663,2.753332,34.240723,10.620117,64.758301,38.960938
43200,0.694318,3.179500,2.944868,-230.072021,65.155029,32.440186,38.978516
43240,6.684611,21.394587,1.781286,5.523682,294.555664,46.752930,38.990234
43280,6.086061,24.463953,-7.168240,101.135254,154.663086,-36.712646,38.960938
43320,3.600879,15.552734,-9.672575,16.357422,151.000977,-15.533447,38.958984
43360,1.039083,9.595961,-7.139510,29.205322,136.901855,-7.263184,38.962891
43400,-4.333505,6.387730,-1.934515,51.055908,76.538086,-60.028076,38.955078
43440,-7.201759,2.418144,-0.665588,74.401855,22.949219,-58.837891,38.957031
43480,-5.659893,-0.138864,-0.919373,55.633545,-96.740723,-12.023926,38.980469
43520,-2.920926,-0.368707,0.330400,7.354736,-53.375244,39.520264,38.949219
43560,-7.532158,7.177817,3.150769,-106.872559,51.055908,-4.608154,38.966797
43600,-3.821146,24.559721,-10.596737,-68.756104,-156.768799,21.392822,38.970703
43640,2.221819,23.855825,-10.433931,66.375732,-144.927979,29.479980,38.982422
43680,2.202666,11.942278,-8.757990,35.430908,-108.520508,4.760742,38.962891
43720,2.762909,5.774815,-5.635951,48.248291,-93.566895,13.916016,38.988281
43760,2.705448,5.482722,-0.426168,-26.794434,-105.804443,6.378174,39.015625
43800,2.197877,5.032612,4.175488,-23.742676,-142.150879,-35.034180,38.988281
43840,2.437297,0.301669,2.355895,-8.056641,19.500732,147.766113,38.994141
43880,2.116474,1.948880,5.679047,-63.812256,159.118652,-82.153320,38.994141
43920,6.507440,19.752165,2.935291,1.617432,220.214844,98.815918,38.996094
43960,4.869806,26.350584,-8.413225,102.233887,241.210938,-94.116211,38.990234
44000,1.891419,16.644489,-11.324574,19.927979,128.143311,-43.731689,39.001953
44040,0.095768,8.801085,-8.092402,14.068604,70.983887,9.735107,38.994141
44080,-3.189077,4.477157,-2.245761,25.360107,27.587891,-16.998291,38.978516
44120,-5.975927,2.020706,0.732626,40.191650,-3.570557,-36.071777,38.992188
44160,-5.109226,-0.181959,-0.277727,56.610107,-76.995850,-8.514404,38.990234
44200,-2.954445,0.043096,0.311246,-26.092529,-94.696045,17.059326,38.986328
44240,-2.446874,9.069236,4.367024,-174.621582,25.482178,13.244629,38.980469
44280,-0.344765,25.076868,-4.194642,5.828857,-17.242432,12.298584,39.011719
44320,-0.387861,22.021868,-9.696517,62.347412,-80.505371,-2.227783,38.996094
44360,-0.814029,12.440272,-9.006987,6.195068,-128.997803,20.568848,38.992188
44400,1.374272,7.029376,-6.335058,57.586670,-125.122070,14.465332,38.992188
44440,2.485181,4.424485,-1.766921,14.556885,-90.393066,-27.923584,39.009766
44480,1.206678,3.332729,3.634398,-19.531250,-96.710205,-13.977051,39.007812
44520,1.776498,0.742203,2.796427,19.500732,59.478760,119.750977,39.005859
44560,2.729390,3.404555,4.912902,-110.595703,185.943604,27.282715,38.986328
44600,4.687847,19.383457,4.237737,4.486084,195.861816,-66.894531,39.001953
44640,3.021482,24.502260,-9.543288,65.216064,143.676758,-69.854736,38.998047
44680,0.761356,17.808073,-10.611102,0.823975,65.734863,-4.943848,38.996094
44720,0.943315,10.381259,-6.459556,8.178711,48.645020,21.026611,38.974609
44760,-2.092532,5.027823,-1.493982,19.744873,38.024902,-13.824463,38.976562
44800,-5.702989,2.054225,1.034295,48.522949,17.883301,-16.601562,38.992188
44840,-5.937620,-0.038307,0.248997,74.890137,-48.858643,12.634277,38.986328
44880,-3.433285,0.253785,-0.090980,17.913818,-77.331543,28.137207,38.982422
44920,-2.964022,7.972692,2.394202,-162.139893,-6.042480,-2.319336,38.996094
44960,-1.776498,23.760057,-4.481946,-21.362305,-67.260742,28.503418,39.000000
45000,0.502782,21.906946,-9.208099,47.363281,-95.367432,-0.915527,39.005859
45040,-0.201113,13.469779,-8.772355,5.371094,-137.237549,17.517090,39.011719
45080,1.565808,8.121132,-6.971915,54.962158,-135.345459,20.446777,38.998047
45120,2.676718,4.845864,-2.638410,39.825439,-99.548340,-19.165039,38.972656
45160,1.106121,3.921702,3.270479,-14.739990,-116.790771,-32.592773,38.980469
45200,1.441309,1.086968,3.131616,24.169922,20.324707,39.550781,38.986328
45240,2.643199,1.115698,1.541866,-158.081055,131.256104,169.342041,38.998047
45280,5.420473,16.089035,6.679823,-49.224854,53.100586,-45.440674,38.992188
45320,4.831499,23.975536,-6.086061,74.645996,167.907715,-64.453125,38.990234
45360,0.349553,19.709068,-10.194510,17.974854,107.696533,-58.685303,38.992188
45400,0.225055,12.023681,-9.251195,-0.152588,34.851074,21.575928,38.990234
45440,-1.125275,6.952762,-3.696647,13.610840,55.511475,-7.293701,38.976562
45480,-4.261679,3.366248,0.675165,38.879395,29.357910,-7.232666,38.990234
45520,-5.564125,0.694318,0.957681,60.211182,19.897461,4.638672,38.988281
45560,-4.328717,-0.239420,0.009577,33.172607,-83.526611,25.268555,39.001953
45600,-1.766921,1.407791,0.076614,-32.135010,-91.125488,27.893066,38.970703
45640,-3.236961,16.524780,1.527501,-189.056396,65.032959,-45.959473,38.984375
45680,1.110910,25.287558,-7.474698,86.395264,-87.829590,8.636475,38.984375
45720,-0.454898,17.324444,-9.911995,22.521973,-81.146240,14.068604,38.996094
45760,-0.019154,10.639832,-9.102755,33.874512,-133.911133,29.418945,39.001953
45800,2.389413,6.584054,-5.621585,55.603027,-107.452393,8.087158,39.005859
45840,1.958457,5.046977,0.837971,-22.094727,-122.650146,-3.082275,38.992188
45880,1.886631,2.782062,4.299986,-8.422852,-75.317383,64.300537,39.001953
45920,2.082955,0.536301,2.054225,-35.034180,121.612549,150.604248,38.994141
45960,4.285621,3.811569,3.557784,-109.771729,115.875244,-73.699951,39.011719
46000,5.410896,23.544580,0.952892,-1.983643,234.680176,-88.439941,38.992188
46040,3.131616,24.578875,-9.275137,55.694580,141.723633,-64.727783,39.005859
46080,1.388637,15.265430,-10.079589,4.791260,45.410156,12.268066,39.025391
46120,0.416591,7.671022,-6.224925,15.350342,62.774658,8.575439,39.011719
46160,-4.079720,4.352659,-0.531513,33.782959,54.504395,-31.585693,38.986328
46200,-6.603208,1.450886,0.588974,77.056885,46.112061,-14.190674,39.003906
46240,-5.865794,-0.134075,0.086191,41.442871,-81.695557,2.288818,38.990234
46280,-2.336741,0.799663,0.191536,-15.167236,-102.691650,27.954102,39.001953
46320,-3.227384,13.570335,2.370260,-187.530518,56.518555,-24.993896,39.001953
46360,-0.090980,26.819847,-6.775591,71.960449,-98.510742,20.629883,39.007812
46400,-0.277727,18.942924,-10.079589,39.001465,-98.175049,4.241943,39.001953
46440,-0.306458,10.596737,-9.160215,29.846191,-143.615723,16.876221,39.019531
46480,2.303222,5.980716,-5.899313,58.410645,-116.638184,-1.098633,39.001953
46520,2.504335,4.644751,0.579397,-24.475098,-96.496582,1.831055,39.009766
46560,1.948880,2.719813,4.232949,-53.466797,-100.677490,121.337891,39.003906
46600,3.112462,1.254562,3.074155,0.762939,252.197266,83.038330,39.005859
46640,3.916914,3.078943,4.314352,-71.624756,40.069580,-71.350098,39.005859
46680,4.319140,23.276428,1.168370,1.312256,260.314941,-103.149414,38.990234
46720,2.197877,24.770411,-9.773131,51.788330,129.119873,-64.056396,38.990234
46760,0.282516,15.303738,-10.548853,-11.444092,9.216309,21.972656,38.970703
46800,-0.023942,8.485051,-6.359000,-5.371094,41.168213,14.953613,39.000000
46840,-3.131616,5.243302,-1.101333,10.681152,18.310547,-3.997803,39.015625
46880,-5.142745,1.757344,1.450886,46.997070,43.701172,4.211426,39.023438
46920,-5.396531,-0.186748,0.363919,50.170898,-40.740967,17.456055,38.992188
46960,-3.270479,0.335188,0.316035,6.866455,-100.585938,20.935059,39.025391
47000,-2.217031,9.940725,2.580950,-169.525146,32.196045,-12.664795,39.000000
47040,-0.071826,24.253263,-5.305551,0.915527,-68.511963,36.773682,39.000000
47080,0.948104,20.365080,-8.920795,53.985596,-87.066650,0.732422,39.007812
47120,0.272939,12.416330,-9.011775,25.512695,-120.117188,20.568848,39.015625
47160,2.197877,7.939173,-6.430826,53.497314,-119.201660,19.500732,38.996094
47200,2.509123,5.506664,-0.804452,4.486084,-87.677002,-6.652832,38.996094
47240,1.532289,3.720589,4.098873,-21.148682,-123.138428,-9.582520,39.015625
47280,1.920150,0.584185,2.978387,11.993408,104.461670,123.779297,39.003906
47320,3.600879,1.963245,2.355895,-93.536377,192.932129,18.707275,39.000000
47360,5.023035,18.401834,4.022259,-0.457764,105.804443,-75.805664,39.005859
47400,4.472369,24.808718,-7.584831,64.178467,164.886475,-76.477051,38.998047
47440,1.628057,17.966089,-9.969456,4.211426,94.146729,-25.726318,39.021484
47480,1.010353,10.635044,-7.762002,3.204346,65.063477,11.566162,39.011719
47520,-2.197877,5.923255,-2.595315,18.981934,53.649902,-26.489258,39.019531
47560,-5.616797,2.308010,0.828394,50.872803,49.163818,-20.050049,39.005859
47600,-6.244078,0.014365,0.090980,61.431885,-39.794922,-1.342773,38.990234
47640,-3.519476,-0.316035,-0.378284,32.409668,-83.526611,30.426025,39.001953
47680,-1.905785,5.171476,1.297657,-122.955322,-94.757080,18.981934,38.986328
47720,-2.078167,22.653936,-1.149217,-84.075928,3.021240,-1.190186,38.996094
47760,1.546654,23.458387,-9.217676,72.418213,-85.998535,0.061035,38.992188
47800,-0.225055,14.255077,-9.615114,17.272949,-102.844238,16.998291,38.998047
47840,0.962469,9.323022,-7.493851,39.703369,-129.486084,28.106689,39.011719
47880,2.566584,6.229713,-2.724602,26.550293,-90.057373,-16.296387,38.994141
47920,1.747767,4.180276,3.385401,-18.035889,-125.488281,-23.284912,39.005859
47960,1.891419,1.139640,3.414132,-12.084961,30.181885,104.949951,39.005859
48000,2.509123,0.679953,1.345541,-47.485352,186.401367,67.626953,39.000000
48040,3.663129,9.955091,4.587290,-115.936279,48.156738,-82.946777,39.003906
48080,4.458004,26.297911,-3.706224,48.980713,168.914795,-64.514160,39.000000
48120,1.484405,22.495918,-9.787497,23.773193,106.201172,-38.696289,39.001953
48160,1.867477,13.761871,-8.609550,-1.770020,54.565430,18.005371,38.982422
48200,-0.220267,7.474698,-3.404555,6.896973,110.229492,-13.366699,39.021484
48240,-5.051765,3.390190,-0.191536,45.745850,87.127686,-30.517578,38.988281
48280,-6.952762,0.703895,-0.004788,50.598145,-23.864746,-25.604248,39.011719
48320,-4.319140,-0.670376,-0.181959,31.829834,-67.077637,27.893066,38.992188
48360,-2.207454,-0.555455,-0.143652,6.317139,-71.411133,41.809082,38.992188
48400,-5.583278,13.709199,0.397437,-166.931152,87.554932,-56.701660,39.001953
48440,0.521936,28.337770,-7.608773,57.006836,-134.887695,26.702881,39.011719
48480,0.914585,18.837580,-8.714894,32.928467,-74.493408,-4.119873,39.009766
48520,0.009577,10.237606,-7.690176,35.247803,-146.423340,29.724121,39.025391
48560,1.972822,6.703765,-4.702212,52.001953,-117.034912,9.826660,39.011719
48600,2.140416,4.735731,0.871489,-4.638672,-101.135254,-26.153564,39.017578
48640,1.963245,2.691083,4.395754,-18.585205,-72.601318,11.810303,39.019531
48680,2.035071,0.924162,2.513912,-57.342529,45.196533,63.964844,39.017578
48720,4.922479,4.285621,2.911349,-157.806396,298.858643,125.152588,39.011719
48760,5.281609,20.834343,0.608127,55.267334,201.263428,-96.771240,39.001953
48800,2.212242,25.148695,-8.279149,29.541016,136.962891,-53.985596,39.013672
48840,1.455675,15.902287,-8.772355,7.080078,52.490234,19.653320,39.001953
48880,1.197101,7.886500,-5.267244,12.176514,80.078125,9.796143,39.023438
48920,-3.969586,4.587290,-0.536301,25.177002,67.871094,-24.444580,39.023438
48960,-6.943185,1.982399,-0.378284,56.335449,30.426025,-24.871826,39.005859
49000,-5.683835,0.301669,-0.933739,40.527344,-76.599121,7.141113,39.009766
49040,-3.035848,0.339977,-0.339977,-14.221191,-92.315674,25.512695,39.001953
49080,-4.520253,11.674128,0.770933,-150.848389,35.064697,-25.054932,38.990234
49120,0.225055,26.039337,-5.951985,23.040771,-135.833740,34.454346,39.001953
49160,1.407791,19.665974,-7.781156,34.790039,-87.371826,-1.739502,39.009766
49200,0.656011,11.324574,-7.493851,22.186279,-154.632568,26.184082,39.007812
49240,2.312799,6.871359,-4.764462,60.333252,-137.451172,1.983643,39.019531
49280,2.734178,3.854665,-0.713472,34.057617,-88.653564,-38.391113,39.000000
49320,1.747767,2.461239,3.854665,-21.148682,-131.988525,-30.944824,39.015625
49360,2.202666,0.550666,2.786851,7.659912,107.391357,121.612549,39.019531
49400,3.864242,3.371036,3.428497,-151.123047,214.599609,13.458252,39.011719
49440,4.999093,22.371420,4.338294,-11.901855,179.565430,-93.261719,39.000000
49480,3.088520,25.306711,-7.651869,77.880859,135.131836,-58.715820,39.003906
49520,0.545878,17.065870,-9.054871,-13.916016,57.281494,0.793457,39.005859
49560,0.210690,8.983045,-5.971139,11.627197,69.854736,10.375977,38.988281
49600,-3.462016,4.630386,-1.613692,30.181885,53.771973,-19.866943,39.019531
49640,-6.023811,1.709460,0.368707,51.605225,21.148682,-18.768311,39.011719
49680,-5.295974,-0.023942,-0.215478,41.961670,-47.302246,6.744385,39.031250
49720,-3.375824,0.239420,0.225055,-11.749268,-72.875977,27.923584,39.019531
49760,-6.359000,9.864111,1.407791,-107.055664,-19.866943,-26.092529,39.001953
49800,-2.408567,24.904486,-6.694188,9.826660,-139.495850,31.921387,39.001953
49840,1.321599,20.906170,-8.695741,57.037354,-138.244629,17.547607,39.003906
49880,0.804452,11.587936,-8.164227,29.052734,-140.472412,23.437500,38.996094
49920,2.480393,6.880936,-5.506664,57.678223,-120.605469,10.864258,38.984375
49960,2.695871,5.032612,-0.407014,10.620117,-98.449707,-10.833740,38.992188
50000,2.068590,3.993528,4.687847,-32.440186,-118.896484,0.152588,38.990234
50040,2.446874,0.660800,2.829947,8.026123,59.082031,150.177002,38.996094
50080,1.374272,1.695095,2.394202,-166.473389,111.907959,74.951172,38.992188
50120,5.324705,21.782448,4.228160,-45.684814,218.048096,-83.557129,39.009766
50160,5.626374,26.159048,-4.903325,106.689453,174.804688,-52.856445,39.001953
50200,2.873042,16.706739,-9.141062,0.915527,135.833740,-22.125244,38.996094
50240,0.833182,10.572795,-7.546524,6.958008,109.008789,13.122559,38.996094
50280,-2.552219,5.645528,-2.825158,43.731689,58.105469,-16.113281,38.998047
50320,-5.702989,2.188300,0.612916,33.111572,56.243896,-44.342041,39.011719
50360,-5.865794,-0.153229,-0.095768,69.824219,-42.694092,-9.826660,39.025391
50400,-3.514688,-0.090980,-0.215478,10.070801,-53.588867,20.782471,39.011719
50440,-5.616797,6.665458,2.102109,-91.033936,31.250000,10.742188,39.005859
50480,-3.873818,24.123976,-6.900089,-62.316895,-128.540039,25.054932,39.017578
50520,1.493982,22.620419,-8.566454,53.894043,-114.196777,11.444092,39.007812
50560,1.024718,13.086706,-7.532158,10.833740,-129.058838,10.559082,39.007812
50600,2.647987,7.948750,-5.104438,50.537109,-123.840332,4.272461,39.019531
50640,2.705448,4.659117,-1.350330,34.393311,-102.020264,-21.209717,39.015625
50680,1.546654,3.222595,3.773262,-10.498047,-129.150391,-29.235840,38.996094
50720,1.872266,0.268151,3.442862,16.387939,-21.545410,168.823242,39.001953
50760,1.699883,1.355118,3.193865,-115.325928,123.596191,110.412598,39.013672
50800,4.922479,20.772095,5.104438,-52.337646,251.983643,-80.017090,38.998047
50840,6.679823,27.509378,-6.564901,99.365234,165.557861,-32.379150,38.992188
50880,4.754885,17.635689,-8.623915,16.021729,133.880615,-10.467529,39.005859
50920,2.513912,10.070012,-6.268020,17.150879,129.638672,1.007080,39.023438
50960,-1.920150,5.980716,-2.571373,52.246094,104.187012,-25.848389,39.015625
51000,-6.148310,2.408567,-0.632069,64.514160,53.375244,-36.865234,39.005859
51040,-6.459556,0.253785,-1.465251,33.386230,-36.254883,-18.432617,39.019531
51080,-4.204218,-0.833182,-0.742203,19.287109,-64.910889,5.554199,38.990234
51120,-2.858677,4.098873,1.714248,-98.022461,-8.087158,8.453369,39.005859
51160,-4.280833,19.642031,-3.141193,-121.490479,-54.321289,19.073486,38.994141
51200,0.320823,26.211720,-8.379706,32.379150,-117.156982,1.708984,38.982422
51240,1.005565,16.701952,-8.178593,8.972168,-115.692139,9.765625,38.990234
51280,1.848324,9.169792,-6.636727,29.418945,-163.482666,22.766113,38.992188
51320,3.404555,4.697424,-3.888184,53.405762,-125.061035,-22.827148,39.003906
51360,2.212242,2.834735,1.441309,4.486084,-112.762451,-16.937256,38.992188
51400,1.905785,1.340753,3.189077,0.854492,-11.840820,114.685059,38.992188
51440,2.609680,1.331176,2.753332,-193.939209,131.347656,155.273438,38.980469
51480,4.740520,10.218452,7.747637,-33.050537,100.921631,-28.228760,38.996094
51520,6.684611,24.650702,-1.493982,106.750488,199.523926,-48.217773,39.000000
51560,4.625597,21.576546,-9.447520,21.392822,111.297607,-36.346436,38.996094
51600,2.935291,12.761095,-7.671022,0.854492,79.925537,13.977051,39.009766
51640,-0.071826,7.910442,-3.141193,11.474609,54.473877,-4.760742,39.000000
51680,-4.285621,4.458004,0.445322,25.238037,11.230469,-26.275635,39.025391
51720,-6.028600,1.067814,0.033519,61.340332,-21.392822,-14.801025,39.011719
51760,-5.094861,-0.316035,-1.618480,14.099121,-72.357178,16.662598,39.000000
51800,-3.725378,0.890643,0.023942,-33.813477,-101.226807,7.659912,38.998047
51840,-5.075707,11.640609,-0.718261,-126.373291,-61.309814,-49.468994,39.025391
51880,2.312799,27.542896,-5.334281,-6.805420,-112.335205,45.288086,38.990234
51920,4.137180,21.317972,-7.311892,35.003662,-63.842773,-16.204834,39.015625
51960,2.284068,11.439496,-6.885724,32.714844,-90.148926,10.650635,39.000000
52000,2.643199,6.564901,-3.739743,37.109375,-115.234375,1.251221,38.988281
52040,2.432509,3.888184,0.742203,-3.692627,-80.627441,-45.104980,38.980469
52080,1.254562,1.862689,4.304775,-0.427246,-109.497070,-29.418945,38.982422
52120,1.647211,-0.086191,2.940080,-46.783447,-20.385742,92.315674,38.986328
52160,0.215478,6.478710,6.019023,-153.625488,108.062744,55.236816,39.005859
52200,6.133945,23.022644,1.532289,102.294922,189.483643,10.284424,38.986328
52240,5.554548,23.338678,-6.493075,47.485352,145.477295,-65.643311,38.996094
52280,3.418920,14.935030,-7.905654,-9.338379,130.889893,-14.038086,38.988281
52320,0.900220,9.926360,-5.233725,35.980225,109.039307,-3.082275,39.003906
52360,-3.256114,4.979939,-1.786075,74.157715,61.889648,-35.980225,38.982422
52400,-6.722919,1.345541,-0.119710,51.513672,3.509521,-65.368652,38.982422
52440,-5.846641,-0.531513,-0.632069,44.738770,-60.485840,-32.928467,38.990234
52480,-4.060566,0.000000,1.154005,-20.111084,-61.340332,25.848389,38.992188
52520,-5.171476,10.721235,1.675941,-112.091064,16.326904,5.187988,38.978516
52560,0.478840,25.057714,-5.386954,-13.641357,-116.607666,16.540527,38.990234
52600,0.790087,19.637243,-6.646304,19.714355,-62.896729,8.514404,39.000000
52640,-0.708684,12.727576,-7.369353,4.272461,-140.045166,25.939941,38.996094
52680,1.369483,8.465898,-5.817910,55.267334,-134.796143,4.974365,38.982422
52720,2.135628,4.793192,-1.709460,23.193359,-94.329834,-15.869141,38.998047
52760,1.283292,3.538630,3.653552,-14.190674,-121.490479,-36.407471,39.000000
52800,1.465251,0.407014,3.179500,33.142090,-25.787354,91.064453,38.980469
52840,1.580173,1.177947,2.600103,-193.817139,14.678955,138.519287,39.015625
52880,3.160346,16.812084,7.637504,-61.614990,153.106689,-48.370361,39.035156
52920,5.674258,27.346571,-4.079720,111.999512,196.105957,-47.210693,38.992188
52960,3.150769,19.383457,-8.901642,10.070801,153.198242,-42.968750,38.992188
53000,1.632846,12.397177,-7.086837,11.199951,127.960205,9.002686,38.996094
53040,-0.890643,7.307104,-2.944868,32.775879,75.073242,1.220703,39.003906
53080,-4.204218,3.141193,0.143652,28.717041,47.241211,-20.416260,39.003906
53120,-5.334281,0.411803,0.359130,52.246094,-6.530762,-16.876221,38.992188
53160,-3.442862,-0.565032,-0.651223,46.142578,-55.419922,15.045166,39.005859
53200,-4.429273,2.288857,1.924938,-66.833496,24.902344,20.050049,38.986328
53240,-7.920019,16.519991,-0.081403,-123.840332,-41.381836,-38.024902,39.000000
53280,1.273715,26.508602,-8.863335,31.372070,-115.722656,13.763428,39.005859
53320,1.048660,17.501614,-8.125920,30.212402,-91.644287,22.583008,38.972656
53360,0.727837,10.371682,-6.153099,27.191162,-136.871338,17.730713,39.007812
53400,3.179500,6.062119,-3.835511,53.924561,-96.832275,-2.593994,39.011719
53440,2.662352,4.338294,1.738190,-13.397217,-92.102051,-32.318115,38.996094
53480,1.326388,1.221043,4.319140,15.441895,-84.655762,59.295654,39.011719
53520,0.651223,-0.043096,2.700660,-110.076904,-32.287598,94.604492,38.998047
53560,-1.235408,8.939949,6.919243,-93.963623,177.978516,87.371826,39.003906
53600,6.004658,24.722527,-0.162806,171.752930,134.582520,-3.631592,39.009766
53640,5.549759,21.614853,-7.062895,10.650635,123.260498,-45.104980,39.003906
53680,4.141969,14.240712,-6.746861,-13.122559,131.408691,-16.937256,39.021484
53720,1.738190,9.514558,-4.649539,45.837402,108.673096,-23.742676,39.019531
53760,-3.045424,4.204218,-1.738190,73.242188,54.809570,-48.675537,39.005859
53800,-6.708553,0.976834,-0.517148,43.151855,-13.305664,-61.737061,39.017578
53840,-4.577713,-0.938527,-1.805228,61.248779,-96.893311,-67.535400,39.003906
53880,-3.256114,-1.106121,1.158794,-8.636475,-91.583252,-10.162354,39.035156
53920,-5.698200,10.103531,5.813122,-140.655518,67.199707,70.709229,39.011719
53960,-0.153229,26.575640,-4.951209,0.427246,-43.029785,38.177490,39.019531
54000,0.905008,22.165520,-9.504981,57.006836,-67.474365,15.319824,39.017578
54040,-0.526724,13.134590,-7.872135,-4.913330,-145.690918,23.742676,38.988281
54080,1.786075,7.153875,-5.310339,40.802002,-116.180420,3.112793,39.021484
54120,2.590526,4.098873,-0.890643,7.263184,-88.806152,-26.428223,39.009766
54160,1.848324,2.494758,4.012682,-10.467529,-113.281250,31.097412,38.994141
54200,1.613692,0.689530,2.949656,-23.498535,-43.823242,159.606934,39.005859
54240,0.368707,1.987187,4.084508,-92.193604,81.573486,-9.246826,39.009766
54280,4.917690,21.030668,5.094861,-40.039062,315.887451,-0.427246,38.996094
54320,6.818686,26.542120,-6.464345,87.615967,169.555664,-66.223145,39.011719
54360,4.711789,17.051504,-8.585608,6.713867,136.596680,-14.465332,38.986328
54400,1.570596,10.438720,-6.315904,20.080566,78.826904,0.305176,39.000000
54440,-2.470816,5.951985,-1.848324,49.896240,60.119629,-37.841797,39.005859
54480,-6.081272,2.264915,-0.047884,63.903809,4.577637,-57.464600,38.994141
54520,-5.525817,0.129287,-0.895431,59.722900,-84.533691,-42.419434,39.005859
54560,-2.753332,-0.502782,0.531513,-15.319824,-102.539062,-7.049561,39.027344
54600,-3.007117,6.330269,4.223372,-112.854004,11.901855,54.473877,39.011719
54640,-2.647987,23.807941,-2.164358,-53.436279,-47.027588,31.982422,39.001953
54680,1.517924,23.453600,-8.350976,54.351807,-101.470947,-11.260986,38.992188
54720,-0.038307,14.183250,-7.474698,-5.157471,-117.980957,15.563965,38.992188
54760,1.819593,8.930372,-5.750873,32.287598,-139.068604,10.192871,39.017578
54800,2.964022,4.836287,-2.729390,40.618896,-95.336914,-19.348145,39.003906
54840,1.877054,2.691083,2.748544,-8.514404,-125.915527,3.387451,38.990234
54880,1.503559,0.804452,3.754108,14.923096,-77.728271,125.488281,39.009766
54920,1.920150,0.181959,1.379060,-16.967773,138.366699,136.505127,39.009766
54960,0.742203,6.057330,5.410896,-173.248291,51.971436,-96.557617,39.015625
55000,4.572925,25.656265,3.093309,22.857666,273.223877,-38.452148,39.015625
55040,4.826711,23.017855,-7.551312,66.131592,90.270996,-30.822754,39.013672
55080,3.438074,15.456966,-8.571242,17.395020,83.862305,7.507324,39.023438
55120,1.359907,9.926360,-5.463568,34.179688,51.025391,-1.922607,39.007812
55160,-2.777274,5.276821,-1.110910,44.097900,34.179688,-22.247314,38.994141
55200,-6.493075,2.231396,0.469264,66.467285,-2.258301,-45.806885,39.007812
55240,-5.147533,0.349553,-0.181959,60.577393,-123.565674,-24.719238,39.017578
55280,-1.953669,0.167594,1.072602,-17.761230,-121.093750,16.143799,39.023438
55320,-3.280056,9.902418,5.248090,-140.777588,84.167480,4.882812,38.990234
55360,-1.168370,26.566063,-4.807557,22.521973,-75.042725,27.862549,38.990234
55400,0.229843,22.165520,-9.821015,46.752930,-115.264893,3.906250,39.021484
55440,-0.526724,12.550406,-8.848969,5.554199,-133.697510,17.395020,39.019531
55480,1.896208,7.211336,-5.894525,45.349121,-121.917725,6.896973,39.015625
55520,2.873042,4.668694,-0.847547,-4.333496,-84.503174,-17.028809,39.013672
55560,1.829170,2.240973,3.596091,-8.941650,-171.081543,56.762695,39.027344
55600,2.274492,0.445322,2.829947,23.193359,100.280762,228.454590,39.011719
55640,2.082955,1.158794,3.505111,-7.720947,133.819580,-59.082031,39.000000
55680,1.584962,16.338032,5.473145,-97.015381,166.534424,-87.005615,39.019531
55720,4.984728,27.064056,-6.866570,100.372314,177.612305,-59.997559,39.031250
55760,2.566584,19.043480,-9.888053,27.496338,103.393555,-17.669678,39.031250
55800,1.321599,10.893618,-8.264784,17.028809,64.270020,5.828857,39.017578
55840,-1.383849,6.612785,-3.557784,10.528564,35.156250,-19.744873,39.021484
55880,-4.903325,3.495534,0.004788,28.137207,-19.256592,-38.330078,39.011719
55920,-4.917690,0.445322,0.560243,53.436279,-48.400879,-25.238037,39.035156
55960,-2.729390,-0.766145,0.641646,31.799316,-95.703125,8.666992,39.019531
56000,-4.659117,5.870583,4.802769,-113.342285,21.881104,27.923584,39.031250
56040,-3.500323,22.984337,-3.232172,-29.327393,-27.160645,15.350342,39.011719
56080,0.445322,23.329102,-10.228029,54.901123,-134.094238,3.204346,39.025391
56120,-1.316811,13.613431,-8.930372,-8.209229,-146.697998,27.679443,39.039062
56160,1.465251,7.972692,-6.952762,46.569824,-148.529053,18.371582,39.033203
56200,3.040636,4.491522,-3.193865,49.743652,-94.787598,-12.695312,39.017578
56240,1.628057,3.021482,2.806004,-25.939941,-126.373291,27.954102,39.015625
56280,1.800440,1.163582,4.304775,0.854492,-82.397461,183.624268,39.033203
56320,2.877831,1.278504,1.561020,20.812988,152.648926,78.979492,39.015625
56360,0.775721,4.060566,5.880159,-163.818359,0.762939,-116.577148,39.029297
56400,3.098097,25.110388,1.575385,-0.091553,210.357666,-63.720703,39.023438
56440,2.533065,26.130318,-8.959103,105.957031,105.865479,-57.617188,39.003906
56480,2.925714,15.854403,-11.693281,17.425537,97.320557,-8.666992,39.013672
56520,1.781286,8.801085,-7.398083,41.442871,109.649658,-6.500244,39.005859
56560,-3.624821,6.253655,-1.130063,35.644531,51.330566,-41.320801,39.029297
56600,-5.861006,2.753332,0.871489,30.517578,1.190186,-46.020508,39.023438
56640,-4.596867,-0.090980,0.608127,37.445068,-66.070557,17.669678,39.003906
56680,-2.193089,-0.292093,0.239420,18.310547,-50.323486,37.292480,39.013672
56720,-5.827487,9.481039,4.730943,-181.549072,55.358887,7.293701,39.019531
56760,-1.833959,25.124752,-5.051765,-29.998779,-25.634766,-7.598877,38.998047
56800,0.167594,21.892580,-9.490616,43.579102,-77.301025,9.277344,39.033203
56840,-0.885855,12.885593,-9.299079,6.927490,-111.785889,25.177002,39.035156
56880,1.733402,8.633492,-6.900089,50.140381,-108.795166,10.650635,39.035156
56920,2.882619,5.310339,-2.231396,21.942139,-68.939209,-7.598877,39.035156
56960,1.326388,3.677494,4.046201,-17.791748,-133.941650,-0.518799,39.031250
57000,1.086968,0.675165,3.620033,26.580811,24.017334,103.149414,39.015625
57040,1.139640,0.608127,1.182736,-115.661621,70.892334,144.287109,39.039062
57080,0.531513,14.365211,8.159439,-97.473145,80.108643,-107.940674,39.019531
57120,5.142745,26.039337,-4.027047,105.834961,164.215088,-34.759521,39.025391
57160,3.380613,19.905394,-9.423578,21.789551,119.354248,-46.630859,39.021484
57200,2.331953,12.847286,-8.389283,4.455566,111.816406,-10.162354,39.015625
57240,-1.029507,8.983045,-3.979163,38.909912,81.848145,-39.520264,39.029297
57280,-5.272032,3.912126,-0.718261,46.630859,1.098633,-29.907227,39.035156
57320,-5.679047,0.593762,0.038307,66.101074,-49.346924,-38.116455,39.007812
57360,-3.514688,-0.909797,0.153229,21.331787,-84.014893,-4.547119,39.021484
57400,-3.701436,2.006341,3.222595,-73.883057,-39.276123,92.132568,39.031250
57440,-5.042189,17.913418,-0.363919,-73.242188,16.265869,-14.190674,39.035156
57480,0.325611,24.085669,-8.983045,56.579590,-103.759766,-5.340576,39.029297
57520,-2.111686,16.031574,-8.868123,1.525879,-106.475830,25.543213,39.013672
57560,-0.608127,11.137826,-7.829040,28.442383,-148.376465,22.247314,39.041016
57600,2.528277,7.599196,-4.711789,37.292480,-122.222900,-10.223389,39.021484
57640,2.806004,3.979163,1.048660,-6.378174,-136.169434,-16.235352,39.021484
57680,2.293645,0.799663,3.165135,12.756348,-82.153320,162.261963,39.029297
57720,3.270479,0.756568,1.800440,-36.743164,150.817871,111.938477,39.009766
57760,1.043872,2.308010,5.200206,-96.374512,-55.908203,-85.784912,39.021484
57800,2.365471,24.808718,2.355895,-9.826660,249.328613,-91.949463,39.017578
57840,2.250550,25.977089,-8.250419,40.435791,98.236084,-40.954590,39.019531
57880,2.748544,15.337256,-9.126697,-19.073486,91.156006,-5.401611,39.015625
57920,1.584962,9.744401,-5.760449,5.157471,111.663818,1.617432,39.023438
57960,-2.791639,5.717354,-1.575385,23.864746,53.070068,-13.580322,39.029297
58000,-5.951985,1.742979,0.210690,45.593262,25.726318,-15.045166,39.017578
58040,-5.592855,-0.359130,-0.483629,49.499512,-53.070068,2.838135,39.029297
58080,-3.734955,-0.464475,0.129287,5.371094,-58.807373,33.111572,39.001953
58120,-5.774815,7.680599,3.629610,-122.985840,20.507812,-16.357422,39.017578
58160,-2.384625,25.163059,-4.850653,-39.337158,-71.411133,0.213623,39.041016
58200,1.364695,22.979548,-7.795521,46.203613,-121.490479,4.516602,39.021484
58240,-1.019930,13.005303,-7.857770,-4.333496,-121.063232,23.315430,39.025391
58280,1.532289,8.054094,-5.774815,52.703857,-122.894287,2.563477,39.035156
58320,2.767697,4.352659,-2.308010,64.788818,-60.546875,3.448486,39.017578
58360,1.283292,3.078943,2.633622,-6.774902,-118.041992,0.488281,39.023438
58400,0.837971,1.039083,3.979163,4.364014,-53.588867,71.594238,39.025391
58440,1.666364,0.268151,1.302446,-66.101074,87.493896,175.384521,39.027344
58480,2.097321,10.989386,7.575254,-107.910156,149.475098,-73.150635,39.019531
58520,7.345411,27.595570,-1.503559,88.867188,192.321777,-32.745361,39.025391
58560,4.338294,22.203827,-8.676587,41.870117,181.732178,-76.202393,39.031250
58600,2.983175,12.885593,-9.600749,32.745361,138.610840,11.688232,39.023438
58640,-0.368707,8.192958,-5.161899,19.653320,76.324463,2.471924,39.035156
58680,-4.927267,4.467580,-0.426168,20.538330,7.965088,-30.151367,39.011719
58720,-6.172252,1.249773,0.679953,51.208496,-28.930664,-28.381348,39.027344
58760,-3.888184,-0.689530,0.057461,73.547363,-77.728271,6.622314,39.035156
58800,-4.170700,1.144428,2.063802,-57.525635,-15.136719,52.093506,39.019531
58840,-7.943961,13.675680,1.173159,-95.092773,30.944824,-49.682617,39.035156
58880,0.253785,28.323406,-9.864111,10.986328,-143.188477,19.348145,39.031250
58920,0.756568,19.464859,-9.648633,22.064209,-111.053467,32.714844,39.023438
58960,0.541090,11.525687,-7.996634,19.195557,-146.911621,20.233154,39.044922
59000,3.289633,6.627151,-5.295974,60.913086,-130.645752,0.152588,39.031250
59040,2.566584,3.629610,0.129287,-3.784180,-103.179932,-2.471924,39.031250
59080,1.106121,2.087744,4.592079,7.690430,-166.931152,47.637939,39.041016
59120,2.116474,0.407014,2.604892,-34.332275,61.584473,224.151611,39.029297
59160,2.403779,3.988740,4.486734,-82.000732,135.528564,-67.871094,39.009766
59200,4.668694,24.013844,2.509123,3.753662,202.056885,-94.207764,39.031250
59240,4.036624,24.052151,-6.833052,59.326172,130.737305,-45.989990,39.031250
59280,3.385401,14.087482,-9.643845,-13.153076,109.710693,-10.223389,39.025391
59320,1.647211,9.567230,-6.081272,26.000977,104.705811,-8.453369,39.039062
59360,-2.743755,5.329493,-1.747767,64.147949,63.323975,-20.050049,39.042969
59400,-6.387730,1.920150,0.076614,56.640625,6.317139,-37.567139,39.023438
59440,-5.827487,-0.138864,-0.560243,31.280518,-48.004150,-15.899658,39.007812
59480,-4.022259,0.047884,1.297657,-27.801514,-34.729004,20.629883,39.027344
59520,-6.129156,9.921572,1.848324,-91.979980,98.876953,-37.872314,39.007812
59560,-1.704672,24.890121,-7.086837,-15.533447,-122.009277,22.796631,39.041016
59600,0.301669,20.125660,-8.101978,13.580322,-106.536865,21.820068,39.050781
59640,-0.335188,12.722788,-7.618350,4.882812,-126.770020,33.325195,39.046875
59680,1.944092,8.710106,-5.621585,52.551270,-126.892090,14.556885,39.031250
59720,2.715025,4.098873,-2.346318,49.926758,-87.646484,-1.129150,39.019531
59760,0.732626,2.523489,2.806004,-42.297363,-141.296387,33.905029,39.041016
59800,0.885855,1.058237,3.916914,-2.349854,-77.484131,155.059814,39.042969
59840,3.107674,1.833959,2.193089,-77.941895,131.225586,39.428711,39.033203
59880,2.183512,11.243171,7.182605,-137.481689,135.955811,-62.530518,39.035156
59920,5.549759,26.791117,-3.672705,109.252930,210.632324,-42.755127,39.048828
59960,2.365471,21.236568,-9.619903,11.169434,148.925781,-64.880371,39.052734
60000,1.810017,12.971785,-9.552865,6.072998,121.948242,4.211426,39.025391
60040,-0.569820,8.872911,-4.769250,25.848389,84.960938,-3.936768,39.031250
60080,-3.687071,4.122815,-0.627281,50.750732,44.860840,-7.293701,39.041016
60120,-5.166687,1.201889,0.502782,45.013428,20.050049,-25.787354,39.025391
60160,-4.357447,-0.196325,-0.138864,38.940430,-45.654297,-8.178711,39.031250
60200,-3.806781,0.584185,1.283292,-51.727295,-24.871826,38.269043,39.025391
60240,-7.153875,10.046070,2.298434,-99.609375,34.637451,-40.161133,39.037109
60280,-0.804452,26.853367,-7.589619,-23.284912,-111.267090,15.716553,39.025391
60320,1.719037,21.365856,-7.647080,13.183594,-84.625244,15.960693,39.019531
60360,-0.023942,12.224793,-7.129933,-1.129150,-118.560791,27.160645,39.039062
60400,1.920150,8.714894,-5.913678,46.020508,-108.856201,17.333984,39.041016
60440,2.633622,4.960786,-2.729390,54.229736,-67.230225,-12.023926,39.048828
60480,0.938527,3.112462,2.403779,-21.697998,-91.796875,-3.356934,39.044922
60520,0.292093,1.450886,3.720589,-2.502441,-88.409424,55.084229,39.039062
60560,1.584962,0.047884,1.666364,-42.297363,112.487793,188.568115,39.042969
60600,1.403002,6.890512,6.478710,-93.566895,96.588135,-82.611084,39.037109
60640,7.091625,26.010607,-0.153229,64.941406,198.913574,-47.180176,39.042969
60680,4.520253,24.171860,-8.772355,72.906494,161.102295,-73.303223,39.033203
60720,3.031059,14.164097,-10.199299,15.411377,133.728027,-5.950928,39.035156
60760,0.172383,9.485827,-5.808333,35.919189,90.393066,-15.380859,39.044922
60800,-3.701436,4.979939,-1.211466,56.091309,26.702881,-32.958984,39.068359
60840,-5.267244,1.666364,0.359130,49.652100,-6.622314,-88.623047,39.033203
60880,-4.295198,-1.072602,-0.272939,52.917480,-68.786621,6.225586,39.041016
60920,-2.408567,-1.201889,0.268151,32.867432,-46.142578,25.299072,39.019531
60960,-5.789180,7.469909,5.224148,-198.425293,46.691895,49.621582,39.015625
61000,-2.135628,25.459940,-4.462792,-45.806885,-19.439697,-5.004883,39.013672
61040,1.752556,23.688232,-9.773131,41.992188,-90.484619,0.518799,39.033203
61080,-0.268151,13.627796,-8.705317,-12.054443,-88.226318,23.773193,39.035156
61120,1.613692,9.457097,-6.086061,43.609619,-105.773926,16.143799,39.042969
61160,3.055001,5.391742,-3.284845,65.551758,-61.065674,-6.622314,39.021484
61200,1.623269,2.815581,1.632846,-11.596680,-98.754883,18.676758,39.035156
61240,0.876278,0.876278,4.242526,6.011963,-104.827881,116.607666,39.044922
61280,1.618480,0.373495,1.843535,-22.033691,102.600098,147.247314,39.035156
61320,-0.306458,6.607996,6.483498,-151.763916,12.268066,-99.731445,39.029297
61360,5.070919,25.072081,0.028730,53.680420,282.012939,-44.372559,39.017578
61400,5.037400,23.511061,-8.671799,43.640137,113.769531,-48.370361,39.044922
61440,4.582502,15.528792,-9.050082,-4.302979,132.049561,-18.615723,39.029297
61480,2.533065,11.104307,-5.597643,36.926270,112.030029,-18.310547,39.046875
61520,-1.675941,5.798757,-2.102109,61.676025,60.089111,-22.186279,39.019531
61560,-5.516241,1.766921,-0.100556,42.449951,31.280518,-22.766113,39.015625
61600,-5.477933,-0.287304,-0.785298,52.947998,-28.503418,-5.828857,39.015625
61640,-3.854665,-0.435745,-0.023942,6.927490,-53.070068,18.035889,39.031250
61680,-5.358223,7.082048,3.811569,-129.913330,14.160156,-10.559082,39.035156
61720,-1.479617,24.689009,-4.050989,-91.308594,-59.082031,27.374268,39.019531
61760,3.572149,24.009054,-7.575254,24.902344,-91.613770,6.072998,39.035156
61800,1.278504,13.536817,-6.382942,-26.977539,-86.456299,21.087646,39.035156
61840,2.552219,8.504205,-5.257667,18.127441,-96.374512,20.568848,39.031250
61880,3.193865,4.414908,-3.462016,66.497803,-59.387207,2.471924,39.027344
61920,0.584185,1.939303,1.091756,6.225586,-50.811768,11.108398,39.048828
61960,-0.890643,1.029507,4.295198,1.953125,-45.440674,2.288818,39.033203
62000,0.143652,0.775721,2.858677,-98.114014,-109.954834,57.342529,39.027344
62040,0.708684,14.508862,8.475474,-144.958496,188.842773,75.683594,39.033203
62080,7.192182,26.815060,-2.293645,164.367676,129.302979,-33.935547,39.027344
62120,3.500323,22.304382,-9.021352,-2.624512,165.466309,-74.951172,39.039062
62160,1.144428,14.863204,-8.796297,12.756348,146.789551,-15.350342,39.025391
62200,-1.642422,9.260772,-5.267244,35.156250,91.308594,-12.176514,39.041016
62240,-4.448427,4.031836,-1.077391,46.386719,42.480469,-22.247314,39.027344
62280,-5.473145,0.900220,0.933739,44.433594,29.968262,-15.228271,39.054688
62320,-4.721366,-0.770933,0.660800,70.312500,-38.024902,22.186279,39.039062
62360,-2.633622,-0.928950,-0.047884,50.384521,-45.684814,44.403076,39.039062
62400,-3.476381,3.361459,2.734178,-84.808350,-35.095215,48.889160,39.035156
62440,-4.611232,22.438457,0.430956,-179.382324,105.438232,-34.851074,39.029297
62480,4.788404,28.744785,-9.275137,64.270020,-127.380371,16.510010,39.027344
62520,1.608904,16.122555,-8.269572,39.367676,-22.155762,-2.655029,39.039062
62560,0.330400,9.753978,-6.694188,37.658691,-95.428467,17.181396,39.035156
62600,2.140416,6.612785,-3.198653,33.752441,-76.660156,4.791260,39.031250
62640,1.661576,4.007894,2.537854,-10.681152,-83.007812,0.671387,39.048828
62680,1.106121,1.005565,3.806781,32.287598,-1.495361,41.229248,39.041016
62720,0.991199,-0.359130,1.254562,-38.024902,64.147949,111.938477,39.037109
62760,0.450110,4.616021,6.105214,-88.134766,110.321045,-91.003418,39.041016
62800,6.186617,25.661055,0.215478,45.776367,214.202881,-60.272217,39.056641
62840,4.999093,24.588451,-7.934384,61.767578,124.481201,-74.005127,39.060547
62880,3.514688,15.164873,-9.744401,-1.068115,137.176514,-38.757324,39.048828
62920,1.417367,10.189722,-6.928820,39.215088,84.411621,-19.439697,39.048828
62960,-2.533065,5.329493,-2.652776,69.885254,41.534424,-33.630371,39.064453
63000,-5.425261,1.958457,-0.196325,50.750732,3.723145,-88.928223,39.044922
63040,-5.640739,-0.383072,0.153229,53.802490,-50.201416,-14.190674,39.041016
63080,-3.854665,-0.488417,1.048660,1.098633,-86.944580,24.719238,39.044922
63120,-4.256891,6.263232,3.653552,-116.485596,36.499023,2.136230,39.050781
63160,-1.781286,22.601265,-4.304775,-54.870605,-62.286377,11.566162,39.058594
63200,2.849100,22.912510,-8.274361,32.836914,-88.989258,4.333496,39.046875
63240,-0.215478,15.011644,-7.292738,-14.739990,-104.278564,3.265381,39.068359
63280,0.761356,10.697293,-6.363788,38.818359,-119.689941,3.417969,39.031250
63320,2.537854,5.884948,-4.285621,64.147949,-98.052979,-28.381348,39.050781
63360,1.182736,2.887407,0.914585,7.263184,-94.787598,-1.983643,39.039062
63400,0.972046,1.575385,3.983952,4.943848,-84.594727,56.579590,39.048828
63440,2.475605,0.823605,1.608904,-48.309326,98.449707,148.345947,39.054688
63480,1.173159,5.765238,5.659893,-136.871338,56.457520,-63.995361,39.029297
63520,3.825934,23.630772,1.470040,55.725098,237.152100,-77.148438,39.048828
63560,2.657564,23.568521,-8.274361,47.241211,107.086182,-72.113037,39.064453
63600,1.680730,14.604630,-10.012551,-2.044678,107.055664,-19.195557,39.054688
63640,0.799663,9.878476,-5.995081,24.475098,84.167480,-3.204346,39.044922
63680,-2.231396,5.612009,-1.848324,28.686523,30.029297,-4.638672,39.039062
63720,-4.726154,2.102109,0.502782,40.283203,4.150391,-8.972168,39.056641
63760,-4.783615,-0.201113,0.584185,47.729492,-48.339844,4.241943,39.066406
63800,-3.883395,0.067038,0.967257,13.153076,-47.637939,19.897461,39.054688
63840,-7.278373,8.772355,3.821146,-103.088379,-0.976562,-34.667969,39.052734
63880,-3.385401,24.574087,-6.047753,-55.145264,-118.041992,14.953613,39.066406
63920,2.279280,22.553379,-9.327810,31.372070,-122.680664,23.101807,39.044922
63960,1.130063,14.068329,-7.273585,5.096436,-129.180908,21.850586,39.052734
64000,2.298434,9.758766,-6.004658,48.522949,-153.656006,17.761230,39.048828
64040,2.767697,5.137957,-2.992752,52.917480,-128.601074,-9.521484,39.039062
64080,0.751779,2.504335,2.154782,-29.388428,-156.738281,26.794434,39.031250
64120,0.766145,0.732626,3.433285,40.954590,-74.432373,91.918945,39.033203
64160,1.757344,0.737414,1.446098,-99.487305,-9.063721,143.981934,39.031250
64200,1.561020,10.773908,6.713342,-104.278564,126.190186,-53.771973,39.058594
64240,7.038953,27.629087,-1.695095,108.337402,160.003662,-17.272949,39.054688
64280,5.525817,21.983561,-7.105990,34.332275,122.375488,-42.358398,39.048828
64320,4.352659,13.283031,-6.804321,14.190674,102.783203,-15.045166,39.060547
64360,1.714248,8.178593,-3.505111,28.259277,71.350098,4.394531,39.058594
64400,-2.940080,4.323928,-0.292093,56.030273,43.304443,-22.338867,39.058594
64440,-5.573701,1.240196,0.158017,72.235107,-13.488770,-6.439209,39.064453
64480,-4.783615,-0.339977,-0.277727,52.124023,-42.572021,8.239746,39.056641
64520,-4.362236,0.263362,0.962469,-20.294189,-16.845703,34.881592,39.064453
64560,-8.882488,11.650186,-1.422156,-119.140625,-3.936768,-33.416748,39.052734
64600,-0.675165,26.695349,-10.132261,-16.906738,-185.943604,48.583984,39.068359
64640,2.466028,19.943701,-8.456321,8.819580,-112.152100,22.766113,39.068359
64680,2.039860,12.038046,-7.206547,-3.784180,-174.804688,25.421143,39.056641
64720,4.012682,7.637504,-5.583278,43.731689,-133.331299,19.287109,39.046875
64760,4.156334,3.667917,-1.738190,26.977539,-103.942871,2.532959,39.054688
64800,1.762132,2.044648,3.055001,-26.947021,-163.940430,57.098389,39.046875
64840,1.766921,0.387861,2.628834,-72.998047,-36.224365,201.171875,39.058594
64880,2.935291,2.384625,5.248090,-39.672852,76.019287,-31.738281,39.050781
64920,6.584054,20.049046,3.495534,-31.280518,222.869873,-68.511963,39.035156
64960,4.668694,26.609158,-5.999869,69.610596,178.771973,-59.906006,39.037109
65000,2.341529,16.381128,-7.714118,-13.641357,106.384277,-21.453857,39.068359
65040,1.268927,10.237606,-5.516241,-9.460449,96.374512,0.793457,39.072266
65080,-1.197101,5.487510,-2.566584,62.774658,61.889648,-2.868652,39.054688
65120,-5.540183,1.790863,-0.421380,60.394287,12.969971,-34.484863,39.060547
65160,-6.076484,-0.339977,-0.507571,68.115234,-39.093018,-28.411865,39.078125
65200,-4.405331,-0.268151,0.435745,7.110596,-54.199219,8.880615,39.046875
65240,-6.167464,8.829816,1.814805,-119.781494,32.775879,-6.072998,39.076172
65280,-1.024718,24.564510,-5.410896,-44.219971,-132.751465,33.782959,39.070312
65320,1.862689,21.557392,-6.263232,24.017334,-87.646484,14.129639,39.074219
65360,-0.062249,14.111424,-6.540959,-2.136230,-130.554199,19.775391,39.074219
65400,1.379060,9.672575,-5.612009,58.502197,-124.694824,13.061523,39.074219
65440,2.317587,4.984728,-3.021482,56.579590,-122.680664,-0.183105,39.072266
65480,0.924162,2.647987,1.958457,-23.254395,-141.387939,-12.542725,39.087891
65520,0.943315,0.512359,3.414132,12.420654,-49.865723,114.013672,39.054688
65560,3.217807,1.082179,1.436521,-103.088379,63.079834,103.454590,39.070312
65600,1.996764,9.533711,7.910442,-130.401611,86.090088,-89.050293,39.070312
65640,5.104438,27.308264,-1.149217,112.487793,148.254395,-38.513184,39.054688
65680,2.691083,21.868639,-7.680599,27.740479,127.349854,-61.157227,39.068359
65720,2.806004,12.981361,-8.418014,-1.678467,122.100830,-0.366211,39.056641
65760,1.230620,8.815451,-4.529830,35.308838,80.047607,4.302979,39.080078
65800,-2.542642,4.419696,-1.063026,52.886963,48.187256,-0.885010,39.058594
65840,-5.324705,2.054225,0.474052,38.238525,34.301758,-57.952881,39.064453
65880,-5.214571,-0.301669,-0.105345,54.870605,-46.539307,15.411377,39.068359
65920,-4.280833,0.201113,0.751779,-13.580322,-15.075684,37.658691,39.060547
65960,-8.183381,10.256760,2.398990,-134.094238,16.723633,-34.362793,39.078125
66000,-0.450110,26.273970,-7.910442,-34.790039,-99.426270,10.223389,39.083984
66040,2.647987,21.571756,-7.987057,24.322510,-102.447510,25.695801,39.082031
66080,0.622492,13.115437,-6.732495,5.004883,-124.206543,22.949219,39.070312
66120,2.422932,8.370130,-5.698200,58.868408,-115.356445,12.145996,39.089844
66160,2.777274,4.127604,-2.466028,46.081543,-70.373535,1.159668,39.060547
66200,0.277727,2.968810,3.093309,-24.200439,-89.569092,-5.737305,39.058594
66240,0.153229,1.302446,3.720589,8.087158,-73.181152,21.331787,39.093750
66280,1.446098,0.306458,1.872266,-138.122559,-0.671387,171.386719,39.062500
66320,2.408567,12.109872,7.747637,-128.784180,210.662842,-3.570557,39.058594
66360,7.192182,26.633101,-1.053449,140.167236,169.952393,-35.064697,39.070312
66400,4.285621,21.538239,-7.771579,49.133301,186.584473,-76.812744,39.066406
66440,2.734178,12.756307,-9.078813,11.077881,117.980957,10.711670,39.054688
66480,-0.517148,8.475474,-4.778827,23.712158,73.577881,0.457764,39.062500
66520,-4.750096,4.371812,-0.608127,34.545898,11.901855,-21.118164,39.076172
66560,-6.124368,1.240196,0.229843,57.769775,-30.822754,-29.937744,39.083984
66600,-4.036624,-0.502782,-0.167594,64.453125,-82.061768,-2.380371,39.074219
66640,-3.222595,0.435745,1.182736,-40.100098,-47.027588,44.372559,39.080078
66680,-5.894525,12.856863,1.613692,-130.981445,39.337158,-24.261475,39.068359
66720,0.411803,26.350584,-7.359776,28.137207,-79.620361,8.605957,39.068359
66760,0.134075,18.909405,-8.485051,13.732910,-106.384277,29.510498,39.066406
66800,-0.244209,12.540829,-7.350199,9.338379,-132.934570,25.817871,39.076172
66840,2.293645,7.915231,-5.669470,60.333252,-119.354248,14.678955,39.074219
66880,2.820370,4.228160,-1.273715,4.974365,-89.965820,11.383057,39.082031
66920,1.388637,2.442086,3.983952,-35.186768,-174.377441,91.308594,39.078125
66960,2.140416,0.914585,2.968810,-16.632080,54.168701,195.892334,39.087891
67000,1.958457,1.168370,3.337517,3.448486,78.308105,-47.607422,39.103516
67040,2.863465,18.258183,5.310339,-72.204590,179.046631,-105.529785,39.070312
67080,4.467580,27.030537,-6.426037,85.235596,140.930176,-58.349609,39.101562
67120,3.217807,17.257406,-9.840169,-20.782471,109.710693,-20.843506,39.076172
67160,1.996764,11.927913,-7.015011,8.331299,123.931885,-17.639160,39.082031
67200,-0.694318,7.278373,-3.672705,51.666260,78.002930,-53.070068,39.080078
67240,-5.439626,2.054225,-0.579397,50.445557,47.149658,-28.411865,39.070312
67280,-6.718130,0.067038,0.100556,55.572510,-9.948730,-36.712646,39.089844
67320,-4.592079,-0.679953,-0.234632,23.895264,-92.071533,15.838623,39.087891
67360,-3.572149,2.901772,2.978387,-111.511230,-20.416260,63.201904,39.076172
67400,-3.337517,19.235016,-0.272939,-133.880615,79.772949,-17.822266,39.074219
67440,2.226608,25.809494,-7.096414,51.391602,-80.230713,-14.739990,39.082031
67480,-0.972046,15.696386,-7.872135,-1.922607,-82.458496,21.728516,39.085938
67520,-0.359130,10.936713,-6.986280,24.139404,-125.823975,18.035889,39.089844
67560,1.723825,6.770802,-4.707001,57.373047,-120.727539,3.875732,39.078125
67600,1.541866,3.691859,0.090980,10.528564,-84.991455,11.718750,39.066406
67640,0.598550,2.341529,3.825934,-21.789551,-154.602051,47.760010,39.076172
67680,1.905785,0.651223,2.533065,-25.482178,57.891846,158.630371,39.070312
67720,2.470816,2.801216,3.533842,-111.785889,110.382080,-38.787842,39.060547
67760,5.363012,21.763294,5.137957,-30.395508,243.377686,-66.284180,39.080078
67800,5.334281,26.714502,-5.516241,83.923340,189.849854,-65.673828,39.082031
67840,3.500323,16.649279,-9.662998,9.582520,168.945312,-19.073486,39.087891
67880,1.412579,10.448297,-7.388506,20.935059,109.405518,15.533447,39.091797
67920,-2.408567,6.555324,-2.126051,10.437012,62.591553,-7.843018,39.087891
67960,-5.319916,2.863465,0.454898,21.881104,39.733887,-22.338867,39.091797
68000,-4.955997,0.263362,-0.019154,46.539307,-29.968262,-3.417969,39.082031
68040,-3.653552,-0.483629,0.000000,34.667969,-21.270752,16.296387,39.074219
68080,-6.722919,5.257667,2.250550,-52.337646,77.819824,-23.406982,39.076172
68120,-5.319916,22.318748,-5.348647,-92.376709,-85.479736,-9.857178,39.097656
68160,3.083732,25.397692,-7.694964,37.353516,-113.922119,15.197754,39.087891
68200,0.852336,14.810532,-7.264008,4.089355,-122.192383,18.157959,39.083984
68240,1.709460,8.939949,-5.894525,36.651611,-146.118164,4.882812,39.078125
68280,3.189077,4.807557,-3.026271,48.339844,-84.594727,-12.329102,39.107422
68320,1.268927,3.093309,1.944092,-10.284424,-101.715088,-16.418457,39.083984
68360,0.220267,1.642422,3.720589,-9.490967,-121.734619,43.487549,39.087891
68400,2.188300,1.149217,2.681506,-127.960205,54.229736,193.084717,39.099609
68440,4.970363,16.481684,7.618350,-70.159912,161.499023,-65.673828,39.087891
68480,6.148310,26.470293,-1.556231,115.081787,162.841797,-42.175293,39.093750
68520,3.538630,18.004396,-7.541735,26.672363,156.372070,-51.025391,39.103516
68560,2.059013,10.951078,-7.532158,7.629395,112.213135,-1.190186,39.068359
68600,-0.943315,6.569689,-3.117251,43.487549,67.565918,-26.824951,39.085938
68640,-5.286397,2.102109,0.081403,40.191650,25.482178,-33.782959,39.068359
68680,-5.980716,-0.277727,-0.124498,80.871582,-25.207520,-8.544922,39.087891
68720,-4.386178,-0.837971,-0.426168,39.947510,-61.981201,15.045166,39.082031
68760,-5.243302,4.951209,3.055001,-109.710693,-6.805420,31.829834,39.087891
68800,-3.557784,23.539791,-3.462016,-79.711914,-60.455322,-1.861572,39.076172
68840,1.776498,24.128765,-6.866570,57.128906,-84.289551,-3.234863,39.091797
68880,-0.598550,14.997279,-7.331046,-18.280029,-121.795654,20.629883,39.093750
68920,1.058237,9.744401,-5.875371,45.440674,-128.692627,7.202148,39.083984
68960,2.973598,4.668694,-3.232172,62.316895,-81.115723,0.000000,39.087891
69000,1.589750,2.657564,1.881842,-15.686035,-103.515625,14.953613,39.097656
69040,0.881066,1.086968,3.830723,5.401611,-92.071533,149.871826,39.103516
69080,2.987964,1.187524,1.561020,-55.297852,71.014404,91.461182,39.111328
69120,0.933739,6.502652,6.655881,-111.663818,-7.415771,-133.117676,39.083984
69160,4.659117,27.365725,-0.967257,90.148926,170.471191,-47.546387,39.082031
69200,2.949656,23.372196,-8.801085,46.356201,103.363037,-50.933838,39.097656
69240,2.561796,14.001291,-9.136273,2.380371,121.978760,0.885010,39.074219
69280,0.253785,9.658210,-4.898537,36.163330,81.542969,-33.660889,39.087891
69320,-3.912126,4.328717,-0.474052,37.322998,51.818848,-21.514893,39.093750
69360,-6.148310,1.048660,1.010353,46.630859,9.887695,-34.759521,39.091797
69400,-4.730943,-0.536301,0.067038,34.881592,-66.894531,10.742188,39.083984
69440,-2.719813,-0.526724,0.311246,9.460449,-44.036865,38.238525,39.060547
69480,-6.655881,8.049306,3.519476,-111.816406,139.770508,6.500244,39.089844
69520,-1.154005,27.054480,-7.857770,-52.551270,-105.804443,2.532959,39.064453
69560,2.360683,22.792801,-8.614338,37.963867,-106.231689,17.944336,39.050781
69600,-0.162806,12.516887,-7.718906,1.098633,-131.378174,21.423340,39.054688
69640,1.742979,7.374141,-5.975927,52.246094,-101.989746,13.641357,39.066406
69680,2.437297,4.055778,-1.527501,26.824951,-62.103271,9.185791,39.082031
69720,1.149217,2.758120,3.730166,-16.052246,-130.676270,0.885010,39.091797
69760,1.891419,0.612916,3.107674,-1.068115,32.592773,120.574951,39.064453
69800,2.217031,1.484405,1.489193,-198.394775,103.454590,84.625244,39.064453
69840,3.303998,17.865534,7.316680,-35.461426,144.378662,-84.899902,39.083984
69880,5.597643,26.752810,-3.351882,93.444824,142.883301,-24.841309,39.078125
69920,4.156334,17.803284,-8.939949,23.345947,124.786377,-20.080566,39.082031
69960,3.016694,11.123461,-7.929596,20.965576,117.645264,8.666992,39.093750
70000,-1.426944,7.599196,-2.777274,36.193848,83.587646,-23.712158,39.091797
70040,-5.779603,3.509900,0.043096,55.969238,41.351318,-32.379150,39.082031
70080,-6.028600,0.933739,-0.301669,54.992676,-39.978027,-18.493652,39.078125
70120,-3.658340,-0.296881,-0.612916,22.003174,-80.261230,11.535645,39.078125
70160,-3.869030,3.222595,2.609680,-82.397461,33.172607,8.758545,39.068359
70200,-5.554548,19.747375,-2.451663,-114.990234,-8.087158,-40.863037,39.083984
70240,3.011906,26.403255,-8.082825,46.997070,-115.081787,-3.479004,39.109375
70280,0.502782,15.495274,-7.584831,-6.469727,-114.074707,20.263672,39.101562
70320,1.158794,9.801862,-6.698977,29.022217,-127.532959,16.082764,39.103516
70360,2.901772,5.664681,-4.046201,62.438965,-99.761963,1.861572,39.082031
70400,1.608904,3.184288,1.369483,0.854492,-100.799561,6.195068,39.111328
70440,0.665588,1.810017,4.108450,-30.273438,-157.836914,118.591309,39.109375
70480,2.906561,1.503559,2.011129,-80.322266,30.639648,139.801025,39.115234
70520,1.829170,5.875371,6.794744,-104.827881,56.762695,-121.734619,39.105469
70560,5.918467,25.565287,-0.737414,80.383301,193.481445,-27.984619,39.126953
70600,3.739743,23.491907,-8.073248,57.128906,118.774414,-57.312012,39.132812
70640,2.839523,13.599066,-9.040505,-3.723145,128.875732,3.509521,39.117188
70680,0.804452,9.370906,-5.195418,32.836914,85.540771,-12.054443,39.113281
70720,-2.767697,4.572925,-1.053449,46.417236,68.450928,-59.448242,39.101562
70760,-6.330269,1.034295,0.536301,47.882080,36.346436,-28.564453,39.103516
70800,-5.468357,-0.277727,-0.478840,45.867920,-56.304932,-2.288818,39.101562
70840,-3.926491,0.210690,1.106121,-24.108887,-46.417236,29.083252,39.119141
70880,-6.239290,10.031705,4.204218,-123.840332,135.284424,-18.859863,39.121094
70920,-0.708684,27.044903,-7.474698,-23.040771,-96.252441,-7.598877,39.105469
70960,1.130063,20.891804,-8.097190,29.327393,-121.917725,22.491455,39.107422
71000,0.052672,12.373235,-7.139510,14.617920,-131.072998,21.606445,39.103516
71040,2.140416,7.249643,-5.913678,64.941406,-128.479004,21.087646,39.105469
71080,2.389413,3.687071,-2.432509,50.354004,-77.026367,22.216797,39.107422
71120,0.565032,3.552995,3.031059,-34.118652,-116.577148,34.088135,39.103516
71160,0.866701,2.126051,4.252102,-20.843506,-79.803467,57.708740,39.111328
71200,1.699883,1.158794,2.427721,-132.049561,24.322510,167.663574,39.125000
71240,5.750873,17.166426,6.440403,-72.174072,209.716797,-57.800293,39.095703
71280,7.747637,27.542896,-2.580950,103.942871,158.264160,-41.564941,39.111328
71320,4.232949,19.589357,-7.680599,23.986816,188.293457,-72.448730,39.107422
71360,2.628834,11.104307,-8.106767,20.385742,128.845215,4.943848,39.113281
71400,-0.861913,7.158663,-3.533842,21.728516,84.655762,-30.578613,39.109375
71440,-4.400543,2.762909,-0.507571,27.343750,30.883789,-18.066406,39.109375
71480,-5.228937,0.363919,0.325611,58.288574,-19.622803,-30.944824,39.111328
71520,-3.567361,-0.751779,-0.359130,64.819336,-54.382324,15.228271,39.091797
71560,-3.916914,1.580173,1.431733,-58.288574,-7.751465,25.695801,39.121094
71600,-6.713342,15.830462,0.665588,-128.479004,19.470215,-40.008545,39.091797
71640,1.695095,26.963499,-7.876924,40.527344,-104.461670,6.958008,39.097656
71680,0.565032,17.688362,-8.097190,10.070801,-101.165771,19.958496,39.101562
71720,1.015141,11.947066,-6.789956,22.247314,-125.000000,25.085449,39.097656
71760,3.059790,7.781156,-4.692636,67.687988,-111.907959,14.739990,39.093750
71800,2.437297,4.137180,-0.277727,22.491455,-81.359863,6.835938,39.103516
71840,0.828394,2.609680,3.490746,-44.525146,-166.992188,60.974121,39.099609
71880,1.024718,0.526724,2.743755,-16.937256,-0.305176,169.128418,39.103516
71920,2.039860,1.134852,2.528277,-22.125244,51.666260,-35.980225,39.109375
71960,4.438850,18.641254,5.094861,-50.476074,138.397217,-76.049805,39.111328
72000,5.324705,27.471071,-6.215348,70.068359,132.080078,-72.540283,39.115234
72040,3.495534,17.693151,-9.648633,-8.361816,114.990234,-29.083252,39.107422
72080,2.245761,12.761095,-6.397307,1.770020,115.814209,-19.744873,39.103516
72120,-1.292869,7.335834,-2.513912,54.107666,78.552246,-30.700684,39.107422
72160,-6.392519,2.303222,-0.818817,63.812256,22.583008,-68.023682,39.107422
72200,-6.335058,-0.090980,-1.244985,57.769775,-54.656982,-46.966553,39.109375
72240,-3.457227,-1.350330,-0.474052,38.635254,-88.653564,16.204834,39.095703
72280,-2.341529,1.221043,1.915361,-64.239502,-138.092041,75.714111,39.111328
72320,-3.466804,17.338808,2.619257,-183.441162,85.632324,12.695312,39.126953
72360,0.694318,26.096798,-5.928043,61.523438,-53.161621,-0.427246,39.115234
72400,-1.853112,16.792931,-8.082825,7.873535,-103.057861,14.923096,39.097656
72440,-1.134852,10.788273,-8.034941,15.899658,-143.188477,39.642334,39.117188
72480,1.613692,7.728483,-5.693412,52.734375,-113.494873,25.238037,39.111328
72520,2.001553,4.587290,-1.082179,22.766113,-94.879150,29.022217,39.101562
72560,1.398214,2.585738,3.160346,-24.383545,-129.455566,74.737549,39.101562
72600,2.686294,1.216254,2.403779,-0.762939,65.338135,97.717285,39.113281
72640,2.839523,1.762132,3.189077,-18.127441,79.498291,-52.337646,39.125000
72680,4.754885,19.115307,5.607220,-117.767334,226.989746,-50.170898,39.130859
72720,5.928043,26.135105,-6.306327,85.205078,170.440674,-37.536621,39.125000
72760,4.161122,17.803284,-10.204087,13.916016,151.123047,-44.677734,39.113281
72800,2.801216,11.166556,-8.461109,22.979736,128.143311,7.720947,39.119141
72840,-1.383849,8.432379,-2.786851,-0.610352,106.811523,-28.930664,39.103516
72880,-4.821922,3.533842,-0.043096,10.925293,58.013916,-36.315918,39.134766
72920,-5.319916,0.454898,0.100556,54.809570,-22.521973,-24.414062,39.123047
72960,-3.007117,-0.617704,-0.253785,81.329346,-59.814453,8.239746,39.111328
73000,-3.916914,2.820370,2.135628,-75.592041,33.782959,15.716553,39.113281
73040,-7.963115,16.534357,-0.574608,-109.405518,13.854980,-39.093018,39.125000
73080,1.053449,27.092787,-9.366117,34.027100,-141.387939,20.324707,39.105469
73120,0.421380,17.118542,-8.087613,18.493652,-114.929199,34.027100,39.113281
73160,0.909797,9.418790,-6.933608,30.731201,-155.151367,24.902344,39.107422
73200,2.729390,4.941632,-4.735731,67.840576,-99.426270,28.656006,39.107422
73240,1.790863,3.500323,-0.009577,34.576416,-75.531006,23.406982,39.130859
73280,0.521936,2.624045,3.055001,-6.591797,-85.479736,31.066895,39.111328
73320,0.588974,1.106121,2.537854,-37.384033,-152.435303,37.078857,39.117188
73360,0.909797,5.334281,2.949656,-65.277100,2.532959,147.247314,39.115234
73400,11.123461,24.880545,2.006341,-29.571533,280.181885,17.883301,39.091797
73440,8.997410,24.674643,-6.090849,103.179932,144.195557,-72.509766,39.123047
73480,4.405331,14.738706,-9.083601,46.752930,189.453125,-28.717041,39.115234
73520,1.244985,8.130709,-7.714118,46.752930,90.545654,-1.953125,39.119141
73560,-3.026271,5.027823,-2.255338,22.216797,68.054199,-50.689697,39.113281
73600,-5.066131,2.523489,0.407014,14.526367,15.106201,-75.561523,39.113281
73640,-4.381389,0.028730,0.248997,64.453125,-71.136475,-28.930664,39.101562
73680,-2.815581,-0.967257,0.234632,24.902344,-50.720215,12.298584,39.123047
73720,-6.349423,6.363788,2.044648,-105.407715,193.511963,-24.322510,39.146484
73760,-2.604892,25.459940,-7.680599,-79.986572,-112.030029,19.958496,39.132812
73800,4.194642,23.563734,-9.753978,50.994873,-112.548828,22.766113,39.125000
73840,1.853112,12.990938,-7.723695,3.173828,-116.363525,23.040771,39.125000
73880,2.786851,7.589619,-6.296751,27.343750,-156.890869,18.402100,39.126953
73920,2.858677,4.587290,-1.666364,31.829834,-109.283447,6.011963,39.103516
73960,0.914585,3.452439,3.562572,-25.848389,-173.614502,35.583496,39.076172
74000,1.029507,0.833182,3.519476,-30.883789,-43.670654,176.177979,39.095703
74040,2.738967,1.369483,2.681506,-88.409424,105.072021,15.472412,39.111328
74080,5.272032,17.300501,5.248090,-57.617188,170.806885,-90.789795,39.111328
74120,5.870583,26.594793,-4.070143,76.324463,161.163330,-59.143066,39.121094
74160,3.864242,17.468096,-8.327033,-13.031006,123.626709,-36.254883,39.105469
74200,3.356671,10.702082,-8.370130,8.331299,105.743408,2.899170,39.101562
74240,-0.162806,7.513005,-4.242526,45.318604,93.719482,-17.272949,39.099609
74280,-4.826711,3.897760,-0.373495,49.133301,53.344727,-29.022217,39.085938
74320,-5.928043,1.230620,-0.201113,50.750732,6.683350,-36.987305,39.107422
74360,-4.582502,-0.378284,-0.713472,40.985107,-80.780029,28.930664,39.115234
74400,-3.213019,1.321599,0.967257,-56.213379,-69.000244,29.754639,39.107422
74440,-5.425261,13.958196,1.963245,-139.495850,47.149658,-41.259766,39.115234
74480,2.485181,27.624300,-7.115568,35.552979,-96.130371,11.322021,39.085938
74520,1.374272,18.239029,-8.159439,28.747559,-95.092773,23.437500,39.097656
74560,0.636858,10.864887,-7.647080,22.094727,-134.948730,21.789551,39.105469
74600,2.892196,6.766014,-5.257667,66.711426,-106.414795,16.662598,39.105469
74640,2.197877,4.410120,-0.158017,15.380859,-71.990967,8.575439,39.101562
74680,0.363919,3.519476,3.926491,-29.907227,-127.014160,6.011963,39.109375
74720,0.517148,0.474052,2.796427,-9.185791,-36.621094,93.811035,39.107422
74760,2.279280,1.144428,2.149993,-107.330322,37.017822,66.284180,39.087891
74800,8.149862,20.982784,6.095637,-63.720703,214.660645,-42.266846,39.107422
74840,7.134721,27.217285,-5.468357,86.120605,179.626465,-60.577393,39.111328
74880,4.400543,17.578228,-10.050858,22.674561,178.192139,-53.344727,39.097656
74920,2.829947,10.012551,-8.681376,31.890869,110.290527,14.312744,39.097656
74960,-1.920150,6.234501,-2.552219,17.395020,65.795898,-35.736084,39.109375
75000,-5.204995,2.772485,0.172383,20.507812,10.070801,-37.750244,39.091797
75040,-4.788404,0.445322,0.258574,47.271729,-28.686523,-18.829346,39.103516
75080,-2.820370,-0.344765,0.090980,51.605225,-45.257568,16.021729,39.115234
75120,-5.549759,5.602432,3.035848,-101.745605,83.282471,-28.076172,39.111328
75160,-6.095637,21.935677,-4.242526,-79.498291,-62.591553,-14.801025,39.109375
75200,1.843535,24.143129,-9.610326,48.156738,-122.039795,19.073486,39.111328
75240,1.177947,14.269443,-7.958326,3.753662,-122.283936,23.681641,39.121094
75280,2.375048,9.327810,-6.014235,43.151855,-138.031006,24.597168,39.111328
75320,3.323152,5.319916,-3.562572,59.234619,-94.665527,15.228271,39.125000
75360,1.264138,3.725378,1.968034,-26.336670,-125.091553,16.723633,39.093750
75400,0.383072,1.939303,3.912126,-16.113281,-146.575928,81.085205,39.123047
75440,1.872266,0.416591,1.594538,-53.649902,22.674561,174.926758,39.103516
75480,2.169147,5.837064,5.707777,-84.411621,33.843994,-106.811523,39.087891
75520,6.852205,25.507826,-0.603339,57.128906,165.496826,-34.210205,39.111328
75560,4.113238,23.147142,-7.642292,52.764893,131.652832,-78.338623,39.089844
75600,2.753332,14.379576,-9.236830,-4.699707,115.173340,-19.775391,39.117188
75640,0.263362,10.271125,-5.382165,29.479980,85.388184,-44.769287,39.126953
75680,-3.916914,5.305551,-1.738190,46.752930,41.137695,-87.341309,39.113281
75720,-6.497863,0.799663,-0.478840,52.947998,-22.125244,-45.806885,39.093750
75760,-4.544195,-0.914585,-0.268151,36.224365,-90.545654,-3.112793,39.091797
75800,-2.293645,-0.756568,0.933739,-6.256104,-121.490479,46.905518,39.111328
75840,-4.754885,12.023681,4.951209,-157.836914,215.820312,-10.711670,39.125000
75880,-0.909797,24.947582,-6.464345,33.020020,-86.517334,-5.310059,39.113281
75920,-1.642422,18.492813,-8.925584,21.392822,-137.207031,33.630371,39.128906
75960,-0.785298,12.411542,-7.790732,10.559082,-128.662109,39.093018,39.101562
76000,2.025495,8.389283,-5.525817,56.549072,-124.267578,29.235840,39.117188
76040,2.403779,4.170700,-1.474828,32.135010,-89.233398,37.261963,39.091797
76080,1.264138,2.557007,2.829947,-56.182861,-171.905518,91.369629,39.089844
76120,2.489970,1.498770,3.318364,-44.158936,117.553711,118.804932,39.087891
76160,2.791639,0.770933,2.513912,40.435791,68.328857,-15.838623,39.123047
76200,2.135628,15.045163,7.091625,-93.994141,76.568604,-86.486816,39.136719
76240,4.860229,28.222849,-4.510676,78.918457,202.209473,-36.712646,39.117188
76280,2.978387,19.948488,-9.615114,13.122559,129.669189,-44.616699,39.119141
76320,2.892196,11.908759,-9.136273,13.885498,131.622314,1.129150,39.113281
76360,-0.134075,8.379706,-4.496311,21.697998,100.585938,-20.202637,39.107422
76400,-3.734955,3.883395,-0.584185,29.388428,38.330078,-22.338867,39.123047
76440,-5.027823,0.991199,0.656011,37.933350,10.437012,-21.453857,39.126953
76480,-4.213795,-0.636858,0.201113,38.970947,-29.327393,16.174316,39.130859
76520,-4.309563,1.154005,1.517924,-48.278809,13.092041,19.042969,39.138672
76560,-8.863335,13.115437,0.847547,-122.283936,11.199951,-63.598633,39.126953
76600,-0.205901,27.341784,-9.270349,4.791260,-121.520996,21.636963,39.107422
76640,1.599327,19.359514,-8.537724,29.571533,-122.039795,31.707764,39.130859
76680,1.096544,10.759542,-7.225701,22.766113,-138.122559,27.008057,39.130859
76720,2.839523,6.387730,-5.003881,68.084717,-108.245850,22.369385,39.123047
76760,2.327164,4.007894,-0.775721,25.634766,-69.946289,17.913818,39.144531
76800,0.445322,3.490746,3.533842,-47.454834,-118.713379,30.090332,39.136719
76840,0.502782,1.158794,3.031059,1.586914,-63.934326,72.540283,39.132812
76880,1.781286,0.957681,1.704672,-144.195557,-6.500244,114.135742,39.115234
76920,6.799533,18.483236,7.536947,-86.791992,183.288574,-49.041748,39.117188
76960,7.718906,27.217285,-3.801992,80.688477,208.251953,-49.133301,39.125000
77000,4.165911,19.637243,-9.212888,25.390625,189.514160,-73.913574,39.128906
77040,2.370260,11.530476,-8.901642,16.967773,123.138428,-6.347656,39.121094
77080,-1.580173,7.048530,-3.557784,26.702881,67.047119,-29.663086,39.121094
77120,-4.778827,2.456451,-0.493206,44.433594,20.751953,-20.721436,39.142578
77160,-5.348647,0.143652,0.071826,59.692383,-18.035889,-21.026611,39.132812
77200,-3.557784,-0.622492,-0.421380,48.675537,-69.946289,6.805420,39.132812
77240,-4.553771,3.399766,2.576161,-71.258545,5.554199,-2.166748,39.117188
77280,-6.339846,17.798496,-1.685518,-102.020264,-19.775391,-17.120361,39.142578
77320,1.896208,24.947582,-8.700529,46.325684,-105.133057,12.115479,39.117188
77360,0.215478,16.223110,-8.221688,1.617432,-112.487793,31.372070,39.150391
77400,0.957681,11.185710,-6.517017,25.115967,-130.004883,25.817871,39.121094
77440,3.490746,6.809110,-4.314352,58.898926,-94.573975,11.352539,39.136719
77480,2.375048,3.672705,0.713472,-4.486084,-85.052490,23.803711,39.136719
77520,0.823605,2.097321,4.098873,-48.828125,-171.020508,135.620117,39.103516
77560,2.197877,1.297657,2.638410,-58.502197,45.776367,121.765137,39.121094
77600,1.460463,1.795651,4.730943,-6.805420,45.928955,-93.383789,39.123047
77640,5.118803,23.171083,1.915361,18.157959,166.748047,-60.333252,39.101562
77680,4.266468,26.791117,-7.551312,57.983398,131.744385,-89.477539,39.121094
77720,3.390190,15.792154,-9.787497,-23.040771,120.971680,-13.641357,39.119141
77760,1.403002,10.285490,-6.473921,27.221680,107.360840,-19.897461,39.130859
77800,-2.418144,5.339070,-2.513912,48.919678,76.782227,-24.230957,39.107422
77840,-5.966351,1.958457,0.134075,43.395996,39.184570,-43.273926,39.115234
77880,-5.894525,0.047884,0.052672,40.344238,-44.586182,-22.613525,39.119141
77920,-3.682282,-0.301669,0.550666,14.770508,-63.720703,15.350342,39.121094
77960,-5.281609,6.871359,4.659117,-97.778320,105.895996,10.162354,39.128906
78000,-3.471592,23.329102,-5.094861,-75.683594,-62.530518,3.173828,39.121094
78040,1.632846,23.587675,-8.930372,54.473877,-122.619629,11.993408,39.111328
78080,-0.363919,13.685257,-7.661446,7.812500,-132.232666,30.212402,39.130859
78120,1.642422,8.245630,-5.669470,49.224854,-121.704102,24.353027,39.160156
78160,2.834735,4.582502,-2.614468,55.358887,-74.432373,18.890381,39.152344
78200,1.173159,3.514688,2.269703,-23.773193,-92.376709,32.928467,39.150391
78240,0.579397,2.015918,3.849876,-9.338379,-94.787598,19.042969,39.152344
78280,1.680730,0.023942,1.446098,-14.160156,86.395264,161.926270,39.150391
78320,3.031059,8.973468,7.326257,-175.628662,192.718506,-65.185547,39.166016
78360,8.695741,26.302700,0.608127,101.226807,168.548584,-2.777100,39.162109
78400,5.104438,23.151930,-8.154651,63.598633,177.429199,-82.214355,39.140625
78440,3.854665,13.503298,-9.437943,46.844482,137.451172,8.972168,39.142578
78480,0.632069,8.556877,-5.425261,31.860352,101.562500,-3.326416,39.150391
78520,-3.615245,5.070919,-0.842759,33.355713,54.748535,-55.755615,39.132812
78560,-5.899313,1.651999,0.272939,46.020508,0.946045,-30.242920,39.164062
78600,-4.247314,-0.306458,-0.339977,66.192627,-95.428467,3.906250,39.123047
78640,-3.639187,0.493206,1.369483,-34.057617,0.549316,26.397705,39.150391
78680,-6.904878,12.263102,2.418144,-144.195557,91.796875,-38.024902,39.140625
78720,0.852336,27.116728,-8.140285,18.615723,-119.476318,14.404297,39.146484
78760,1.968034,19.254169,-8.992621,32.409668,-91.369629,25.543213,39.140625
78800,1.130063,11.903971,-7.522582,11.016846,-148.223877,29.022217,39.128906
78840,3.533842,7.283162,-5.094861,55.206299,-114.074707,18.371582,39.128906
78880,2.839523,4.395754,-0.344765,13.702393,-78.918457,8.880615,39.156250
78920,0.632069,2.806004,3.821146,-38.299561,-188.720703,56.121826,39.158203
78960,0.948104,0.354342,2.676718,-5.981445,-32.165527,184.417725,39.160156
79000,2.197877,0.679953,2.097321,-48.706055,55.328369,-21.301270,39.132812
79040,3.610456,15.844827,6.287174,-89.538574,150.268555,-93.200684,39.140625
79080,5.956774,27.978642,-5.827487,79.925537,144.897461,-67.932129,39.125000
79120,4.108450,18.918982,-10.199299,12.908936,114.562988,-50.231934,39.132812
79160,2.537854,11.832145,-8.585608,9.674072,104.858398,-9.155273,39.136719
79200,-1.015141,7.934384,-4.098873,44.464111,71.014404,-17.639160,39.146484
79240,-5.444415,3.701436,-0.268151,40.771484,26.824951,-43.212891,39.138672
79280,-6.200983,0.541090,0.339977,49.713135,-27.770996,-35.400391,39.140625
79320,-3.711013,-0.842759,0.014365,29.907227,-110.412598,6.072998,39.148438
79360,-2.791639,2.983175,2.734178,-85.174561,-83.007812,48.461914,39.130859
79400,-4.175488,18.095377,0.038307,-111.053467,42.327881,-0.854492,39.136719
79440,0.555455,24.779987,-8.777143,39.306641,-92.041016,9.124756,39.126953
79480,-1.192312,16.333244,-8.532935,-4.974365,-123.931885,23.651123,39.150391
79520,0.679953,10.697293,-7.335834,23.040771,-123.718262,34.240723,39.146484
79560,2.633622,6.320693,-4.299986,51.574707,-88.317871,20.294189,39.150391
79600,1.776498,3.529053,0.541090,-9.429932,-92.803955,29.296875,39.130859
79640,0.905008,1.920150,3.892972,-41.290283,-142.700195,90.057373,39.140625
79680,2.523489,1.077391,2.135628,32.562256,71.838379,89.935303,39.152344
79720,2.164358,2.839523,4.582502,-61.828613,54.199219,-97.839355,39.113281
79760,6.402095,24.128765,2.260126,-54.138184,263.763428,-31.738281,39.146484
79800,4.917690,25.656265,-7.220912,66.741943,170.623779,-69.885254,39.144531
79840,3.581726,15.179238,-9.662998,7.476807,150.756836,-17.303467,39.123047
79880,1.747767,9.548077,-7.058106,23.529053,96.343994,9.674072,39.132812
79920,-2.020706,5.760449,-1.829170,33.447266,63.751221,-10.192871,39.140625
79960,-5.042189,2.418144,0.694318,40.557861,33.905029,-29.479980,39.123047
80000,-4.817134,0.301669,0.368707,58.776855,-24.993896,-8.422852,39.150391
80040,-3.495534,-0.110133,0.201113,18.188477,-38.482666,15.594482,39.126953
80080,-6.119579,6.588843,4.036624,-95.306396,126.403809,-37.750244,39.134766
80120,-5.793968,22.443247,-5.449203,-93.963623,-73.913574,-16.815186,39.150391
80160,2.796427,24.574087,-9.873688,47.943115,-139.892578,26.733398,39.123047
80200,0.905008,14.777013,-7.407660,12.725830,-124.053955,23.254395,39.150391
80240,1.987187,8.767567,-6.268020,39.886475,-152.526855,24.291992,39.140625
80280,2.968810,4.740520,-3.280056,42.236328,-106.933594,11.383057,39.130859
80320,1.082179,3.385401,1.786075,-17.242432,-118.041992,19.531250,39.154297
80360,0.474052,2.030283,3.385401,-12.329102,-121.215820,50.720215,39.156250
80400,2.039860,0.392649,1.527501,-61.706543,40.344238,179.260254,39.140625
80440,3.452439,8.872911,7.852982,-99.243164,79.895020,-75.775146,39.156250
80480,8.662222,25.603594,-0.090980,60.028076,219.024658,-23.803711,39.164062
80520,4.817134,22.438457,-7.824251,54.534912,197.509766,-87.524414,39.142578
80560,2.849100,13.694834,-9.902418,19.775391,139.282227,-9.704590,39.152344
80600,0.186748,8.690952,-6.095637,30.487061,88.470459,-5.462646,39.150391
80640,-3.845088,4.458004,-1.240196,49.285889,38.787842,-21.850586,39.132812
80680,-5.899313,1.733402,0.646434,45.166016,15.899658,-52.825928,39.117188
80720,-4.860229,-0.383072,-0.033519,50.781250,-72.052002,-12.054443,39.140625
80760,-3.586514,0.526724,1.584962,-36.285400,-48.339844,38.909912,39.140625
80800,-5.808333,12.641385,1.838747,-139.099121,149.932861,-40.130615,39.148438
80840,-0.632069,26.024973,-7.838616,36.987305,-113.494873,7.507324,39.150391
80880,-0.172383,18.794483,-8.949526,11.566162,-123.901367,32.135010,39.136719
80920,0.881066,12.186486,-7.489063,7.873535,-151.519775,27.069092,39.142578
80960,3.275268,7.422025,-4.922479,65.673828,-114.196777,25.695801,39.134766
81000,2.825158,3.960010,-0.565032,12.145996,-80.169678,35.186768,39.142578
81040,1.235408,2.365471,3.519476,-61.523438,-185.363770,110.961914,39.162109
81080,1.996764,1.091756,2.892196,-15.625000,57.495117,147.460938,39.140625
81120,2.030283,0.411803,3.380613,-15.472412,72.662354,-58.319092,39.158203
81160,2.753332,17.147272,6.291962,-73.028564,130.981445,-94.116211,39.150391
81200,5.171476,27.375301,-5.861006,97.473145,148.620605,-54.321289,39.148438
81240,3.701436,18.219875,-10.290278,5.554199,103.179932,-28.747559,39.150391
81280,2.379837,11.544841,-7.963115,18.768311,110.260010,-9.857178,39.162109
81320,-1.383849,7.326257,-3.495534,50.079346,72.540283,-45.379639,39.154297
81360,-5.784391,3.007117,-0.296881,42.938232,34.545898,-42.053223,39.150391
81400,-6.306327,0.402226,0.100556,54.290771,-42.816162,-32.989502,39.136719
81440,-3.294421,-0.612916,0.047884,17.364502,-114.074707,12.420654,39.138672
81480,-2.509123,3.174711,3.394978,-88.226318,-40.374756,38.330078,39.132812
81520,-4.515464,18.023550,0.402226,-123.870850,101.715088,-3.082275,39.142578
81560,1.043872,26.570850,-9.342175,47.515869,-131.103516,-12.420654,39.134766
81600,-1.910573,16.500837,-9.260772,-0.701904,-129.302979,30.151367,39.138672
81640,0.162806,10.338163,-7.843405,16.754150,-137.908936,27.191162,39.140625
81680,2.729390,6.253655,-4.458004,51.940918,-98.785400,20.782471,39.162109
81720,1.939303,4.103662,0.818817,-29.479980,-87.493896,56.793213,39.134766
81760,1.393425,2.193089,3.394978,-54.626465,-114.135742,117.919922,39.140625
81800,2.834735,1.072602,2.140416,27.679443,165.771484,53.833008,39.146484
81840,1.264138,2.221819,5.209783,-35.064697,35.369873,-102.996826,39.152344
81880,5.099649,23.630772,3.150769,-0.610352,197.082520,-32.531738,39.148438
81920,4.252102,26.513390,-7.527370,55.267334,184.295654,-69.580078,39.146484
81960,3.586514,15.576676,-9.576807,2.532959,132.537842,-8.361816,39.134766
82000,2.279280,8.710106,-6.636727,28.839111,84.197998,18.798828,39.152344
82040,-1.963245,4.865018,-1.742979,27.618408,52.337646,-6.561279,39.162109
82080,-5.343858,2.035071,0.732626,28.289795,43.457031,-22.277832,39.160156
82120,-5.554548,-0.014365,0.095768,64.086914,-18.615723,3.448486,39.156250
82160,-4.520253,0.177171,-0.019154,9.796143,-36.285400,17.425537,39.156250
82200,-7.129933,8.743625,2.825158,-120.300293,110.717773,-49.530029,39.158203
82240,-2.288857,25.613171,-7.474698,-47.607422,-104.492188,10.803223,39.169922
82280,2.820370,22.237345,-8.628703,42.022705,-105.316162,28.076172,39.156250
82320,1.537078,12.732365,-7.187394,14.892578,-120.117188,20.050049,39.156250
82360,3.083732,7.647080,-5.540183,50.933838,-126.922607,22.277832,39.171875
82400,3.198653,4.223372,-1.613692,36.346436,-72.570801,18.676758,39.171875
82440,0.550666,3.658340,3.519476,-34.759521,-134.338379,19.165039,39.177734
82480,0.220267,1.359907,3.845088,-2.044678,-101.104736,80.383301,39.175781
82520,1.053449,0.636858,1.838747,-137.847900,-56.030273,145.965576,39.177734
82560,4.922479,16.529568,6.722919,-66.772461,182.922363,-83.831787,39.162109
82600,6.895301,27.212496,-5.181053,75.653076,167.053223,-54.962158,39.171875
82640,4.161122,18.406622,-9.643845,20.111084,135.284424,-51.940918,39.169922
82680,2.628834,11.429919,-8.039729,14.404297,109.497070,-1.068115,39.162109
82720,-0.713472,7.177817,-3.332729,42.083740,55.664062,-52.368164,39.162109
82760,-5.583278,2.494758,0.134075,38.421631,45.288086,-37.841797,39.162109
82800,-6.876147,0.124498,0.282516,64.208984,-26.702881,-31.494141,39.166016
82840,-4.390966,-0.531513,0.100556,27.618408,-95.703125,13.427734,39.173828
82880,-3.485958,4.553771,3.275268,-119.171143,13.305664,48.828125,39.171875
82920,-1.781286,21.993137,-2.389413,-84.442139,-6.317139,-1.159668,39.175781
82960,2.054225,23.051374,-7.967903,62.011719,-74.096680,-7.690430,39.162109
83000,-0.785298,14.915876,-8.504205,-9.277344,-103.820801,20.965576,39.156250
83040,0.684742,10.678140,-6.895301,41.015625,-133.544922,15.686035,39.142578
83080,2.643199,5.544971,-3.687071,62.011719,-74.005127,13.854980,39.164062
83120,1.484405,3.280056,1.786075,-33.264160,-113.952637,31.768799,39.140625
83160,1.517924,1.312023,3.835511,-25.604248,-126.861572,193.298340,39.175781
83200,3.447650,0.818817,2.446874,25.207520,153.259277,20.507812,39.150391
83240,1.072602,4.060566,6.162675,-168.426514,25.634766,-123.657227,39.154297
83280,4.323928,25.220520,-0.761356,71.166992,200.317383,-52.185059,39.160156
83320,3.385401,24.325089,-8.810662,62.988281,94.757080,-40.771484,39.175781
83360,4.060566,14.355634,-9.811439,-5.035400,98.632812,4.028320,39.158203
83400,1.896208,9.313444,-6.042965,39.672852,106.414795,3.082275,39.169922
83440,-3.433285,5.707777,-1.589750,46.936035,67.443848,-18.676758,39.169922
83480,-7.015011,2.442086,0.215478,50.750732,22.460938,-43.548584,39.167969
83520,-5.966351,0.225055,-0.071826,36.285400,-83.282471,-7.751465,39.166016
83560,-2.533065,-0.536301,-0.138864,18.371582,-54.565430,23.895264,39.181641
83600,-4.577713,7.297527,4.108450,-146.942139,100.280762,-16.448975,39.169922
83640,-2.035071,24.674643,-5.358223,-60.150146,-58.929443,12.603760,39.142578
83680,2.106898,23.496695,-9.490616,45.715332,-134.307861,15.350342,39.166016
83720,0.330400,12.952631,-8.853758,1.678467,-129.974365,34.515381,39.150391
83760,2.336741,7.790732,-6.607996,46.234131,-120.971680,24.108887,39.167969
83800,3.035848,4.448427,-2.806004,47.821045,-68.511963,24.597168,39.146484
83840,0.804452,4.007894,3.007117,-41.534424,-116.577148,27.954102,39.138672
83880,0.502782,2.059013,3.845088,-18.096924,-118.316650,66.772461,39.152344
83920,2.097321,1.173159,2.207454,-117.492676,50.384521,110.809326,39.148438
83960,5.027823,14.326903,7.402872,-74.188232,141.845703,-47.027588,39.166016
84000,8.494628,26.633101,-3.639187,79.406738,198.181152,-35.186768,39.177734
84040,4.994305,19.958065,-8.863335,29.693604,209.808350,-80.627441,39.166016
84080,3.610456,10.807426,-9.064447,38.177490,126.068115,15.441895,39.187500
84120,-0.344765,6.440403,-4.295198,20.233154,83.129883,-9.674072,39.179688
84160,-4.793192,3.275268,-0.124498,14.770508,37.445068,-23.559570,39.191406
84200,-6.253655,1.005565,0.526724,51.361084,4.913330,-24.566650,39.189453
84240,-4.261679,-0.349553,-0.560243,69.519043,-78.643799,19.989014,39.195312
84280,-4.027047,2.576161,1.345541,-52.978516,-13.488770,1.129150,39.169922
84320,-6.981492,16.931795,-0.244209,-128.723145,-2.716064,-49.591064,39.197266
84360,2.791639,27.389668,-8.743625,41.320801,-117.645264,12.451172,39.167969
84400,1.350330,17.281347,-8.236053,20.446777,-99.090576,26.397705,39.189453
84440,1.307234,10.160992,-7.292738,27.648926,-135.559082,18.798828,39.191406
84480,3.864242,5.511452,-4.635174,63.873291,-86.669922,11.962891,39.175781
84520,2.039860,3.701436,1.010353,-8.453369,-82.733154,26.611328,39.171875
84560,0.205901,3.126827,4.630386,-47.790527,-178.466797,81.359863,39.185547
84600,2.063802,1.426944,2.274492,-25.573730,17.272949,151.245117,39.183594
84640,2.006341,1.561020,2.940080,2.502441,45.410156,-98.449707,39.189453
84680,5.032612,21.270088,4.960786,-82.794189,198.272705,-60.943604,39.185547
84720,5.066131,26.834213,-8.145074,90.911865,133.728027,-66.284180,39.183594
84760,3.892972,16.663643,-12.085930,16.540527,109.375000,-12.573242,39.199219
84800,2.073379,10.869676,-8.638280,36.285400,111.694336,-2.258301,39.199219
84840,-3.174711,7.297527,-1.944092,36.773682,62.225342,-36.254883,39.191406
84880,-7.048530,3.318364,0.833182,46.569824,22.216797,-49.804688,39.187500
84920,-5.698200,0.531513,0.421380,46.661377,-67.657471,-17.120361,39.199219
84960,-2.384625,-0.737414,0.023942,27.740479,-97.442627,16.296387,39.175781
85000,-2.451663,3.964798,2.940080,-106.750488,-12.908936,33.508301,39.201172
85040,-4.055778,21.155167,-1.355118,-115.325928,17.974854,-20.202637,39.193359
85080,0.766145,25.177425,-9.591172,52.398682,-86.517334,11.474609,39.185547
85120,-1.235408,14.642938,-9.706094,-0.366211,-117.004395,30.334473,39.205078
85160,1.101333,8.796297,-7.158663,42.144775,-108.062744,28.350830,39.203125
85200,2.322376,5.161899,-3.045424,53.619385,-75.439453,13.336182,39.191406
85240,1.019930,3.591303,2.485181,-49.011230,-99.212646,43.426514,39.193359
85280,1.479617,1.455675,3.351882,-4.669189,-9.948730,138.946533,39.189453
85320,2.475605,1.556231,2.106898,-66.497803,94.482422,-15.014648,39.208984
85360,2.044648,12.981361,7.431602,-99.395752,67.047119,-68.786621,39.203125
85400,5.956774,26.738445,-4.218584,60.821533,233.215332,-45.867920,39.193359
85440,3.845088,20.317196,-9.883265,4.760742,153.991699,-52.276611,39.183594
85480,3.179500,12.210428,-9.624691,17.883301,118.774414,17.395020,39.179688
85520,-0.459687,8.202535,-4.232949,18.341064,88.378906,-12.725830,39.210938
85560,-4.702212,4.084508,-0.282516,40.283203,54.473877,-19.744873,39.193359
85600,-6.062119,0.981623,0.459687,62.774658,7.568359,-17.120361,39.214844
85640,-5.315128,-0.373495,-0.196325,34.240723,-59.204102,20.477295,39.193359
85680,-4.793192,2.920926,2.839523,-68.359375,30.120850,11.779785,39.183594
85720,-7.776367,17.271770,-1.910573,-133.178711,32.501221,-56.488037,39.208984
85760,2.044648,27.509378,-8.590396,26.306152,-152.404785,10.650635,39.214844
85800,1.522712,16.438589,-7.862558,13.641357,-108.612061,20.355225,39.185547
85840,1.666364,8.987833,-6.287174,36.560059,-128.112793,11.383057,39.189453
85880,3.232172,4.730943,-3.610456,61.401367,-95.672607,9.735107,39.199219
85920,1.580173,3.184288,1.182736,-7.080078,-80.139160,14.495850,39.195312
85960,0.234632,2.284068,3.749320,-18.402100,-152.465820,37.048340,39.205078
86000,2.231396,0.732626,2.427721,-62.500000,42.541504,212.005615,39.191406
86040,3.136404,8.398860,8.542512,-80.932617,94.238281,-76.782227,39.193359
86080,7.642292,26.211720,-1.048660,60.699463,228.576660,-28.167725,39.191406
86120,4.343082,23.075315,-9.227253,53.192139,220.672607,-90.301514,39.181641
86160,3.050213,13.565547,-10.582372,13.092041,119.293213,2.899170,39.175781
86200,-0.292093,8.111555,-5.262455,28.869629,64.636230,-11.260986,39.177734
86240,-4.587290,3.505111,-0.569820,54.107666,35.247803,-17.669678,39.189453
86280,-6.344635,0.847547,0.234632,60.424805,6.469727,-23.162842,39.193359
86320,-5.396531,-0.105345,-0.033519,19.348145,-49.926758,0.549316,39.169922
86360,-4.730943,2.236184,2.087744,-44.158936,-7.904053,-2.319336,39.193359
86400,-6.871359,16.266207,-3.011906,-124.816895,13.000488,-31.677246,39.185547
86440,1.283292,25.809494,-7.575254,31.402588,-134.979248,8.239746,39.189453
86480,0.742203,16.721106,-7.105990,-14.312744,-108.795166,22.155762,39.203125
86520,0.895431,10.960655,-6.722919,20.111084,-142.608643,18.096924,39.187500
86560,3.246537,5.889736,-4.491522,57.586670,-125.366211,6.683350,39.197266
86600,2.806004,2.499547,-0.167594,27.557373,-76.660156,25.360107,39.199219
86640,0.555455,1.805228,4.343082,-35.186768,-175.750732,105.834961,39.187500
86680,2.389413,1.474828,2.868254,-68.267822,28.991699,185.302734,39.191406
86720,1.158794,4.462792,6.651093,-63.873291,32.379150,-129.669189,39.208984
86760,5.104438,24.032997,0.205901,84.625244,148.406982,-56.365967,39.160156
86800,3.418920,23.228544,-8.288726,42.236328,115.142822,-59.326172,39.177734
86840,3.098097,14.398729,-9.452309,-11.047363,123.840332,-7.507324,39.199219
86880,1.450886,10.510546,-5.928043,30.334473,119.689941,-16.784668,39.201172
86920,-3.021482,5.726931,-2.106898,55.450439,84.289551,-28.533936,39.195312
86960,-6.540959,2.087744,0.014365,52.215576,35.644531,-36.926270,39.183594
87000,-5.789180,0.033519,-0.483629,43.609619,-48.309326,-4.150391,39.187500
87040,-3.136404,-0.814029,-0.201113,30.212402,-73.303223,34.240723,39.183594
87080,-4.333505,5.334281,4.108450,-119.354248,13.671875,27.862549,39.179688
87120,-4.927267,22.941240,-3.098097,-106.018066,-15.563965,-25.024414,39.195312
87160,1.795651,25.345018,-9.572019,46.051025,-103.424072,5.340576,39.167969
87200,-0.526724,14.183250,-8.748413,4.119873,-120.269775,26.214600,39.193359
87240,0.608127,8.456321,-7.043741,39.245605,-114.227295,19.744873,39.189453
87280,3.050213,5.037400,-3.399766,49.926758,-46.020508,13.031006,39.185547
87320,1.527501,4.357447,2.169147,-25.024414,-76.873779,35.247803,39.189453
87360,0.866701,2.470816,3.744531,-10.894775,-56.365967,32.684326,39.181641
87400,1.508347,0.229843,1.522712,-33.447266,22.705078,173.980713,39.185547
87440,1.766921,7.235278,7.699753,-101.776123,125.579834,-102.142334,39.171875
87480,7.316680,25.531767,-0.694318,48.553467,161.468506,-23.284912,39.195312
87520,4.376601,23.860615,-9.342175,37.506104,144.256592,-116.485596,39.185547
87560,3.069367,14.130578,-10.649409,13.397217,128.356934,-11.169434,39.199219
87600,-0.033519,9.121908,-5.846641,-5.035400,72.998047,4.730225,39.203125
87640,-4.122815,4.917690,-0.244209,30.120850,20.446777,-20.782471,39.179688
87680,-5.592855,1.604115,0.809240,47.668457,25.299072,-10.284424,39.203125
87720,-4.836287,-0.181959,0.033519,61.157227,-62.835693,11.932373,39.191406
87760,-4.390966,1.944092,2.183512,-64.697266,-44.769287,16.357422,39.162109
87800,-6.708553,14.858416,2.121263,-136.260986,68.969727,-29.632568,39.175781
87840,1.029507,25.263617,-7.297527,7.019043,-125.946045,-5.462646,39.179688
87880,0.545878,17.472883,-7.939173,4.882812,-98.327637,12.298584,39.185547
87920,0.914585,12.330139,-6.406884,12.786865,-131.225586,11.383057,39.173828
87960,2.978387,7.393295,-4.434062,72.174072,-78.643799,7.751465,39.199219
88000,2.346318,3.600879,-0.296881,20.996094,-68.115234,5.920410,39.179688
88040,0.976834,2.264915,3.758897,-8.941650,-137.451172,42.755127,39.185547
88080,1.685518,0.531513,2.327164,14.587402,25.848389,185.791016,39.179688
88120,1.292869,2.667141,4.922479,-96.069336,53.344727,-94.818115,39.191406
88160,3.888184,20.676327,5.166687,16.265869,125.640869,-49.774170,39.195312
88200,4.122815,25.459940,-6.028600,55.816650,114.135742,-58.532715,39.187500
88240,2.935291,16.893488,-9.083601,-15.930176,120.117188,-19.409180,39.191406
88280,1.527501,12.239159,-6.473921,16.815186,96.160889,-2.471924,39.208984
88320,-1.704672,6.631939,-2.518700,55.908203,65.338135,-10.772705,39.191406
88360,-5.793968,2.078167,0.440533,62.072754,23.712158,-38.269043,39.201172
88400,-6.253655,-0.014365,0.316035,56.121826,-28.991699,-28.076172,39.189453
88440,-3.883395,-0.699107,0.248997,32.165527,-94.757080,7.507324,39.181641
88480,-3.672705,5.248090,4.280833,-129.028320,-48.645020,40.405273,39.201172
88520,-3.399766,20.958841,-1.862689,-76.446533,-35.034180,2.716064,39.179688
88560,0.258574,22.869415,-7.867347,49.774170,-71.624756,-0.335693,39.185547
88600,-1.790863,15.576676,-8.599973,-8.544922,-120.178223,19.500732,39.199219
88640,0.210690,11.329363,-7.359776,48.248291,-124.755859,15.502930,39.181641
88680,2.193089,6.277597,-4.299986,61.737061,-80.902100,9.124756,39.207031
88720,1.594538,3.907337,1.340753,-37.597656,-96.740723,50.750732,39.218750
88760,1.675941,2.145205,3.960010,-32.958984,-109.924316,123.992920,39.208984
88800,2.949656,0.885855,1.838747,81.146240,87.951660,62.225342,39.203125
88840,2.312799,2.006341,5.032612,-96.130371,91.583252,-109.222412,39.208984
88880,4.989516,23.338678,3.184288,-39.215088,224.151611,-39.794922,39.185547
88920,4.252102,26.388891,-7.589619,68.939209,137.359619,-83.984375,39.179688
88960,3.160346,16.203957,-10.103531,-1.342773,143.646240,-30.120850,39.166016
89000,1.479617,10.740389,-7.450756,28.717041,100.128174,-3.570557,39.195312
89040,-2.537854,6.373365,-1.905785,29.479980,60.974121,-22.430420,39.208984
89080,-5.453991,2.489970,0.545878,41.870117,33.050537,-31.372070,39.208984
89120,-5.157111,0.086191,0.301669,65.277100,-38.177490,-2.532959,39.195312
89160,-3.208230,-0.555455,-0.071826,33.264160,-61.737061,25.390625,39.189453
89200,-4.893748,5.171476,4.544195,-116.302490,69.549561,9.002686,39.214844
89240,-6.354211,20.728998,-2.968810,-98.358154,-6.286621,-28.533936,39.189453
89280,1.618480,25.464729,-9.931149,34.515381,-151.062012,15.075684,39.216797
89320,0.454898,15.255854,-8.331821,11.901855,-116.760254,23.895264,39.195312
89360,1.575385,9.557653,-6.445191,42.480469,-125.488281,22.705078,39.197266
89400,3.107674,5.477933,-3.524265,63.995361,-78.247070,19.104004,39.205078
89440,1.422156,4.079720,1.762132,-27.648926,-108.001709,35.583496,39.203125
89480,0.785298,2.403779,3.725378,-13.122559,-94.573975,46.875000,39.210938
89520,1.920150,0.488417,0.804452,25.634766,69.641113,122.650146,39.199219
89560,0.742203,3.323152,3.179500,-123.596191,-158.599854,-108.154297,39.212891
89600,6.148310,23.491907,4.778827,-45.349121,194.519043,-2.166748,39.205078
89640,5.109226,25.905262,-7.297527,88.317871,89.202881,-67.169189,39.195312
89680,3.136404,15.964537,-9.821015,17.852783,115.844727,-27.465820,39.210938
89720,0.828394,9.854534,-6.976704,23.529053,86.242676,-5.523682,39.214844
89760,-3.371036,6.200983,-1.369483,38.024902,23.071289,-30.059814,39.205078
89800,-5.588067,2.624045,0.785298,51.269531,-18.127441,-26.123047,39.173828
89840,-4.721366,0.119710,0.723049,38.482666,-57.495117,-4.394531,39.216797
89880,-3.371036,-0.339977,1.810017,-5.004883,-83.557129,14.343262,39.177734
89920,-5.559336,8.576031,4.745308,-68.511963,90.850830,-11.413574,39.191406
89960,-2.542642,25.139118,-6.636727,-31.768799,-95.184326,17.700195,39.185547
90000,0.445322,21.782448,-9.519346,14.404297,-107.788086,15.777588,39.197266
90040,-0.526724,14.250289,-8.494628,-14.556885,-140.686035,23.529053,39.205078
90080,1.881842,9.552865,-6.636727,57.006836,-109.161377,9.063721,39.189453
90120,3.021482,4.582502,-2.806004,42.510986,-52.124023,12.207031,39.203125
90160,1.704672,2.964022,2.413355,-54.016113,-149.261475,38.696289,39.222656
90200,2.159570,1.082179,3.174711,-8.270264,-54.962158,196.533203,39.224609
90240,2.825158,1.206678,4.137180,10.070801,77.209473,-27.435303,39.203125
90280,1.987187,12.220005,7.072472,-137.542725,177.459717,-93.780518,39.214844
90320,3.174711,24.909275,-5.137957,98.663330,219.421387,-81.481934,39.205078
90360,1.752556,19.043480,-9.528923,-6.835938,78.430176,-32.684326,39.203125
90400,2.379837,12.574347,-7.575254,-7.507324,86.364746,9.216309,39.205078
90440,0.775721,8.422802,-3.768473,51.330566,61.950684,-12.451172,39.203125
90480,-3.787627,3.409343,-0.761356,59.173584,35.003662,1.708984,39.191406
90520,-6.023811,0.852336,0.172383,60.394287,2.136230,-8.544922,39.203125
90560,-5.501875,-0.023942,0.497994,19.287109,-58.715820,14.587402,39.222656
90600,-4.999093,3.122039,3.509900,-66.955566,-14.770508,37.139893,39.212891
90640,-6.248867,15.849615,-0.632069,-129.455566,18.859863,-27.099609,39.205078
90680,1.685518,25.330654,-9.299079,13.336182,-139.739990,0.610352,39.203125
90720,0.205901,18.033127,-8.030152,0.213623,-124.694824,19.287109,39.216797
90760,0.363919,12.157756,-7.196970,20.507812,-155.914307,20.263672,39.224609
90800,3.126827,6.497863,-5.382165,69.366455,-104.278564,5.279541,39.191406
90840,2.413355,2.767697,-0.871489,29.510498,-47.546387,17.608643,39.218750
90880,0.292093,2.671929,3.912126,-48.767090,-184.936523,45.898438,39.228516
90920,2.188300,1.139640,3.184288,-8.392334,8.453369,204.864502,39.199219
90960,2.738967,2.035071,3.936068,18.218994,102.508545,-81.665039,39.224609
91000,4.027047,16.031574,8.078036,-156.127930,188.507080,-35.217285,39.201172
91040,3.663129,27.178978,-5.382165,105.285645,208.862305,-68.145752,39.222656
91080,2.082955,19.589357,-10.457873,14.465332,134.674072,-53.588867,39.208984
91120,2.609680,12.033257,-9.193734,15.350342,96.771240,16.662598,39.191406
91160,-0.612916,7.809886,-3.385401,28.137207,65.399170,-6.561279,39.189453
91200,-4.486734,3.505111,-0.124498,43.609619,3.509521,-2.441406,39.218750
91240,-4.975151,0.794875,0.651223,50.506592,-20.355225,4.638672,39.201172
91280,-4.299986,-0.608127,0.268151,34.576416,-39.550781,33.782959,39.220703
91320,-5.856217,3.227384,3.260903,-66.497803,66.406250,30.120850,39.212891
91360,-7.359776,18.219875,-2.796427,-117.553711,-22.033691,-44.555664,39.199219
91400,2.408567,25.780764,-9.686940,8.300781,-129.241943,17.730713,39.201172
91440,1.163582,16.773777,-8.293514,-5.798340,-108.581543,25.299072,39.199219
91480,1.393425,10.960655,-6.502652,26.245117,-117.156982,14.251709,39.208984
91520,3.179500,6.291962,-4.170700,61.889648,-78.491211,1.678467,39.208984
91560,2.078167,3.217807,0.770933,-8.911133,-72.814941,19.439697,39.210938
91600,0.545878,1.699883,4.113238,-18.005371,-155.853271,70.465088,39.216797
91640,1.790863,0.598550,2.303222,-61.035156,21.667480,209.991455,39.210938
91680,1.805228,4.544195,6.062119,-86.273193,126.220703,-103.546143,39.220703
91720,6.220136,23.965960,1.422156,110.168457,140.686035,-35.888672,39.232422
91760,3.960010,23.558945,-7.374141,72.784424,155.578613,-97.442627,39.220703
91800,2.853889,14.810532,-9.653421,-16.265869,142.944336,-16.632080,39.205078
91840,1.575385,10.477027,-6.244078,35.919189,84.472656,-15.777588,39.199219
91880,-2.719813,4.625597,-1.829170,52.520752,59.631348,-33.538818,39.218750
91920,-6.761226,0.890643,0.459687,52.490234,34.027100,-38.391113,39.208984
91960,-6.732495,-0.426168,-0.191536,39.367676,-44.250488,1.586914,39.208984
92000,-4.194642,-0.603339,0.033519,10.955811,-77.850342,27.648926,39.218750
92040,-5.204995,8.825027,3.217807,-161.499023,150.451660,7.812500,39.195312
92080,0.225055,25.292347,-5.875371,-19.531250,-117.736816,-12.237549,39.193359
92120,1.063026,20.681114,-7.762002,30.761719,-80.047607,13.488770,39.173828
92160,-0.258574,14.441825,-7.551312,-7.507324,-123.687744,21.148682,39.183594
92200,1.905785,9.744401,-5.329493,56.243896,-89.355469,12.542725,39.171875
92240,2.547431,4.726154,-2.303222,48.828125,-46.752930,7.720947,39.179688
92280,0.675165,3.294421,2.580950,-43.670654,-90.087891,13.854980,39.193359
92320,0.397437,1.292869,4.070143,-1.220703,-84.289551,102.569580,39.205078
92360,2.547431,0.608127,1.197101,-33.447266,99.639893,96.069336,39.175781
92400,0.727837,3.936068,4.194642,-130.950928,-10.559082,-154.876709,39.189453
92440,3.246537,25.483883,1.872266,41.137695,169.433594,-55.389404,39.195312
92480,2.279280,24.483107,-8.264784,59.082031,107.330322,-67.596436,39.189453
92520,2.327164,15.136143,-10.443508,-2.410889,95.397949,-1.098633,39.197266
92560,1.393425,10.424355,-6.804321,15.686035,93.170166,-2.532959,39.218750
92600,-2.461239,5.995081,-1.259350,43.487549,31.951904,-12.542725,39.201172
92640,-5.157111,2.427721,0.976834,42.846680,27.740479,-9.704590,39.175781
92680,-4.606444,0.344765,0.560243,44.769287,-28.717041,5.920410,39.189453
92720,-2.810793,-0.354342,0.071826,41.259766,-77.056885,20.660400,39.189453
92760,-4.304775,5.525817,4.778827,-107.635498,41.656494,9.857178,39.177734
92800,-5.334281,21.380220,-1.642422,-113.861084,2.410889,-31.005859,39.193359
92840,1.470040,25.986666,-9.672575,47.210693,-102.325439,4.425049,39.173828
92880,-0.373495,15.504850,-9.160215,3.417969,-85.968018,12.176514,39.169922
92920,0.445322,10.199299,-7.101202,34.606934,-120.880127,10.253906,39.203125
