MS,Accel X (m/s²),Accel Y (m/s²),Accel Z (m/s²),Gyro X (°/s),Gyro Y (°/s),Gyro Z (°/s),Temp (°C)
30000,-0.100556,1.675941,1.235408,4.547119,-90.332031,54.534912,40.193359
30040,3.955221,-0.028730,4.955997,38.299561,-72.875977,11.840820,40.183594
30080,20.178331,-6.789956,-10.448297,-82.489014,-265.350342,138.549805,40.197266
30120,16.419436,-7.216124,-19.340361,-72.692871,97.717285,23.132324,40.210938
30160,8.892065,-3.581726,-14.920665,-124.267578,6.072998,61.645508,40.197266
30200,4.161122,-3.213019,-10.448297,-105.438232,23.315430,70.922852,40.201172
30240,1.503559,-4.204218,-4.022259,-25.482178,40.344238,41.656494,40.205078
30280,3.031059,-4.520253,2.973598,-6.835938,111.267090,54.351807,40.203125
30320,0.158017,-2.791639,4.213795,-19.073486,-7.232666,-32.440186,40.197266
30360,-0.445322,-3.485958,3.653552,56.457520,-11.260986,-79.742432,40.189453
30400,13.752295,-5.980716,1.723825,19.500732,-31.402588,2.655029,40.195312
30440,18.966866,-9.289502,-17.496826,63.354492,-38.818359,-51.452637,40.210938
30480,12.325351,-7.685388,-17.544710,109.039307,-38.085938,-70.556641,40.207031
30520,6.536170,-5.717354,-14.652514,111.511230,-71.716309,-66.680908,40.187500
30560,5.803545,-1.939303,-7.738060,56.823730,-22.430420,-41.748047,40.199219
30600,5.410896,2.322376,-0.675165,20.324707,81.176758,-21.209717,40.208984
30640,4.606444,4.548983,3.093309,23.162842,238.006592,-18.341064,40.201172
30680,2.121263,4.146757,2.466028,-18.585205,182.800293,-12.573242,40.207031
30720,0.459687,1.120486,2.815581,14.404297,-46.020508,9.613037,40.207031
30760,14.460979,-2.853889,1.537078,-88.653564,-515.045166,139.923096,40.216797
30800,19.613300,-8.992621,-17.942148,-54.077148,106.536865,36.926270,40.218750
30840,11.975797,-4.850653,-16.122555,-119.506836,19.775391,42.449951,40.201172
30880,7.072472,-3.002329,-12.061988,-116.516113,19.714355,60.638428,40.216797
30920,2.782062,-3.763685,-6.363788,-68.450928,25.207520,45.806885,40.193359
30960,2.154782,-4.735731,0.550666,5.004883,77.850342,27.709961,40.201172
31000,0.430956,-3.174711,3.548207,-17.700195,22.796631,-19.866943,40.216797
31040,-0.933739,-3.059790,4.012682,27.740479,-34.667969,-76.568604,40.199219
31080,8.030152,-5.640739,4.213795,35.034180,-39.459229,-33.996582,40.222656
31120,20.384233,-10.443508,-13.024457,59.478760,-26.824951,-13.732910,40.201172
31160,15.921441,-7.857770,-17.420212,107.910156,-38.696289,-76.080322,40.201172
31200,8.183381,-5.746084,-14.911088,130.126953,-57.556152,-70.678711,40.234375
31240,5.578490,-2.628834,-9.710882,79.559326,-40.252686,-43.029785,40.224609
31280,4.721366,1.565808,-2.375048,33.477783,38.574219,-19.226074,40.201172
31320,4.328717,4.333505,2.518700,22.644043,205.200195,-42.388916,40.210938
31360,2.834735,5.324705,3.102885,-3.723145,226.593018,-8.850098,40.216797
31400,0.023942,2.035071,1.326388,-15.289307,-83.740234,-10.253906,40.191406
31440,9.006987,-0.430956,3.715801,-27.404785,-371.673584,104.400635,40.210938
31480,22.041021,-7.517793,-16.270994,-88.256836,-5.401611,76.873779,40.224609
31520,13.249513,-6.258443,-18.478449,-90.606689,51.025391,44.372559,40.232422
31560,7.192182,-3.385401,-13.105860,-119.628906,21.911621,66.192627,40.203125
31600,3.035848,-3.533842,-7.608773,-83.740234,30.487061,48.431396,40.207031
31640,1.608904,-4.462792,-1.288081,-9.613037,58.868408,32.806396,40.207031
31680,1.321599,-3.581726,3.347094,-22.155762,64.514160,22.552490,40.210938
31720,-0.981623,-2.628834,3.979163,10.314941,-46.752930,-75.622559,40.222656
31760,3.145981,-3.916914,4.692636,41.534424,-2.349854,-61.920166,40.197266
31800,18.401834,-9.452309,-6.220136,37.872314,-57.525635,19.317627,40.197266
31840,16.476896,-9.792285,-19.191921,89.263916,-47.729492,-75.592041,40.191406
31880,8.978256,-6.718130,-16.634912,125.457764,-61.889648,-77.789307,40.197266
31920,6.177041,-4.041412,-12.339716,92.437744,-69.519043,-52.276611,40.197266
31960,6.191406,0.076614,-4.663905,43.731689,-2.929688,-25.024414,40.207031
32000,5.583278,3.509900,0.871489,6.439209,104.064941,-20.172119,40.183594
32040,3.706224,4.515464,2.504335,5.859375,261.383057,-12.023926,40.181641
32080,1.082179,2.657564,1.211466,-29.113770,131.896973,20.721436,40.191406
32120,2.791639,0.440533,5.243302,115.570068,-42.449951,83.221436,40.173828
32160,18.598158,-5.798757,-3.983952,-107.025146,-367.370605,154.724121,40.199219
32200,17.592594,-9.806650,-19.249382,-46.752930,110.717773,15.594482,40.193359
32240,9.801862,-4.587290,-15.150508,-126.831055,14.648438,58.898926,40.177734
32280,5.042189,-3.059790,-10.587160,-124.786377,26.123047,69.152832,40.210938
32320,1.613692,-3.811569,-4.984728,-66.680908,16.113281,49.713135,40.197266
32360,2.480393,-4.764462,1.642422,-7.659912,59.783936,39.581299,40.169922
32400,0.172383,-2.743755,3.529053,-10.070801,23.223877,-56.671143,40.193359
32440,0.000000,-3.016694,3.773262,30.975342,-19.500732,-76.080322,40.193359
32480,12.473791,-7.182605,2.719813,19.012451,-13.763428,13.122559,40.193359
32520,17.424999,-11.975797,-16.328455,64.331055,-47.271729,-57.861328,40.173828
32560,12.583924,-8.341399,-17.013197,92.285156,-48.126221,-73.608398,40.173828
32600,7.000646,-5.583278,-13.876793,102.691650,-78.369141,-68.023682,40.167969
32640,5.707777,-2.212242,-7.852982,53.863525,-28.381348,-44.494629,40.205078
32680,5.477933,2.288857,-1.249773,4.241943,48.156738,-21.942139,40.164062
32720,4.711789,4.419696,2.791639,-2.014160,212.341309,-38.665771,40.162109
32760,2.217031,4.041412,2.489970,-42.785645,170.959473,11.932373,40.173828
32800,0.761356,0.545878,2.413355,57.922363,93.505859,14.038086,40.187500
32840,11.640609,-3.821146,3.720589,-78.796387,-533.691406,98.297119,40.199219
32880,20.499155,-9.662998,-15.773001,-55.511475,65.673828,32.623291,40.183594
32920,12.794614,-6.952762,-16.979679,-95.367432,37.353516,28.747559,40.183594
32960,9.030929,-4.003105,-13.263878,-119.049072,41.625977,59.692383,40.160156
33000,3.696647,-3.821146,-8.772355,-79.437256,25.421143,31.707764,40.197266
33040,1.479617,-4.836287,-1.628057,-24.444580,19.653320,28.106689,40.169922
33080,0.861913,-4.410120,3.845088,-24.475098,59.753418,-20.690918,40.197266
33120,-1.029507,-3.414132,3.634398,31.036377,-49.560547,-85.571289,40.181641
33160,1.857901,-3.150769,3.385401,46.478271,0.457764,-68.267822,40.183594
33200,18.607735,-6.847417,-3.280056,8.422852,29.357910,33.843994,40.169922
33240,16.649279,-8.470686,-17.377115,78.277588,-48.614502,-56.365967,40.191406
33280,10.342952,-7.431602,-15.710752,98.022461,-46.966553,-53.863525,40.167969
33320,8.039729,-6.042965,-11.894394,90.515137,-54.656982,-38.574219,40.191406
33360,5.947197,-0.809240,-5.382165,34.912109,-1.068115,-27.740479,40.181641
33400,4.616021,3.916914,0.450110,-18.524170,73.852539,-9.429932,40.167969
33440,3.586514,5.741296,3.351882,11.291504,138.671875,2.655029,40.179688
33480,0.847547,3.524265,1.762132,-62.530518,44.586182,-24.597168,40.193359
33520,3.342306,-0.167594,3.581726,25.512695,88.287354,79.650879,40.173828
33560,20.638020,-5.746084,-4.941632,-80.871582,-322.052002,163.269043,40.167969
33600,15.624560,-9.040505,-17.286137,-62.591553,90.576172,27.099609,40.183594
33640,9.634268,-5.104438,-14.226347,-116.455078,51.300049,67.138672,40.183594
33680,5.477933,-3.768473,-11.128249,-118.743896,32.897949,70.007324,40.203125
33720,1.082179,-3.883395,-5.597643,-49.621582,-1.220703,35.339355,40.177734
33760,1.211466,-4.209007,2.269703,-1.708984,59.295654,22.583008,40.177734
33800,0.009577,-3.749320,4.888960,-12.268066,0.762939,-27.160645,40.191406
33840,0.095768,-3.529053,4.333505,34.942627,-12.695312,-81.390381,40.167969
33880,13.316550,-6.900089,0.727837,36.376953,-10.498047,-3.295898,40.173828
33920,19.622877,-9.701305,-16.812084,58.959961,-27.221680,-33.782959,40.164062
33960,12.780249,-8.264784,-16.534357,120.697021,-41.839600,-76.293945,40.171875
34000,7.058106,-6.794744,-13.924677,109.313965,-75.347900,-55.389404,40.158203
34040,5.884948,-2.355895,-7.795521,71.197510,-30.029297,-44.921875,40.148438
34080,5.382165,2.442086,-1.029507,16.937256,31.982422,-23.040771,40.148438
34120,4.252102,4.458004,2.542642,-8.178711,125.427246,-25.756836,40.160156
34160,1.977611,4.141969,2.303222,-18.432617,101.409912,18.554688,40.164062
34200,0.502782,1.900996,1.719037,-2.502441,122.741699,23.071289,40.177734
34240,12.765883,-2.753332,4.213795,-9.643555,-321.319580,104.095459,40.166016
34280,21.566969,-10.247183,-15.725117,-46.386719,39.459229,51.818848,40.164062
34320,12.885593,-7.010222,-16.898275,-100.372314,32.104492,28.717041,40.167969
34360,7.608773,-4.127604,-11.846510,-121.398926,37.200928,62.988281,40.175781
34400,2.197877,-3.840300,-6.890512,-75.500488,22.033691,42.602539,40.203125
34440,1.163582,-3.811569,-0.248997,-25.024414,22.064209,31.402588,40.167969
34480,0.703895,-3.122039,3.529053,-26.458740,43.273926,-21.301270,40.203125
34520,-0.833182,-2.705448,3.069367,31.555176,-57.006836,-94.604492,40.169922
34560,6.981492,-4.510676,5.588067,25.878906,21.087646,-35.980225,40.183594
34600,18.990808,-10.687716,-8.805874,63.873291,-2.593994,5.401611,40.156250
34640,15.868769,-9.174581,-18.564640,61.737061,-51.025391,-49.926758,40.167969
34680,9.481039,-7.115568,-15.217546,109.649658,-61.126709,-51.849365,40.154297
34720,6.856994,-4.424485,-9.787497,104.156494,-51.361084,-58.349609,40.164062
34760,5.492299,0.555455,-3.174711,23.040771,11.260986,-23.956299,40.158203
34800,5.190629,3.983952,1.551443,-20.324707,117.187500,-21.881104,40.173828
34840,3.318364,4.817134,2.767697,1.525879,209.533691,-7.324219,40.169922
34880,0.737414,2.858677,1.163582,-45.837402,89.691162,-25.787354,40.183594
34920,3.801992,-0.517148,5.626374,67.382812,-12.573242,121.643066,40.181641
34960,20.638020,-7.714118,-7.833828,-80.108643,-288.726807,125.976562,40.183594
35000,15.950171,-9.753978,-18.119318,-66.955566,64.971924,21.850586,40.173828
35040,9.691729,-5.477933,-13.311762,-105.804443,21.423340,57.830811,40.169922
35080,4.831499,-3.773262,-8.556877,-102.874756,39.794922,64.056396,40.158203
35120,1.364695,-3.476381,-3.055001,-30.395508,17.395020,31.372070,40.164062
35160,1.580173,-2.849100,2.882619,-8.239746,77.270508,3.753662,40.160156
35200,-0.067038,-2.245761,3.864242,16.326904,-18.890381,-72.143555,40.160156
35240,2.135628,-3.442862,4.855441,35.858154,12.329102,-54.412842,40.173828
35280,16.270994,-8.858546,-2.710236,43.914795,3.631592,15.075684,40.173828
35320,16.850391,-10.165780,-17.583017,76.690674,-64.788818,-51.177979,40.185547
35360,10.874464,-7.627927,-15.413871,97.747803,-47.088623,-55.969238,40.193359
35400,7.335834,-5.707777,-11.554418,108.917236,-77.972412,-52.398682,40.183594
35440,5.971139,-1.182736,-5.511452,59.570312,-30.151367,-33.905029,40.187500
35480,5.908890,3.610456,0.421380,-14.465332,34.210205,-16.906738,40.152344
35520,4.534618,5.329493,2.853889,10.498047,152.008057,-15.686035,40.183594
35560,1.201889,3.514688,1.838747,-35.339355,124.420166,24.017334,40.177734
35600,1.292869,0.493206,2.346318,45.654297,138.702393,55.267334,40.187500
35640,17.932571,-5.770026,0.560243,-63.873291,-367.675781,155.273438,40.187500
35680,18.373104,-11.578360,-17.334021,-44.219971,67.443848,-5.157471,40.177734
35720,11.238382,-4.893748,-14.465767,-110.290527,25.939941,47.424316,40.177734
35760,6.038177,-2.916138,-10.539276,-121.795654,25.207520,55.999756,40.197266
35800,2.035071,-4.290410,-5.434838,-65.093994,3.875732,39.489746,40.173828
35840,2.082955,-4.994305,1.110910,-1.037598,39.611816,25.543213,40.154297
35880,0.220267,-3.131616,3.562572,24.230957,50.323486,-42.297363,40.191406
35920,-0.296881,-2.135628,4.247314,36.315918,-26.916504,-72.967529,40.167969
35960,9.921572,-4.960786,3.596091,55.816650,-29.144287,-41.839600,40.207031
36000,19.474436,-12.741941,-14.815320,74.645996,-39.215088,-30.426025,40.160156
36040,13.618219,-10.041282,-17.961302,111.328125,-67.596436,-69.183350,40.187500
36080,6.962338,-6.009446,-14.556746,109.893799,-100.921631,-53.588867,40.160156
36120,5.913678,-1.915361,-7.896077,61.950684,-52.307129,-31.768799,40.160156
36160,6.488286,2.518700,-0.454898,-11.260986,39.611816,-14.801025,40.160156
36200,5.276821,4.276044,2.557007,-22.827148,189.941406,-36.193848,40.162109
36240,2.264915,4.170700,1.939303,-29.418945,221.679688,20.263672,40.156250
36280,-0.277727,1.297657,0.497994,-4.638672,-103.149414,7.598877,40.160156
36320,8.025364,-1.316811,5.889736,-4.119873,-250.427246,25.573730,40.181641
36360,22.007502,-9.117120,-15.021221,-101.837158,-46.203613,82.794189,40.160156
36400,13.259089,-7.982268,-19.440918,-88.256836,27.130127,26.580811,40.167969
36440,6.708553,-3.246537,-13.742718,-129.425049,8.270264,57.830811,40.187500
36480,2.853889,-4.031836,-7.460332,-78.887939,19.531250,47.393799,40.183594
36520,3.016694,-5.635951,0.282516,-27.404785,54.412842,48.645020,40.158203
36560,1.388637,-4.175488,3.524265,-19.683838,72.387695,-29.876709,40.164062
36600,-0.790087,-3.620033,3.768473,76.843262,-33.142090,-110.961914,40.175781
36640,9.710882,-5.683835,3.782839,42.999268,-35.736084,-16.510010,40.169922
36680,18.669985,-9.466674,-15.399506,44.250488,-26.641846,-21.972656,40.175781
36720,13.048399,-7.876924,-18.574217,86.517334,-61.462402,-62.316895,40.183594
36760,7.264008,-6.392519,-14.068329,101.379395,-68.969727,-48.858643,40.191406
36800,6.224925,-2.370260,-7.196970,70.404053,-37.017822,-49.957275,40.177734
36840,5.990293,2.552219,-0.057461,-19.134521,67.077637,-16.693115,40.160156
36880,5.027823,5.664681,3.227384,17.211914,171.539307,-19.134521,40.183594
36920,1.972822,4.429273,2.365471,-59.265137,96.008301,8.209229,40.173828
36960,0.071826,0.933739,1.015141,-24.658203,66.741943,13.824463,40.164062
37000,13.929465,-4.343082,3.313575,-26.306152,-424.560547,122.833252,40.169922
37040,19.756952,-10.338163,-16.663643,-62.622070,43.273926,66.650391,40.167969
37080,11.664551,-6.564901,-16.371552,-100.616455,39.978027,28.686523,40.173828
37120,7.460332,-3.711013,-12.713211,-111.968994,34.240723,67.413330,40.152344
37160,2.116474,-3.897760,-7.704541,-53.710938,-18.218994,25.268555,40.169922
37200,1.465251,-4.826711,-0.033519,9.063721,22.979736,19.348145,40.164062
37240,1.240196,-4.232949,4.639963,-9.582520,23.437500,-23.284912,40.158203
37280,-0.756568,-3.179500,3.610456,49.194336,-28.350830,-89.904785,40.177734
37320,2.116474,-2.394202,1.551443,64.361572,-9.674072,-69.702148,40.140625
37360,22.088905,-5.329493,-6.349423,12.756348,65.734863,39.794922,40.140625
37400,17.463306,-8.643068,-18.669985,73.638916,-64.147949,-50.567627,40.128906
37440,8.307879,-8.336611,-15.844827,106.414795,-63.476562,-56.182861,40.138672
37480,5.712565,-5.506664,-11.085154,78.765869,-59.295654,-36.437988,40.130859
37520,5.918467,0.186748,-3.529053,9.124756,17.761230,-9.368896,40.140625
37560,5.540183,4.534618,1.651999,-38.818359,97.961426,-7.202148,40.156250
37600,3.912126,5.190629,3.045424,-17.089844,138.916016,14.892578,40.130859
37640,1.067814,2.298434,1.929727,-30.273438,151.000977,35.949707,40.121094
37680,6.871359,-2.676718,3.126827,18.005371,-248.962402,21.087646,40.138672
37720,20.599712,-10.242394,-10.563218,-41.687012,-56.152344,73.760986,40.138672
37760,15.370775,-8.039729,-16.242264,-78.674316,66.162109,21.362305,40.121094
37800,9.586384,-2.782062,-13.642161,-136.535645,52.337646,81.817627,40.144531
37840,3.165135,-3.275268,-9.974244,-67.138672,14.923096,46.081543,40.156250
37880,0.641646,-3.983952,-3.404555,-19.317627,-30.395508,17.120361,40.136719
37920,2.121263,-4.347870,3.375824,-5.462646,70.281982,17.395020,40.125000
37960,-0.081403,-2.595315,3.758897,16.967773,36.132812,-50.506592,40.130859
38000,0.186748,-2.829947,3.399766,51.452637,-24.291992,-71.411133,40.140625
38040,12.986150,-7.340622,1.752556,71.960449,-9.033203,-3.723145,40.134766
38080,18.914194,-11.089942,-15.370775,67.962646,-43.792725,-41.564941,40.130859
38120,12.382812,-8.796297,-17.367538,115.844727,-74.859619,-70.678711,40.136719
38160,6.440403,-6.430826,-14.082694,113.189697,-105.224609,-57.281494,40.144531
38200,5.980716,-1.517924,-6.382942,48.645020,-34.637451,-34.240723,40.154297
38240,6.359000,2.968810,0.325611,-19.958496,59.631348,-15.319824,40.158203
38280,4.577713,4.256891,2.657564,2.502441,180.328369,-39.520264,40.158203
38320,1.781286,3.409343,2.221819,-30.944824,204.528809,20.843506,40.142578
38360,1.340753,0.474052,3.366248,105.346680,38.024902,68.237305,40.148438
38400,19.072210,-3.586514,0.071826,-143.127441,-434.936523,138.275146,40.160156
38440,19.800049,-10.352529,-18.909405,-46.630859,93.322754,27.954102,40.156250
38480,10.036493,-6.033388,-16.347609,-111.267090,26.123047,29.205322,40.132812
38520,5.568913,-3.318364,-10.405201,-109.130859,22.674561,56.030273,40.154297
38560,1.968034,-3.768473,-3.485958,-34.545898,14.526367,25.390625,40.146484
38600,1.594538,-4.027047,3.303998,-44.403076,60.699463,12.878418,40.152344
38640,-0.603339,-3.361459,3.394978,14.160156,-30.639648,-78.125000,40.148438
38680,1.675941,-4.137180,4.477157,70.251465,-3.540039,-87.280273,40.125000
38720,17.616535,-8.978256,-2.389413,58.502197,-5.401611,10.040283,40.134766
38760,16.955736,-9.399636,-17.707516,64.025879,-60.424805,-40.557861,40.136719
38800,10.606314,-7.244854,-15.801731,95.550537,-63.995361,-61.187744,40.134766
38840,8.221688,-5.717354,-11.631032,109.710693,-76.477051,-57.525635,40.126953
38880,7.149086,-0.440533,-4.558560,48.858643,-20.416260,-43.792725,40.148438
38920,6.248867,3.945644,1.340753,-26.031494,66.162109,-24.658203,40.115234
38960,3.591303,5.008670,2.518700,2.044678,99.670410,-8.789062,40.132812
39000,0.071826,3.184288,1.177947,-47.210693,80.871582,5.279541,40.136719
39040,2.734178,-0.344765,3.260903,59.356689,106.658936,60.455322,40.146484
39080,20.403387,-5.760449,-1.862689,-76.171875,-300.018311,135.955811,40.119141
39120,17.429789,-9.868899,-17.434576,-63.751221,74.768066,19.714355,40.130859
39160,10.864887,-4.209007,-14.365211,-128.387451,55.480957,64.788818,40.125000
39200,5.530606,-3.045424,-10.409989,-105.926514,21.423340,55.999756,40.134766
39240,1.403002,-4.132392,-4.788404,-43.731689,-9.216309,24.871826,40.128906
39280,1.848324,-4.865018,2.494758,-34.973145,67.077637,20.935059,40.146484
39320,-0.167594,-3.773262,3.706224,-8.026123,-2.807617,-54.199219,40.150391
39360,-0.038307,-3.562572,3.701436,50.933838,-10.742188,-86.791992,40.148438
39400,12.962208,-6.536170,2.130840,47.607422,11.108398,0.335693,40.109375
39440,19.560627,-9.054871,-15.653291,62.072754,-30.426025,-31.097412,40.130859
39480,13.613431,-7.876924,-16.227900,102.020264,-37.078857,-57.067871,40.121094
39520,7.819463,-6.263232,-12.880805,100.067139,-66.314697,-41.778564,40.134766
39560,6.493075,-2.336741,-6.794744,56.732178,-26.824951,-27.069092,40.115234
39600,5.473145,1.944092,-0.857124,-1.586914,32.226562,-3.967285,40.128906
39640,3.969586,3.754108,2.025495,-7.751465,87.005615,-9.277344,40.119141
39680,2.097321,3.452439,2.604892,7.263184,83.984375,9.490967,40.125000
39720,2.183512,1.599327,3.275268,10.009766,94.635010,31.890869,40.125000
39760,14.255077,-2.403779,1.565808,-72.570801,-242.828369,117.218018,40.132812
39800,19.306843,-11.156980,-15.969325,-38.818359,45.318604,15.106201,40.148438
39840,12.698846,-6.545747,-14.437037,-96.282959,46.356201,28.656006,40.109375
39880,7.441179,-2.715025,-10.194510,-134.674072,41.534424,70.953369,40.134766
39920,2.126051,-3.572149,-6.617573,-62.591553,10.375977,30.059814,40.113281
39960,1.321599,-4.343082,-0.201113,-28.839111,16.845703,28.259277,40.125000
40000,0.565032,-3.308787,2.949656,-21.728516,54.626465,-17.181396,40.128906
40040,0.143652,-3.371036,4.544195,59.234619,-21.331787,-85.784912,40.111328
40080,10.299856,-7.656657,4.113238,72.265625,-49.499512,-32.989502,40.115234
40120,18.708292,-11.520899,-13.986926,51.788330,-14.862061,-31.982422,40.119141
40160,14.130578,-7.422025,-16.821661,98.632812,-55.389404,-54.809570,40.140625
40200,8.695741,-5.985504,-13.766660,111.511230,-72.082520,-49.377441,40.130859
40240,6.737284,-2.624045,-7.345411,72.998047,-34.698486,-41.931152,40.109375
40280,5.449203,2.734178,-0.814029,-1.983643,32.257080,-16.357422,40.111328
40320,4.362236,5.046977,2.676718,-1.068115,145.935059,-14.587402,40.134766
40360,1.968034,4.156334,2.303222,-31.890869,90.484619,12.329102,40.132812
40400,0.775721,1.383849,2.389413,2.014160,151.611328,38.482666,40.115234
40440,11.329363,-3.045424,3.964798,-52.551270,-439.361572,77.331543,40.126953
40480,20.484789,-10.438720,-14.772224,-36.560059,30.761719,45.959473,40.123047
40520,14.240712,-6.914454,-15.413871,-75.744629,42.419434,24.505615,40.121094
40560,9.299079,-3.581726,-11.903971,-114.044189,40.344238,54.962158,40.113281
40600,2.882619,-3.318364,-8.082825,-69.915771,8.850098,31.860352,40.111328
40640,1.580173,-4.448427,-0.780510,-7.019043,2.471924,31.005859,40.111328
40680,1.355118,-3.940856,4.079720,-26.214600,56.610107,-0.244141,40.107422
40720,-0.852336,-3.007117,3.481169,40.100098,-33.905029,-71.441650,40.119141
40760,3.979163,-3.217807,3.907337,57.128906,0.976562,-51.605225,40.101562
40800,20.053833,-8.226477,-6.138733,45.043945,27.130127,-6.561279,40.109375
40840,17.123331,-9.394848,-16.079458,89.721680,-44.891357,-66.528320,40.121094
40880,10.089166,-7.690176,-14.609419,99.243164,-47.882080,-49.591064,40.134766
40920,7.819463,-5.209783,-10.730812,90.606689,-57.708740,-32.135010,40.113281
40960,6.416461,-0.110133,-3.960010,40.039062,-13.854980,-15.594482,40.128906
41000,5.300763,3.983952,1.441309,-25.054932,35.308838,-8.148193,40.125000
41040,2.978387,4.563348,2.327164,-20.660400,17.150879,10.437012,40.107422
41080,0.138864,2.815581,0.948104,-46.600342,49.377441,28.564453,40.121094
41120,3.112462,-0.574608,2.925714,27.801514,54.138184,47.058105,40.107422
41160,19.574993,-6.895301,-1.580173,-36.560059,-124.694824,74.188232,40.109375
41200,17.539921,-10.754754,-16.342821,-37.384033,38.421631,-3.417969,40.115234
41240,12.368446,-4.951209,-13.469779,-100.799561,55.664062,46.875000,40.105469
41280,6.670246,-3.543418,-10.922348,-85.876465,22.827148,42.694092,40.103516
41320,1.738190,-4.094085,-5.861006,-26.641846,-18.615723,15.045166,40.119141
41360,1.776498,-4.309563,1.977611,-19.104004,36.651611,22.064209,40.083984
41400,0.565032,-3.246537,4.529830,-4.180908,10.711670,-36.193848,40.097656
41440,-0.378284,-2.863465,3.433285,52.398682,-28.778076,-75.866699,40.085938
41480,13.220781,-7.010222,2.882619,62.286377,-15.472412,-23.925781,40.095703
41520,19.603724,-11.243171,-14.695610,87.219238,-40.924072,-55.603027,40.080078
41560,13.790602,-8.312668,-15.543158,116.302490,-50.048828,-71.624756,40.062500
41600,8.154651,-6.234501,-13.148955,105.407715,-64.697266,-54.351807,40.091797
41640,7.283162,-1.948880,-6.445191,64.361572,-21.575928,-32.806396,40.093750
41680,5.870583,2.844312,-0.268151,6.622314,30.944824,-19.836426,40.080078
41720,4.122815,5.171476,2.250550,-3.387451,47.576904,-11.230469,40.070312
41760,1.541866,3.715801,2.082955,-23.193359,46.539307,7.324219,40.097656
41800,2.398990,0.852336,3.093309,22.979736,92.132568,33.081055,40.091797
41840,17.501614,-2.901772,1.838747,-83.190918,-197.845459,107.177734,40.082031
41880,18.440142,-10.228029,-16.658855,-43.243408,37.109375,10.589600,40.091797
41920,12.401965,-6.459556,-14.154520,-108.703613,29.541016,36.071777,40.091797
41960,7.776367,-3.409343,-9.844957,-125.183105,34.179688,55.297852,40.072266
42000,1.790863,-3.576937,-5.626374,-57.525635,-0.885010,23.925781,40.099609
42040,1.580173,-3.873818,1.154005,-46.966553,21.423340,36.712646,40.099609
42080,0.536301,-3.131616,3.035848,-6.866455,0.701904,-39.367676,40.078125
42120,-0.387861,-3.174711,3.031059,48.858643,-33.752441,-83.282471,40.089844
42160,11.602302,-5.568913,6.086061,13.061523,15.045166,1.159668,40.099609
42200,19.584570,-10.601525,-12.981361,96.923828,-29.541016,-46.691895,40.095703
42240,14.872781,-8.106767,-17.152061,80.291748,-32.073975,-42.663574,40.074219
42280,9.169792,-5.894525,-13.876793,97.686768,-58.288574,-41.320801,40.070312
42320,7.934384,-2.844312,-7.594408,63.262939,-31.890869,-30.853271,40.085938
42360,6.157887,1.747767,-0.914585,8.331299,48.889160,-11.077881,40.091797
42400,4.070143,4.209007,2.437297,2.105713,121.429443,-10.986328,40.095703
42440,1.867477,3.983952,2.466028,-18.493652,65.490723,12.237549,40.101562
42480,1.733402,1.489193,2.566584,-4.699707,69.519043,35.095215,40.089844
42520,16.539145,-4.515464,1.757344,-51.330566,-283.294678,135.223389,40.115234
42560,19.201498,-10.323798,-14.111424,-45.989990,67.932129,16.510010,40.091797
42600,13.230358,-5.439626,-13.421895,-91.308594,53.710938,33.020020,40.076172
42640,8.494628,-3.495534,-10.414778,-113.159180,47.668457,55.236816,40.113281
42680,2.485181,-3.696647,-6.655881,-57.617188,8.392334,16.326904,40.076172
42720,0.445322,-3.562572,-0.411803,-10.772705,9.552002,5.767822,40.082031
42760,0.105345,-3.452439,3.758897,-15.686035,47.851562,-17.822266,40.076172
42800,-0.167594,-3.940856,4.965574,39.306641,-14.953613,-60.485840,40.089844
42840,8.628703,-5.889736,4.505888,63.018799,-29.663086,-40.832520,40.089844
42880,18.535910,-8.403648,-11.405977,40.710449,-26.062012,-15.930176,40.085938
42920,15.188815,-6.239290,-14.494497,80.322266,-36.163330,-46.813965,40.083984
42960,10.299856,-6.813898,-12.804191,108.032227,-51.452637,-42.144775,40.070312
43000,7.484274,-4.740520,-8.504205,91.094971,-57.586670,-39.916992,40.074219
43040,4.649539,0.785298,-3.227384,27.496338,-19.317627,-14.038086,40.070312
43080,4.438850,4.735731,1.604115,-22.399902,28.259277,-7.019043,40.072266
43120,3.011906,4.831499,2.647987,-10.742188,32.714844,6.958008,40.074219
43160,0.325611,2.916138,1.072602,-57.464600,28.015137,40.588379,40.080078
43200,4.927267,-0.325611,3.677494,27.832031,3.234863,53.649902,40.072266
43240,21.145590,-7.781156,-3.902549,-45.471191,-98.175049,86.029053,40.068359
43280,16.673222,-9.998186,-17.908628,-59.478760,32.592773,10.864258,40.089844
43320,10.644621,-4.620809,-14.456190,-107.604980,43.548584,53.771973,40.048828
43360,6.641516,-3.562572,-10.778696,-101.074219,23.559570,53.833008,40.076172
43400,3.055001,-4.414908,-5.181053,-48.156738,2.593994,29.510498,40.089844
43440,1.704672,-4.515464,0.948104,-10.406494,42.144775,7.873535,40.078125
43480,-0.344765,-2.710236,2.877831,9.979248,1.953125,-57.037354,40.070312
43520,-0.392649,-2.102109,3.246537,31.433105,-25.573730,-68.572998,40.072266
43560,10.587160,-5.070919,4.477157,35.949707,-11.230469,-0.366211,40.056641
43600,18.234240,-11.822568,-13.670892,69.396973,-31.524658,-35.858154,40.060547
43640,13.512875,-9.504981,-17.152061,104.461670,-54.809570,-66.864014,40.072266
43680,7.613562,-6.301539,-14.398729,111.999512,-89.355469,-57.098389,40.062500
43720,6.924031,-2.240973,-8.441956,62.561035,-57.128906,-34.393311,40.058594
43760,6.924031,1.857901,-1.757344,7.171631,16.662598,-9.094238,40.058594
43800,5.195418,3.318364,1.929727,-5.889893,113.433838,-23.010254,40.080078
43840,1.953669,3.203442,1.934515,9.948730,113.952637,11.840820,40.072266
43880,0.656011,2.389413,2.355895,14.404297,124.755859,23.681641,40.074219
43920,12.081141,-1.647211,5.894525,-42.083740,-292.694092,85.723877,40.052734
43960,21.078552,-8.997410,-14.834474,-68.267822,25.909424,45.867920,40.058594
44000,12.574347,-7.680599,-17.554287,-95.764160,41.503906,27.221680,40.097656
44040,7.771579,-3.983952,-11.903971,-120.788574,33.538818,57.281494,40.078125
44080,3.174711,-3.792415,-7.436390,-85.205078,23.284912,34.454346,40.082031
44120,1.920150,-4.769250,-0.837971,-21.606445,29.357910,28.106689,40.076172
44160,0.995988,-4.118027,3.126827,-15.991211,57.006836,-15.502930,40.093750
44200,-0.541090,-3.394978,4.185065,44.342041,-20.385742,-68.603516,40.080078
44240,5.837064,-4.793192,3.663129,75.408936,-41.107178,-50.750732,40.083984
44280,19.115307,-9.696517,-10.989386,8.483887,-4.333496,4.150391,40.070312
44320,16.371552,-8.451532,-16.505627,81.695557,-55.145264,-61.126709,40.064453
44360,9.078813,-7.283162,-14.101848,112.304688,-55.572510,-61.065674,40.070312
44400,6.627151,-4.065354,-9.289502,92.193604,-57.891846,-49.591064,40.068359
44440,5.607220,1.580173,-2.806004,14.221191,0.610352,-29.663086,40.085938
44480,4.946421,4.888960,1.872266,-22.369385,76.446533,-29.724121,40.060547
44520,2.767697,4.568137,2.748544,-2.044678,99.121094,-2.716064,40.070312
44560,0.732626,1.963245,2.082955,13.397217,168.579102,52.520752,40.066406
44600,7.532158,-1.795651,3.835511,-4.028320,-273.986816,17.761230,40.054688
44640,20.140024,-8.427590,-11.913548,-75.683594,-35.461426,66.680908,40.072266
44680,14.666880,-7.967903,-16.218323,-73.547363,58.685303,21.514893,40.082031
44720,10.362105,-4.424485,-12.105083,-118.743896,54.718018,63.018799,40.052734
44760,4.692636,-3.371036,-9.255983,-96.130371,28.747559,39.978027,40.056641
44800,0.972046,-3.371036,-3.696647,-31.127930,-11.505127,17.211914,40.083984
44840,1.173159,-4.357447,3.078943,-28.594971,59.600830,22.644043,40.083984
44880,-0.924162,-3.653552,3.648763,21.636963,-18.737793,-46.905518,40.064453
44920,0.162806,-3.366248,3.524265,57.189941,-21.057129,-78.857422,40.072266
44960,15.729905,-6.655881,0.483629,28.015137,40.191650,15.838623,40.083984
45000,19.167978,-9.260772,-16.955736,80.963135,-61.401367,-55.419922,40.070312
45040,11.822568,-8.418014,-16.045940,111.419678,-57.830811,-60.424805,40.042969
45080,7.077260,-6.598420,-12.689269,102.355957,-71.746826,-48.034668,40.064453
45120,6.670246,-1.637634,-6.531382,50.506592,-28.808594,-30.670166,40.076172
45160,5.870583,2.887407,-0.430956,0.366211,39.978027,-23.071289,40.082031
45200,4.108450,4.376601,2.370260,13.549805,105.255127,-23.437500,40.080078
45240,1.623269,3.610456,2.212242,-23.712158,79.162598,11.383057,40.072266
45280,1.450886,1.364695,2.906561,30.151367,155.670166,46.997070,40.048828
45320,14.475344,-1.910573,2.499547,-86.608887,-356.475830,92.041016,40.062500
45360,20.685904,-9.758766,-17.784130,-70.983887,68.023682,49.530029,40.052734
45400,12.732365,-6.382942,-16.424223,-108.367920,43.334961,23.925781,40.066406
45440,7.445967,-3.323152,-11.415554,-136.688232,37.780762,58.624268,40.056641
45480,2.877831,-3.916914,-6.607996,-87.341309,32.592773,51.239014,40.056641
45520,2.082955,-4.730943,0.296881,-34.423828,54.351807,38.482666,40.054688
45560,-0.201113,-3.136404,2.987964,-20.446777,32.958984,-55.145264,40.078125
45600,-0.627281,-4.031836,4.156334,39.367676,-16.662598,-81.542969,40.072266
45640,7.536947,-7.062895,3.169923,93.322754,-14.038086,-19.531250,40.058594
45680,21.825542,-10.692505,-11.798626,64.910889,-4.577637,-13.671875,40.046875
45720,16.701952,-8.001422,-17.410635,118.316650,-59.661865,-66.192627,40.052734
45760,8.082825,-5.679047,-14.049175,108.398438,-67.840576,-43.579102,40.050781
45800,5.444415,-2.035071,-7.551312,63.568115,-31.372070,-23.071289,40.058594
45840,4.525041,1.795651,-1.034295,-7.019043,24.200439,5.523682,40.068359
45880,3.936068,3.835511,2.724602,-8.483887,110.656738,-8.392334,40.058594
45920,2.092532,4.328717,2.868254,13.763428,44.494629,13.244629,40.068359
45960,1.139640,3.011906,2.245761,-8.636475,40.130615,22.216797,40.042969
46000,12.200851,0.316035,3.787627,-75.317383,-227.722168,88.531494,40.048828
46040,21.499931,-8.743625,-16.007633,-103.454590,22.918701,86.212158,40.039062
46080,12.713211,-8.667010,-18.540697,-97.351074,30.303955,39.031982,40.058594
46120,7.613562,-4.161122,-12.627020,-133.819580,25.543213,67.443848,40.046875
46160,2.480393,-3.375824,-7.608773,-93.719482,18.737793,46.691895,40.048828
46200,1.613692,-4.529830,-1.278504,-26.367188,21.179199,49.011230,40.046875
46240,1.503559,-4.405331,3.289633,-20.111084,68.206787,29.296875,40.062500
46280,-1.422156,-2.772485,3.040636,28.717041,-31.372070,-69.152832,40.050781
46320,1.920150,-3.567361,3.615245,60.394287,-8.331299,-66.467285,40.025391
46360,17.530344,-9.390059,-3.768473,67.047119,25.970459,11.932373,40.037109
46400,17.252617,-11.070788,-18.799273,89.355469,-69.030762,-74.554443,40.021484
46440,9.605537,-7.790732,-17.204733,104.797363,-70.922852,-72.143555,40.025391
46480,6.196194,-4.343082,-12.306197,79.528809,-75.225830,-48.522949,40.019531
46520,6.718130,0.790087,-4.764462,10.375977,0.244141,-31.372070,40.023438
46560,6.469133,3.960010,1.024718,-14.953613,127.410889,-39.459229,40.019531
46600,3.485958,4.141969,2.624045,26.367188,180.145264,-11.749268,40.031250
46640,0.900220,2.092532,1.522712,-23.071289,130.859375,15.930176,40.013672
46680,1.034295,-0.143652,3.466804,57.769775,86.364746,73.913574,40.029297
46720,19.038692,-5.568913,-1.489193,-106.018066,-400.207520,120.086670,40.039062
46760,18.756176,-9.437943,-18.076223,-70.617676,64.300537,25.970459,40.023438
46800,11.635820,-4.328717,-14.556746,-112.701416,54.687500,66.192627,40.011719
46840,6.263232,-2.370260,-10.558430,-127.319336,53.771973,67.138672,40.019531
46880,1.695095,-3.347094,-5.837064,-48.736572,19.744873,23.803711,40.007812
46920,1.024718,-4.639963,0.780510,-4.943848,48.431396,13.183594,40.011719
46960,-0.584185,-3.361459,3.064578,-6.866455,30.548096,-29.846191,40.013672
47000,-0.421380,-3.366248,3.797204,39.703369,-17.303467,-67.840576,40.013672
47040,10.553641,-7.000646,3.045424,57.525635,-31.616211,-1.129150,40.003906
47080,19.608511,-11.171345,-14.604630,92.590332,-38.543701,-41.870117,40.017578
47120,14.551958,-8.125920,-16.797720,115.844727,-48.156738,-66.162109,40.013672
47160,6.967127,-6.033388,-14.183250,132.843018,-79.467773,-70.007324,40.035156
47200,5.655105,-2.461239,-8.657434,67.840576,-49.224854,-29.052734,40.003906
47240,6.033388,2.011129,-1.331176,-4.119873,27.221680,-5.371094,39.994141
47280,4.496311,4.367024,1.987187,3.662109,116.607666,-19.897461,40.015625
47320,2.106898,3.974375,2.432509,6.744385,98.052979,3.723145,40.013672
47360,1.350330,1.996764,2.829947,21.148682,135.528564,40.252686,40.011719
47400,13.158532,-1.900996,4.242526,-68.878174,-400.329590,80.902100,40.007812
47440,22.261288,-9.390059,-16.089035,-62.713623,65.216064,59.753418,40.035156
47480,11.918336,-6.708553,-17.027563,-94.085693,32.836914,36.437988,40.015625
47520,7.034164,-3.476381,-11.956643,-129.943848,28.778076,71.258545,40.029297
47560,2.662352,-3.639187,-7.551312,-93.078613,18.280029,53.619385,40.019531
47600,1.776498,-4.735731,-0.991199,-7.354736,24.200439,35.400391,40.017578
47640,1.786075,-3.730166,3.610456,-25.360107,90.301514,16.906738,40.013672
47680,-1.393425,-2.106898,3.055001,41.320801,12.115479,-75.317383,40.003906
47720,4.022259,-4.558560,5.094861,69.641113,-19.042969,-48.034668,40.013672
47760,16.764200,-11.449073,-8.101978,81.512451,-44.006348,-17.791748,40.019531
47800,17.276560,-9.931149,-18.631678,73.486328,-68.450928,-54.840088,40.003906
47840,9.409213,-6.919243,-15.835250,109.130859,-76.599121,-67.016602,40.005859
47880,6.493075,-3.605668,-10.199299,85.296631,-65.551758,-45.806885,40.017578
47920,6.330269,1.072602,-2.724602,-12.603760,18.829346,-18.585205,40.007812
47960,5.305551,3.629610,1.982399,-22.857666,147.125244,-24.597168,40.003906
48000,2.475605,3.715801,2.873042,12.481689,185.363770,-8.605957,40.007812
48040,0.411803,2.638410,1.695095,-39.825439,49.774170,-25.238037,40.005859
48080,4.319140,-0.287304,4.395754,-16.082764,-156.127930,74.340820,40.019531
48120,21.155167,-8.030152,-10.563218,-73.028564,-216.552734,94.757080,40.011719
48160,15.796943,-8.954314,-18.507179,-72.418213,61.096191,25.054932,40.005859
48200,9.504981,-3.337517,-13.445837,-122.100830,45.013428,74.829102,40.001953
48240,4.817134,-3.552995,-9.907207,-107.971191,31.646729,68.725586,40.023438
48280,2.035071,-5.109226,-3.888184,-12.573242,25.085449,31.799316,40.000000
48320,0.919373,-4.429273,2.413355,12.634277,94.207764,4.241943,40.007812
48360,-1.302446,-2.418144,3.792415,25.634766,4.180908,-59.112549,40.009766
48400,0.000000,-3.093309,3.969586,44.616699,-19.439697,-67.626953,40.023438
48440,15.270219,-8.001422,-1.517924,43.609619,-17.486572,20.172119,40.023438
48480,19.642031,-9.581595,-17.204733,98.327637,-45.562744,-59.234619,40.027344
48520,11.267113,-7.728483,-15.998055,107.238770,-42.419434,-56.701660,40.013672
48560,7.220912,-6.445191,-11.664551,110.595703,-55.908203,-58.166504,40.009766
48600,5.444415,-1.417367,-6.253655,40.893555,-12.390137,-41.076660,40.017578
48640,4.841076,3.031059,-0.651223,-7.446289,12.908936,-14.190674,40.000000
48680,4.022259,4.616021,2.475605,8.239746,68.695068,-28.778076,39.996094
48720,1.695095,3.739743,2.183512,-21.972656,75.012207,24.902344,40.013672
48760,3.323152,0.450110,2.662352,20.263672,46.905518,41.076660,40.013672
48800,19.742588,-5.272032,-3.260903,-92.163086,-184.356689,104.431152,39.996094
48840,16.457743,-10.568007,-16.524780,-45.379639,55.877686,-10.162354,39.984375
48880,11.707646,-5.152322,-13.594277,-111.206055,53.863525,56.915283,39.976562
48920,7.053318,-3.332729,-10.520123,-108.764648,52.185059,58.624268,39.980469
48960,1.556231,-2.978387,-5.908890,-57.220459,19.775391,21.575928,40.000000
49000,0.521936,-3.806781,0.248997,-14.801025,17.913818,16.387939,40.001953
49040,-0.067038,-3.543418,3.663129,-24.017334,33.233643,-22.186279,40.005859
49080,-0.814029,-3.394978,3.323152,43.243408,-33.538818,-78.979492,39.980469
49120,7.723695,-4.879383,4.027047,68.511963,4.058838,-27.618408,39.964844
49160,19.579781,-9.811439,-10.936713,59.814453,-10.070801,-5.859375,39.990234
49200,16.376339,-8.255207,-17.061081,79.742432,-45.196533,-55.450439,39.992188
49240,9.538500,-6.440403,-14.183250,105.438232,-56.304932,-52.825928,39.992188
49280,7.139510,-3.529053,-9.217676,79.711914,-54.382324,-39.978027,40.003906
49320,6.315904,0.430956,-2.432509,23.529053,10.681152,-9.857178,39.980469
49360,4.276044,2.925714,1.412579,-8.514404,70.343018,-6.958008,39.994141
49400,1.939303,3.476381,2.011129,8.270264,46.722412,2.685547,40.000000
49440,0.933739,2.260126,2.341529,13.214111,94.726562,21.484375,39.994141
49480,10.333375,-0.363919,4.165911,-23.376465,-142.059326,85.784912,39.970703
49520,22.677879,-8.820239,-12.004527,-57.464600,12.390137,41.900635,39.990234
49560,14.786590,-7.891289,-16.318878,-90.637207,49.774170,20.568848,39.974609
49600,8.418014,-3.241749,-11.468226,-130.249023,46.020508,59.448242,39.976562
49640,2.978387,-2.944868,-8.025364,-97.656250,27.526855,39.672852,39.980469
49680,0.488417,-3.409343,-2.743755,-43.487549,-6.805420,24.261475,39.978516
49720,0.679953,-3.993528,2.427721,-24.780273,38.452148,16.113281,39.984375
49760,-0.823605,-3.246537,3.576937,2.716064,-18.981934,-48.919678,39.994141
49800,3.658340,-4.735731,4.989516,40.740967,-26.611328,-52.337646,39.994141
49840,17.951725,-12.143391,-4.841076,72.418213,-9.552002,1.892090,39.960938
49880,18.526333,-10.639832,-17.697939,98.571777,-57.800293,-80.871582,39.980469
49920,10.711658,-6.153099,-15.251065,113.647461,-49.468994,-65.612793,39.994141
49960,6.698977,-3.902549,-11.362882,105.499268,-59.814453,-55.786133,39.980469
50000,5.932832,0.052672,-4.544195,42.663574,-1.068115,-36.315918,39.978516
50040,5.401319,3.495534,1.120486,-19.653320,97.503662,-20.904541,39.988281
50080,2.671929,4.276044,2.432509,29.876709,123.443604,-14.892578,40.001953
50120,0.780510,3.634398,1.843535,-40.130615,104.034424,10.803223,39.972656
50160,2.624045,0.502782,2.365471,8.514404,-8.636475,63.629150,39.998047
50200,19.881451,-5.573701,-3.730166,-112.854004,-322.570801,123.992920,39.998047
50240,17.295713,-9.064447,-17.961302,-83.374023,71.899414,43.426514,39.974609
50280,9.902418,-5.003881,-14.168885,-119.445801,43.792725,61.065674,39.949219
50320,4.831499,-3.591303,-9.974244,-112.152100,37.597656,56.762695,39.970703
50360,1.881842,-4.462792,-4.223372,-37.963867,31.066895,34.637451,39.953125
50400,0.761356,-4.505888,1.819593,-4.608154,81.451416,9.063721,39.964844
50440,-0.885855,-3.045424,3.792415,3.509521,-6.622314,-50.903320,39.951172
50480,0.067038,-3.481169,3.845088,49.865723,-21.545410,-76.568604,39.960938
50520,15.978902,-8.844181,-1.101333,36.346436,-4.028320,19.927979,39.953125
50560,19.201498,-10.984597,-17.295713,81.542969,-66.375732,-54.321289,39.955078
50600,11.750742,-8.092402,-15.461755,119.293213,-38.146973,-66.040039,39.962891
50640,7.431602,-5.698200,-11.367670,125.366211,-65.002441,-62.316895,39.964844
50680,5.784391,-0.828394,-5.683835,61.248779,-14.801025,-45.196533,39.955078
50720,4.654328,3.423708,-0.234632,0.152588,26.153564,-16.937256,39.941406
50760,3.682282,5.190629,2.504335,16.723633,59.936523,-24.261475,39.978516
50800,1.546654,4.347870,2.078167,-33.752441,38.635254,30.212402,39.960938
50840,3.031059,0.627281,2.403779,24.322510,17.150879,31.677246,39.931641
50880,19.517532,-5.056554,-2.643199,-94.696045,-198.699951,119.293213,39.980469
50920,16.117765,-9.998186,-17.132908,-59.875488,50.811768,11.077881,39.972656
50960,11.281479,-5.003881,-13.651738,-115.295410,55.511475,70.983887,39.957031
51000,6.785168,-3.816358,-11.003751,-113.555908,30.151367,64.605713,39.976562
51040,1.857901,-4.017470,-6.789956,-59.295654,1.434326,26.489258,39.953125
51080,1.297657,-4.458004,0.172383,-1.647949,34.393311,17.089844,39.970703
51120,0.766145,-3.313575,4.113238,-25.115967,52.703857,-12.847900,39.970703
51160,-0.814029,-3.112462,3.327940,38.635254,-24.963379,-76.232910,39.947266
51200,8.801085,-5.439626,2.743755,79.193115,-14.587402,-36.651611,39.968750
51240,19.819202,-10.577583,-13.881581,58.685303,-31.250000,-21.179199,39.964844
51280,13.857639,-8.844181,-16.620548,91.918945,-42.510986,-63.781738,39.974609
51320,8.044518,-6.622362,-13.747506,108.764648,-59.509277,-53.924561,39.958984
51360,6.670246,-2.868254,-8.461109,67.840576,-36.285400,-34.851074,39.988281
51400,5.669470,1.474828,-2.087744,25.390625,9.429932,-21.911621,39.966797
51440,4.596867,4.419696,2.015918,9.002686,42.053223,-29.846191,39.980469
51480,2.288857,4.213795,2.097321,-24.719238,43.548584,13.763428,39.968750
51520,0.794875,1.561020,1.690306,3.204346,101.928711,35.980225,39.964844
51560,14.221559,-2.719813,2.595315,-38.116455,-203.948975,102.630615,39.957031
51600,19.579781,-10.419566,-14.872781,-45.135498,31.158447,8.941650,39.958984
51640,12.497733,-7.005434,-14.963760,-90.179443,54.138184,35.888672,39.953125
51680,8.513782,-3.552995,-11.678916,-114.624023,43.884277,66.619873,39.935547
51720,3.131616,-3.371036,-7.934384,-77.545166,14.953613,32.257080,39.945312
51760,1.340753,-3.974375,-1.168370,-33.111572,16.510010,26.885986,39.955078
51800,0.833182,-3.543418,3.576937,-23.803711,45.043945,-11.352539,39.953125
51840,-1.019930,-3.155558,3.323152,24.291992,-33.874512,-75.164795,39.958984
51880,4.046201,-4.572925,3.260903,67.901611,-17.639160,-46.173096,39.960938
51920,18.808849,-10.328587,-8.571242,44.189453,1.495361,7.263184,39.953125
51960,16.275784,-8.738836,-17.108965,86.700439,-62.744141,-62.774658,39.960938
52000,9.126697,-6.837840,-14.949395,110.260010,-69.213867,-60.943604,39.949219
52040,6.507440,-4.132392,-10.754754,91.369629,-68.450928,-47.393799,39.958984
52080,5.784391,0.689530,-3.998317,26.031494,-14.373779,-27.191162,39.945312
52120,5.947197,4.309563,1.326388,-24.536133,83.404541,-27.008057,39.947266
52160,3.869030,4.390966,3.035848,30.212402,157.562256,-15.014648,39.951172
52200,1.379060,2.360683,2.375048,-21.118164,199.157715,37.017822,39.941406
52240,3.519476,-0.708684,3.284845,-5.615234,-133.911133,32.012939,39.939453
52280,19.986795,-7.479486,-7.479486,-56.549072,-210.296631,87.158203,39.933594
52320,16.261417,-8.331821,-17.104177,-69.488525,70.831299,18.981934,39.937500
52360,10.295067,-3.682282,-13.599066,-126.800537,54.565430,76.416016,39.927734
52400,5.420473,-3.438074,-10.443508,-112.884521,45.318604,66.192627,39.917969
52440,1.872266,-4.668694,-5.070919,-48.309326,3.692627,36.163330,39.933594
52480,1.632846,-4.726154,1.417367,-8.636475,58.807373,16.815186,39.927734
52520,-0.478840,-2.398990,2.767697,12.725830,35.430908,-49.346924,39.951172
52560,0.296881,-2.729390,4.295198,33.325195,-8.270264,-66.040039,39.917969
52600,11.913548,-9.145850,1.991976,87.615967,-33.325195,-5.310059,39.925781
52640,18.981232,-12.871228,-15.116989,86.090088,-38.726807,-49.041748,39.935547
52680,13.508086,-7.924808,-16.045940,105.346680,-54.931641,-64.788818,39.958984
52720,7.254431,-5.228937,-12.938266,107.177734,-86.578369,-50.872803,39.933594
52760,5.631162,-1.810017,-6.761226,61.676025,-39.154053,-34.332275,39.958984
52800,5.793968,2.264915,-0.162806,-5.676270,31.402588,-12.359619,39.917969
52840,4.256891,3.308787,2.571373,1.495361,94.573975,-30.059814,39.976562
52880,1.407791,3.591303,1.924938,2.746582,45.562744,11.047363,39.945312
52920,1.896208,1.584962,2.442086,36.468506,62.622070,24.383545,39.929688
52960,17.199945,-1.728614,1.177947,-100.830078,-270.629883,119.995117,39.945312
53000,19.891027,-10.472239,-17.319654,-52.459717,70.129395,20.904541,39.958984
53040,11.118672,-7.196970,-15.332468,-101.776123,42.694092,41.839600,39.951172
53080,7.230489,-3.768473,-10.783484,-132.446289,47.821045,67.535400,39.939453
53120,2.418144,-3.347094,-6.818686,-86.395264,36.407471,39.672852,39.941406
53160,0.952892,-4.649539,-0.565032,-13.366699,27.893066,32.897949,39.947266
53200,0.608127,-3.567361,3.706224,-17.700195,52.185059,-10.467529,39.927734
53240,-0.995988,-2.609680,3.557784,31.585693,-17.486572,-86.090088,39.927734
53280,7.671022,-6.110003,4.285621,53.894043,-21.331787,-31.402588,39.939453
53320,18.550274,-12.095507,-11.956643,55.358887,-26.580811,-10.498047,39.957031
53360,15.476120,-7.934384,-17.252617,68.511963,-55.877686,-52.093506,39.937500
53400,8.690952,-6.684611,-13.359646,103.942871,-51.971436,-52.520752,39.935547
53440,6.090849,-4.108450,-8.207323,93.811035,-52.276611,-56.213379,39.939453
53480,5.080496,1.546654,-2.293645,11.871338,2.532959,-29.907227,39.939453
53520,4.496311,4.534618,1.982399,-19.470215,85.205078,-28.808594,39.955078
53560,2.231396,4.678270,2.499547,-2.807617,71.929932,-1.892090,39.949219
53600,1.331176,2.015918,2.676718,11.505127,139.953613,37.689209,39.945312
53640,13.848063,-1.824382,2.217031,-72.174072,-387.786865,115.631104,39.939453
53680,19.115307,-9.801862,-15.629349,-71.685791,66.986084,46.783447,39.935547
53720,11.870452,-6.962338,-15.418659,-82.366943,50.689697,43.273926,39.937500
53760,8.183381,-3.773262,-11.937490,-115.661621,39.703369,68.847656,39.931641
53800,3.529053,-3.471592,-7.915231,-96.313477,36.315918,49.530029,39.935547
53840,1.833959,-4.204218,-1.824382,-27.404785,29.785156,34.210205,39.945312
53880,1.082179,-3.519476,2.925714,-6.347656,76.416016,-8.209229,39.939453
53920,-0.770933,-2.705448,3.303998,22.094727,-21.697998,-71.044922,39.927734
53960,4.089296,-5.228937,3.375824,71.441650,-14.007568,-43.029785,39.955078
54000,18.085800,-11.535264,-8.188169,71.899414,-9.643555,6.805420,39.953125
54040,16.668432,-8.734048,-17.070658,93.505859,-45.654297,-66.070557,39.951172
54080,9.222465,-6.004658,-13.872005,112.213135,-49.743652,-55.908203,39.931641
54120,6.335058,-3.169923,-10.031705,89.752197,-65.765381,-37.994385,39.935547
54160,5.880159,0.847547,-3.816358,28.961182,-12.176514,-17.517090,39.955078
54200,5.516241,3.643975,1.182736,-4.974365,72.357178,-21.606445,39.949219
54240,2.604892,3.538630,1.853112,23.071289,75.653076,-9.826660,39.943359
54280,0.555455,2.657564,1.680730,-8.239746,57.647705,25.787354,39.917969
54320,6.603208,-0.517148,4.663905,37.292480,-88.439941,62.744141,39.939453
54360,21.768082,-7.110779,-8.633492,-72.174072,-80.993652,66.894531,39.914062
54400,16.318878,-9.289502,-17.429789,-56.060791,41.748047,8.880615,39.925781
54440,10.127473,-4.122815,-12.559982,-115.844727,45.349121,67.230225,39.921875
54480,5.295974,-2.987964,-9.294291,-104.827881,32.775879,50.415039,39.931641
54520,1.393425,-3.730166,-4.601655,-46.783447,1.495361,28.961182,39.921875
54560,1.206678,-4.400543,1.240196,-8.819580,31.829834,23.559570,39.910156
54600,-0.560243,-2.844312,2.762909,14.617920,11.688232,-47.851562,39.925781
54640,0.134075,-2.619257,3.931279,41.656494,-23.742676,-58.990479,39.941406
54680,12.267890,-6.971915,2.700660,59.936523,-35.949707,-13.336182,39.941406
54720,19.254169,-11.899182,-15.375564,73.577881,-45.959473,-53.039551,39.927734
54760,13.460202,-7.675811,-16.582241,79.376221,-49.987793,-60.760498,39.916016
54800,7.647080,-5.865794,-13.876793,87.738037,-69.335938,-45.837402,39.906250
54840,6.718130,-2.523489,-7.766790,56.549072,-34.240723,-43.243408,39.933594
54880,5.793968,1.685518,-1.340753,-7.049561,34.210205,-14.404297,39.916016
54920,3.787627,3.035848,1.742979,-1.495361,114.990234,-19.165039,39.914062
54960,1.455675,3.088520,2.183512,7.049561,68.756104,7.293701,39.929688
55000,0.919373,1.905785,2.652776,21.881104,110.839844,24.475098,39.916016
55040,11.607090,-2.346318,4.232949,-46.447754,-305.694580,101.013184,39.935547
55080,19.225439,-10.266336,-14.202404,-52.032471,21.820068,15.472412,39.908203
55120,13.670892,-7.010222,-16.366762,-77.880859,46.600342,20.385742,39.917969
55160,10.184934,-3.193865,-12.627020,-123.687744,58.502197,73.577881,39.916016
55200,4.089296,-3.414132,-9.710882,-83.129883,19.531250,41.015625,39.912109
55240,0.967257,-4.434062,-3.303998,-18.859863,-7.080078,18.951416,39.917969
55280,0.809240,-4.252102,2.595315,-12.878418,53.558350,4.119873,39.941406
55320,-0.938527,-2.853889,3.289633,15.014648,-8.789062,-68.603516,39.904297
55360,2.437297,-3.457227,4.137180,61.187744,-8.666992,-68.206787,39.921875
55400,17.501614,-8.896853,-3.160346,51.666260,15.014648,14.648438,39.923828
55440,16.175226,-9.318233,-16.778566,66.192627,-46.722412,-57.861328,39.896484
55480,10.218452,-7.354988,-14.647726,100.677490,-42.663574,-62.042236,39.925781
55520,7.268796,-5.377377,-11.089942,94.482422,-55.725098,-44.006348,39.919922
55560,5.832275,-1.058237,-5.683835,51.605225,-25.115967,-29.876709,39.931641
55600,5.046977,2.585738,-0.114922,0.762939,28.381348,-11.627197,39.923828
55640,3.677494,4.295198,2.312799,-7.446289,57.922363,-13.610840,39.927734
55680,1.546654,3.303998,2.164358,-12.207031,77.636719,10.284424,39.925781
55720,3.849876,0.210690,2.896984,16.448975,17.639160,42.236328,39.923828
55760,19.871874,-5.458780,-4.458004,-71.990967,-126.770020,103.454590,39.916016
55800,17.108965,-10.520123,-16.802507,-30.761719,51.330566,-6.835938,39.925781
55840,11.118672,-5.458780,-13.488933,-108.886719,42.175293,65.826416,39.937500
55880,6.612785,-3.835511,-10.366894,-115.844727,47.760010,61.706543,39.919922
55920,1.881842,-3.806781,-6.033388,-72.235107,17.272949,42.053223,39.923828
55960,1.422156,-4.165911,0.416591,-33.752441,32.257080,32.623291,39.925781
56000,-0.119710,-2.671929,2.829947,-7.904053,19.592285,-45.654297,39.906250
56040,-0.047884,-3.193865,4.046201,29.357910,-16.571045,-57.983398,39.908203
56080,9.763555,-6.943185,3.883395,58.624268,-20.385742,-11.260986,39.884766
56120,18.799273,-11.405977,-13.565547,75.500488,-33.843994,-36.865234,39.906250
56160,14.623784,-8.130709,-16.371552,82.031250,-40.161133,-53.344727,39.916016
56200,7.891289,-6.052542,-13.321339,103.302002,-73.822021,-50.506592,39.917969
56240,6.435614,-2.782062,-8.221688,61.218262,-51.757812,-35.766602,39.931641
56280,5.650316,1.072602,-1.843535,1.007080,9.277344,-4.241943,39.921875
56320,4.659117,2.992752,1.862689,-30.822754,80.444336,-11.566162,39.927734
56360,1.848324,3.078943,1.790863,10.803223,88.195801,1.495361,39.921875
56400,0.756568,1.920150,2.394202,21.820068,113.433838,29.571533,39.921875
56440,10.706870,-1.695095,4.438850,-29.815674,-272.369385,101.135254,39.912109
56480,21.001938,-9.835381,-14.039598,-56.671143,26.947021,35.797119,39.919922
56520,13.086706,-8.207323,-16.998833,-81.481934,36.804199,31.982422,39.896484
56560,8.073248,-4.477157,-11.693281,-125.366211,37.475586,78.704834,39.923828
56600,3.380613,-3.624821,-8.542512,-105.010986,31.280518,51.757812,39.908203
56640,1.144428,-4.802769,-2.844312,-29.052734,1.159668,27.770996,39.939453
56680,1.532289,-4.458004,2.868254,9.552002,70.404053,-0.213623,39.935547
56720,-0.756568,-2.006341,3.366248,33.081055,23.529053,-66.497803,39.949219
56760,3.145981,-2.815581,4.649539,38.543701,-19.897461,-47.485352,39.898438
56800,16.792931,-11.319786,-5.166687,53.924561,-23.559570,5.950928,39.902344
56840,16.021997,-11.338940,-17.487249,63.964844,-62.500000,-58.044434,39.902344
56880,9.672575,-7.843405,-15.016433,104.644775,-62.042236,-61.431885,39.900391
56920,6.598420,-5.875371,-10.788273,93.536377,-73.028564,-49.591064,39.910156
56960,5.588067,-0.622492,-4.965574,35.186768,-24.414062,-39.489746,39.904297
57000,5.645528,4.146757,0.751779,-25.329590,57.586670,-39.642334,39.917969
57040,4.165911,5.157111,3.011906,8.239746,146.728516,-24.291992,39.921875
57080,1.383849,2.753332,2.705448,-10.925293,182.342529,32.684326,39.900391
57120,5.880159,-0.972046,2.432509,-9.094238,-242.706299,42.144775,39.916016
57160,19.522320,-7.939173,-10.204087,-94.390869,-64.270020,105.316162,39.916016
57200,14.298173,-9.753978,-16.189592,-55.358887,61.126709,6.103516,39.910156
57240,9.471462,-5.707777,-12.909535,-95.123291,48.950195,52.947998,39.929688
57280,4.592079,-4.592079,-9.552865,-99.884033,43.823242,60.363770,39.917969
57320,1.106121,-3.696647,-4.280833,-47.851562,17.028809,38.269043,39.898438
57360,1.096544,-3.351882,2.571373,-10.375977,73.791504,11.779785,39.898438
57400,-0.402226,-2.494758,4.410120,9.704590,9.338379,-49.102783,39.908203
57440,0.416591,-3.256114,3.701436,50.964355,-16.601562,-69.976807,39.898438
57480,15.356410,-8.877700,-1.015141,47.882080,-42.419434,12.237549,39.904297
57520,18.535910,-10.457873,-16.366762,62.469482,-32.440186,-46.417236,39.914062
57560,11.267113,-7.714118,-15.097836,99.182129,-37.933350,-45.837402,39.906250
57600,6.914454,-6.488286,-11.884817,84.442139,-63.598633,-27.099609,39.927734
57640,5.832275,-2.011129,-6.191406,39.276123,-22.918701,-18.127441,39.906250
57680,5.583278,2.844312,-0.191536,-11.138916,19.897461,-12.023926,39.916016
57720,4.438850,4.620809,2.542642,-4.089355,71.166992,-21.484375,39.894531
57760,1.829170,3.505111,2.226608,-23.345947,64.117432,15.838623,39.898438
57800,2.600103,0.043096,2.360683,1.007080,38.635254,43.304443,39.921875
57840,18.966866,-5.817910,-3.442862,-69.763184,-170.837402,113.433838,39.916016
57880,17.448942,-11.559206,-16.610971,-36.224365,47.760010,-2.410889,39.923828
57920,10.630256,-5.995081,-13.297397,-106.292725,53.009033,54.779053,39.904297
57960,6.517017,-3.562572,-10.026917,-118.804932,40.679932,61.920166,39.921875
58000,1.934515,-3.562572,-6.397307,-78.186035,4.119873,41.961670,39.892578
58040,1.680730,-4.979939,0.248997,-12.603760,24.749756,37.384033,39.910156
58080,0.742203,-3.916914,4.247314,-1.525879,61.401367,-20.477295,39.931641
58120,-0.483629,-2.949656,4.510676,32.806396,-24.017334,-60.028076,39.916016
58160,5.985504,-5.463568,3.323152,93.719482,-39.245605,-43.640137,39.912109
58200,18.564640,-11.640609,-11.046846,50.750732,1.556396,-9.643555,39.906250
58240,15.662868,-9.447520,-17.247829,76.110840,-55.969238,-35.125732,39.896484
58280,9.289502,-7.350199,-14.599842,91.156006,-48.522949,-20.019531,39.908203
58320,6.914454,-4.783615,-9.193734,65.399170,-50.964355,-18.981934,39.904297
58360,6.234501,0.507571,-2.561796,12.176514,6.469727,-11.840820,39.894531
58400,5.248090,4.343082,1.666364,-27.252197,76.110840,0.061035,39.888672
58440,2.379837,4.237737,2.360683,-12.939453,116.729736,41.625977,39.884766
58480,1.920150,2.078167,1.910573,-17.608643,54.443359,37.597656,39.912109
58520,12.923901,-4.505888,-1.335965,-76.690674,-116.485596,71.868896,39.908203
58560,15.284584,-13.163321,-12.904747,-44.860840,51.544189,6.683350,39.880859
58600,12.129025,-8.949526,-11.856087,-75.866699,52.368164,25.909424,39.894531
58640,8.030152,-6.449979,-9.390059,-101.318359,40.649414,41.900635,39.890625
58680,2.734178,-4.817134,-6.962338,-77.239990,-2.532959,20.202637,39.902344
58720,1.240196,-3.936068,-1.082179,-16.510010,-2.593994,3.936768,39.894531
58760,1.010353,-3.069367,4.898537,-27.770996,20.996094,-20.019531,39.880859
58800,-0.694318,-2.082955,3.490746,13.519287,-40.008545,-73.638916,39.912109
58840,8.427590,-4.103662,3.495534,14.465332,-7.446289,-36.895752,39.892578
58880,19.704281,-10.199299,-10.946290,26.245117,2.136230,-2.166748,39.898438
58920,13.919888,-8.513782,-14.839262,33.142090,-39.245605,-40.802002,39.888672
58960,8.585608,-8.446744,-13.311762,99.121094,-63.934326,-53.619385,39.886719
59000,6.445191,-6.138733,-9.174581,86.547852,-53.344727,-62.286377,39.890625
59040,4.338294,-0.383072,-3.375824,18.615723,-1.495361,-20.751953,39.892578
59080,4.390966,3.902549,1.575385,-12.481689,12.481689,-7.354736,39.894531
59120,3.093309,4.601655,2.671929,-17.822266,13.397217,8.972168,39.902344
59160,1.738190,2.494758,2.111686,-29.541016,54.748535,41.168213,39.896484
59200,11.051635,-1.924938,1.647211,-5.187988,-75.683594,58.685303,39.898438
59240,20.010738,-11.089942,-13.345281,-29.235840,37.048340,20.843506,39.890625
59280,13.350069,-8.896853,-15.241488,-62.072754,38.513184,14.617920,39.888672
59320,9.452309,-4.572925,-11.717223,-104.736328,40.710449,63.934326,39.904297
59360,3.849876,-3.299210,-9.045294,-88.409424,24.078369,46.417236,39.892578
59400,0.895431,-3.447650,-3.236961,-40.283203,-21.606445,34.942627,39.890625
59440,1.771709,-3.734955,3.002329,-20.355225,35.369873,20.172119,39.890625
59480,-0.057461,-2.638410,3.457227,27.587891,-21.667480,-63.568115,39.888672
59520,3.706224,-3.490746,4.831499,51.086426,5.554199,-38.757324,39.916016
59560,15.356410,-9.720459,-4.108450,82.031250,-21.362305,-14.312744,39.878906
59600,15.725117,-10.783484,-16.524780,80.291748,-51.605225,-50.842285,39.892578
59640,9.801862,-7.675811,-15.174450,110.992432,-63.446045,-62.469482,39.878906
59680,7.134721,-5.157111,-12.258312,83.740234,-74.462891,-42.480469,39.896484
59720,6.861782,-0.881066,-6.028600,27.038574,-24.322510,-24.291992,39.908203
59760,6.354211,2.968810,-0.248997,-21.850586,37.536621,-15.411377,39.873047
59800,3.835511,3.816358,2.015918,-12.634277,106.933594,-16.784668,39.892578
59840,1.268927,3.141193,2.221819,-7.232666,84.808350,11.535645,39.876953
59880,4.548983,0.177171,4.352659,13.336182,-7.171631,44.281006,39.886719
59920,19.560627,-6.584054,-5.951985,-75.744629,-125.213623,77.758789,39.873047
59960,16.424223,-10.103531,-17.338808,-49.774170,42.663574,-5.859375,39.888672
60000,10.568007,-5.008670,-13.699622,-104.309082,49.224854,54.870605,39.890625
60040,5.248090,-3.145981,-10.491392,-111.663818,36.499023,53.436279,39.867188
60080,1.474828,-3.462016,-5.674258,-60.852051,4.730225,34.667969,39.892578
60120,1.719037,-3.974375,1.029507,-37.292480,29.296875,30.639648,39.875000
60160,-0.076614,-3.069367,2.585738,-9.582520,8.117676,-53.497314,39.888672
60200,0.162806,-3.624821,3.562572,58.044434,-27.465820,-82.885742,39.894531
60240,11.611878,-7.086837,3.801992,61.706543,1.770020,-8.575439,39.902344
60280,18.392258,-10.266336,-14.049175,72.937012,-22.796631,-34.057617,39.880859
60320,13.417107,-7.058106,-16.476896,82.489014,-41.809082,-52.307129,39.865234
60360,7.460332,-5.588067,-14.121001,107.299805,-81.787109,-54.595947,39.861328
60400,6.426037,-2.925714,-8.757990,63.903809,-62.286377,-32.440186,39.882812
60440,5.822699,0.890643,-2.260126,1.525879,2.532959,4.486084,39.863281
60480,5.066131,2.906561,1.833959,-7.415771,74.218750,-12.512207,39.873047
60520,1.819593,2.791639,1.886631,44.403076,86.761475,-6.622314,39.902344
60560,1.039083,3.217807,2.523489,19.622803,40.008545,18.493652,39.892578
60600,11.712435,0.833182,4.161122,-62.957764,-176.635742,84.838867,39.859375
60640,20.772095,-8.820239,-15.399506,-66.070557,36.956787,43.243408,39.888672
60680,13.177686,-8.446744,-17.942148,-88.928223,36.895752,33.020020,39.871094
60720,8.595184,-4.113238,-12.823344,-116.516113,36.071777,61.065674,39.878906
60760,4.199430,-3.725378,-8.690952,-89.599609,37.780762,44.372559,39.876953
60800,1.963245,-4.472369,-2.518700,-29.968262,26.458740,26.885986,39.869141
60840,0.392649,-3.758897,1.824382,-0.518799,48.339844,-19.561768,39.873047
60880,-1.201889,-2.695871,3.217807,33.782959,-17.669678,-73.394775,39.865234
60920,4.213795,-4.055778,5.659893,44.158936,-5.828857,-31.066895,39.875000
60960,17.252617,-10.175357,-6.387730,61.431885,-6.591797,1.708984,39.863281
61000,17.161638,-8.925584,-17.300501,81.634521,-47.515869,-59.753418,39.876953
61040,9.998186,-6.430826,-15.480908,109.161377,-51.208496,-55.541992,39.855469
61080,7.062895,-4.252102,-11.247959,90.087891,-57.586670,-48.065186,39.875000
61120,5.367800,-0.081403,-4.596867,33.294678,-6.347656,-22.186279,39.859375
61160,4.558560,3.227384,0.852336,15.808105,38.909912,-18.066406,39.857422
61200,3.485958,4.692636,2.935291,13.916016,66.101074,-6.622314,39.843750
61240,1.077391,3.768473,1.738190,-40.527344,24.536133,38.452148,39.880859
61280,4.347870,0.244209,2.873042,21.148682,-15.045166,49.102783,39.873047
61320,19.804836,-6.454768,-6.224925,-86.883545,-109.252930,80.596924,39.863281
61360,14.595054,-9.619903,-16.965313,-46.234131,36.895752,0.335693,39.867188
61400,11.008539,-4.879383,-13.704411,-97.656250,46.691895,64.392090,39.845703
61440,7.201759,-3.701436,-11.425131,-99.487305,23.406982,52.612305,39.849609
61480,2.446874,-3.667917,-6.713342,-52.215576,10.131836,24.688721,39.857422
61520,1.465251,-4.146757,0.311246,-9.063721,35.827637,20.050049,39.873047
61560,0.517148,-3.687071,4.065354,-8.331299,45.227051,-21.728516,39.853516
61600,-1.005565,-3.270479,3.155558,48.950195,-30.609131,-73.547363,39.853516
61640,7.220912,-3.806781,2.312799,54.931641,-17.608643,-35.186768,39.839844
61680,19.948488,-8.781932,-11.635820,56.335449,-9.185791,-21.087646,39.865234
61720,14.470555,-9.107543,-16.357185,96.649170,-40.771484,-72.479248,39.859375
61760,7.943961,-7.326257,-14.633361,113.800049,-63.598633,-59.783936,39.853516
61800,6.296751,-3.845088,-9.950302,84.533691,-54.168701,-46.051025,39.876953
61840,5.822699,0.928950,-3.169923,20.233154,0.305176,-11.413574,39.847656
61880,5.267244,3.840300,1.441309,-0.976562,45.227051,-17.974854,39.873047
61920,3.193865,4.189853,2.408567,2.319336,61.401367,-5.584717,39.851562
61960,0.952892,2.403779,1.833959,-7.904053,83.740234,23.406982,39.839844
62000,8.643068,-1.929727,3.438074,26.062012,-104.766846,70.343018,39.857422
62040,21.394587,-9.428367,-12.401965,-51.666260,-0.061035,38.909912,39.849609
62080,14.365211,-7.838616,-17.003620,-71.746826,34.545898,12.847900,39.859375
62120,9.643845,-3.284845,-12.330139,-117.401123,35.217285,63.293457,39.843750
62160,3.859453,-3.418920,-8.705317,-88.256836,31.799316,42.144775,39.845703
62200,1.268927,-4.050989,-2.791639,-45.562744,-4.394531,35.186768,39.833984
62240,1.853112,-4.185065,2.557007,-19.378662,53.894043,25.421143,39.853516
62280,-0.593762,-2.528277,3.078943,15.747070,13.641357,-62.438965,39.857422
62320,2.858677,-3.055001,4.568137,36.895752,-14.587402,-57.952881,39.851562
62360,16.476896,-10.965444,-3.888184,78.979492,-27.526855,-0.305176,39.861328
62400,17.626112,-11.037270,-17.568651,89.050293,-46.356201,-72.875977,39.853516
62440,10.615891,-6.909666,-15.988479,104.461670,-58.746338,-64.605713,39.857422
62480,6.191406,-4.165911,-11.473015,86.578369,-60.119629,-45.074463,39.853516
62520,5.621585,-0.186748,-4.376601,37.780762,-4.425049,-21.575928,39.839844
62560,5.329493,3.313575,1.058237,2.746582,65.551758,-24.108887,39.820312
62600,3.385401,4.127604,2.652776,17.150879,76.049805,-14.862061,39.865234
62640,1.139640,3.045424,2.365471,-12.847900,56.304932,19.409180,39.857422
62680,6.612785,-0.416591,3.763685,12.023926,-123.199463,54.901123,39.859375
62720,21.083340,-7.326257,-9.600749,-95.306396,-28.137207,86.639404,39.839844
62760,14.585477,-8.710106,-17.108965,-55.114746,40.863037,7.019043,39.853516
62800,10.606314,-4.869806,-13.086706,-115.234375,52.154541,69.549561,39.853516
62840,5.334281,-3.950433,-10.093954,-104.644775,33.142090,47.821045,39.851562
62880,1.096544,-3.849876,-4.644751,-47.210693,5.218506,25.238037,39.867188
62920,0.972046,-3.926491,1.771709,-17.486572,41.259766,19.073486,39.839844
62960,-0.373495,-3.050213,3.562572,0.091553,-3.234863,-52.154541,39.833984
63000,-0.191536,-3.485958,3.687071,47.119141,-24.017334,-72.326660,39.857422
63040,14.149732,-7.053318,2.346318,31.402588,8.972168,24.566650,39.841797
63080,18.176779,-9.504981,-16.055517,72.479248,-44.921875,-56.304932,39.837891
63120,12.421119,-7.867347,-15.816096,88.439941,-29.602051,-61.370850,39.855469
63160,8.207323,-6.981492,-12.512098,103.393555,-49.957275,-61.767578,39.835938
63200,6.325481,-2.954445,-7.781156,63.720703,-35.705566,-50.720215,39.863281
63240,4.994305,2.097321,-2.346318,0.335693,4.486084,-11.840820,39.833984
63280,4.017470,4.036624,1.584962,3.082275,64.697266,-28.015137,39.851562
63320,1.790863,3.476381,1.781286,-2.502441,44.189453,8.789062,39.855469
63360,1.187524,1.968034,2.087744,11.871338,59.112549,25.665283,39.849609
63400,14.753071,-2.547431,3.639187,-31.372070,-185.455322,105.590820,39.857422
63440,20.144814,-9.208099,-15.342045,-55.664062,36.956787,15.869141,39.855469
63480,13.000515,-5.880159,-15.911864,-101.684570,58.868408,43.518066,39.863281
63520,8.552089,-3.136404,-11.511322,-122.253418,47.485352,73.303223,39.839844
63560,2.724602,-3.318364,-8.192958,-86.791992,22.094727,34.210205,39.853516
63600,0.593762,-3.902549,-2.580950,-39.581299,-8.178711,28.533936,39.843750
63640,1.479617,-4.553771,2.954445,-18.218994,53.436279,19.195557,39.837891
63680,0.138864,-3.835511,4.204218,20.446777,-3.479004,-57.098389,39.839844
63720,5.947197,-5.674258,4.477157,58.776855,-10.833740,-48.004150,39.849609
63760,17.956512,-10.778696,-9.131485,89.691162,5.828857,-28.289795,39.857422
63800,16.170439,-7.948750,-16.658855,92.254639,-39.154053,-67.016602,39.835938
63840,8.968679,-6.052542,-14.719552,103.973389,-58.166504,-57.281494,39.837891
63880,7.067683,-3.897760,-9.835381,78.643799,-59.936523,-42.907715,39.855469
63920,6.344635,0.038307,-3.394978,27.984619,3.784180,-15.533447,39.847656
63960,4.764462,2.715025,0.876278,-5.096436,58.593750,-6.927490,39.859375
64000,2.293645,3.347094,1.977611,13.916016,52.215576,-2.838135,39.853516
64040,1.781286,3.313575,2.954445,14.648438,82.672119,19.744873,39.818359
64080,9.892841,1.594538,4.194642,-52.673340,-142.028809,72.143555,39.855469
64120,20.446482,-7.374141,-12.018892,-79.467773,17.486572,51.025391,39.841797
64160,14.044387,-8.566454,-15.935806,-67.199707,44.067383,24.597168,39.855469
64200,9.897630,-4.764462,-12.243947,-126.495361,44.952393,78.460693,39.839844
64240,4.893748,-4.036624,-9.461885,-100.891113,24.871826,48.156738,39.835938
64280,1.254562,-4.036624,-4.046201,-50.170898,2.410889,30.670166,39.839844
64320,1.010353,-3.811569,1.963245,-42.602539,39.672852,30.181885,39.824219
64360,-0.660800,-2.743755,3.145981,-12.237549,-11.749268,-47.271729,39.812500
64400,-0.325611,-3.078943,2.839523,48.004150,-31.005859,-57.373047,39.837891
64440,14.891934,-5.956774,3.380613,23.620605,11.260986,26.519775,39.826172
64480,17.396269,-11.214440,-15.370775,62.377930,-36.804199,-50.476074,39.832031
64520,12.291832,-8.729259,-16.309301,84.808350,-46.264648,-63.751221,39.820312
64560,8.317456,-6.588843,-13.211205,99.945068,-57.434082,-56.732178,39.810547
64600,6.593631,-2.882619,-8.240842,64.331055,-36.010742,-50.689697,39.833984
64640,5.305551,2.269703,-2.284068,-13.488770,8.087158,-8.239746,39.820312
64680,4.434062,4.362236,2.011129,-15.625000,73.669434,-20.233154,39.828125
64720,2.504335,4.199430,2.533065,-17.059326,58.563232,13.732910,39.845703
64760,2.518700,1.168370,3.160346,6.134033,59.722900,34.240723,39.847656
64800,15.265430,-3.552995,-0.062249,-61.187744,-234.344482,112.701416,39.800781
64840,15.634137,-9.955091,-15.705963,-38.726807,58.258057,2.105713,39.837891
64880,11.894394,-6.062119,-14.245501,-78.155518,58.197021,52.368164,39.833984
64920,8.671799,-3.658340,-11.535264,-109.802246,45.837402,68.298340,39.839844
64960,3.428497,-3.193865,-8.245630,-73.181152,24.017334,30.487061,39.820312
65000,0.924162,-2.978387,-2.207454,-33.233643,-0.701904,11.779785,39.837891
65040,0.617704,-3.337517,2.633622,-36.743164,55.328369,0.854492,39.830078
65080,-0.804452,-3.351882,3.145981,5.706787,-21.667480,-63.873291,39.820312
65120,4.458004,-4.711789,4.639963,73.791504,6.286621,-49.682617,39.810547
65160,17.870321,-9.275137,-4.381389,64.208984,20.111084,4.302979,39.808594
65200,16.654066,-7.876924,-17.597382,65.338135,-30.822754,-61.309814,39.857422
65240,10.505757,-6.349423,-15.107412,92.193604,-31.768799,-47.729492,39.826172
65280,7.307104,-5.238513,-12.507310,88.836670,-69.122314,-43.792725,39.804688
65320,6.603208,-1.541866,-6.536170,44.982910,-27.648926,-21.942139,39.824219
65360,5.339070,2.221819,-0.445322,-9.887695,39.611816,3.387451,39.835938
65400,3.246537,3.476381,2.063802,2.075195,53.070068,1.251221,39.824219
65440,1.470040,3.337517,2.207454,-14.892578,10.742188,26.489258,39.824219
65480,2.978387,1.278504,3.840300,15.686035,49.255371,41.442871,39.830078
65520,16.242264,-3.050213,0.330400,-40.557861,-190.032959,96.130371,39.847656
65560,19.704281,-10.457873,-17.851168,-46.844482,57.708740,24.627686,39.833984
65600,11.765107,-6.287174,-16.280571,-91.064453,49.255371,42.755127,39.816406
65640,7.426814,-3.313575,-12.038046,-106.719971,30.517578,59.875488,39.828125
65680,3.112462,-3.806781,-7.771579,-64.208984,21.759033,36.132812,39.824219
65720,1.848324,-4.807557,-1.101333,-16.418457,12.573242,32.012939,39.818359
65760,0.531513,-4.237737,2.691083,10.772705,44.860840,-24.444580,39.847656
65800,-1.177947,-2.762909,2.815581,36.071777,-45.654297,-77.056885,39.822266
65840,3.299210,-3.174711,3.452439,73.486328,-33.538818,-64.544678,39.839844
65880,19.191921,-9.672575,-4.989516,69.824219,11.932373,11.047363,39.822266
65920,17.922995,-8.863335,-16.519991,78.918457,-34.545898,-64.514160,39.839844
65960,10.951078,-6.967127,-15.126566,97.381592,-40.008545,-60.241699,39.826172
66000,7.412448,-5.219360,-11.865664,80.749512,-49.072266,-40.435791,39.822266
66040,5.401319,-1.019930,-5.564125,35.247803,-1.831055,-23.376465,39.841797
66080,3.720589,2.758120,-0.268151,-20.507812,20.599365,16.632080,39.837891
66120,3.145981,4.323928,2.528277,-15.869141,70.465088,6.042480,39.828125
66160,1.517924,3.873818,2.087744,-40.130615,19.958496,35.003662,39.833984
66200,1.968034,1.766921,2.178724,-9.643555,36.987305,33.691406,39.828125
66240,16.812084,-5.075707,0.354342,-24.902344,-197.692871,80.322266,39.822266
66280,16.587029,-11.453861,-16.347609,-43.640137,35.125732,13.153076,39.833984
66320,11.204864,-6.627151,-15.169662,-66.833496,53.771973,41.687012,39.833984
66360,8.643068,-4.017470,-12.220005,-91.186523,29.724121,63.873291,39.833984
66400,3.873818,-3.854665,-9.471462,-66.467285,1.770020,34.698486,39.828125
66440,1.110910,-4.103662,-3.217807,-4.302979,-18.768311,11.810303,39.806641
66480,1.120486,-3.682282,2.964022,-18.310547,40.588379,8.117676,39.833984
66520,-0.368707,-2.523489,3.797204,15.930176,-13.092041,-56.488037,39.806641
66560,2.925714,-2.408567,4.089296,52.246094,-7.171631,-64.819336,39.818359
66600,17.037140,-8.394072,-4.232949,53.222656,20.690918,17.791748,39.835938
66640,15.768212,-10.409989,-17.784130,74.432373,-48.706055,-67.962646,39.814453
66680,9.016563,-8.236053,-15.442601,109.802246,-40.710449,-65.795898,39.826172
66720,7.010222,-6.038177,-12.449849,106.292725,-63.629150,-59.417725,39.818359
66760,6.066907,-1.302446,-6.641516,35.095215,-21.087646,-26.092529,39.814453
66800,5.181053,2.815581,-0.574608,-9.002686,33.813477,-9.124756,39.826172
66840,3.964798,4.711789,2.518700,-4.486084,76.965332,-11.474609,39.822266
66880,1.364695,3.452439,2.106898,-23.223877,43.304443,21.759033,39.816406
66920,2.389413,0.220267,2.164358,15.258789,11.657715,37.780762,39.818359
66960,18.358738,-5.999869,-2.264915,-47.546387,-147.552490,103.332520,39.792969
67000,16.816874,-12.655750,-17.755400,-22.644043,41.290283,-15.228271,39.818359
67040,10.749966,-5.789180,-14.398729,-87.432861,46.356201,38.574219,39.828125
67080,7.201759,-3.720589,-10.931925,-100.280762,35.034180,58.349609,39.800781
67120,1.963245,-3.643975,-7.359776,-67.565918,4.882812,27.679443,39.810547
67160,1.101333,-3.801992,-1.048660,-17.028809,2.899170,20.843506,39.804688
67200,1.460463,-2.920926,3.667917,-28.015137,58.319092,4.638672,39.798828
67240,-0.349553,-2.221819,3.610456,21.026611,-10.955811,-63.690186,39.796875
67280,6.373365,-4.879383,4.285621,69.580078,-5.889893,-46.234131,39.798828
67320,16.927006,-13.081918,-9.184157,89.569092,-23.132324,-21.789551,39.810547
67360,14.891934,-10.342952,-17.482460,85.083008,-45.135498,-80.780029,39.773438
67400,8.418014,-6.651093,-15.322891,107.086182,-67.596436,-72.875977,39.808594
67440,6.880936,-3.969586,-11.228806,78.063965,-74.615479,-43.121338,39.800781
67480,6.574478,-0.483629,-4.228160,43.243408,-7.659912,-29.479980,39.798828
67520,5.559336,2.964022,0.584185,-9.155273,50.659180,-24.230957,39.791016
67560,2.446874,3.122039,1.604115,-10.589600,120.147705,-20.996094,39.791016
67600,0.359130,2.652776,1.704672,5.096436,44.799805,11.688232,39.806641
67640,5.583278,0.574608,4.888960,43.823242,-62.408447,46.447754,39.777344
67680,21.279665,-3.586514,-6.938396,-118.225098,-97.442627,87.341309,39.806641
67720,15.332468,-9.481039,-18.957289,-60.760498,38.330078,21.697998,39.806641
67760,9.892841,-5.669470,-13.627796,-119.934082,49.468994,81.176758,39.800781
67800,5.521029,-3.921702,-10.266336,-117.401123,29.846191,54.534912,39.810547
67840,1.556231,-4.295198,-5.923255,-55.114746,12.237549,26.397705,39.796875
67880,1.288081,-4.683059,0.675165,-29.266357,40.924072,24.261475,39.804688
67920,-0.301669,-3.145981,3.112462,-7.354736,7.873535,-57.647705,39.789062
67960,0.660800,-3.548207,4.419696,40.008545,-13.031006,-60.791016,39.806641
68000,10.955867,-7.053318,1.000776,46.051025,-25.085449,4.577637,39.775391
68040,17.975666,-10.347740,-15.840038,80.535889,-32.501221,-63.964844,39.781250
68080,12.785037,-7.881712,-16.433800,111.663818,-40.008545,-81.604004,39.800781
68120,7.249643,-6.095637,-13.661315,101.043701,-48.980713,-61.096191,39.792969
68160,5.702989,-2.154782,-8.499416,54.443359,-34.942627,-43.701172,39.779297
68200,5.444415,2.001553,-2.159570,-0.091553,17.761230,-13.763428,39.751953
68240,4.252102,4.185065,1.953669,-4.028320,96.221924,-24.414062,39.777344
68280,2.322376,4.199430,2.901772,-7.965088,57.769775,15.106201,39.777344
68320,2.111686,1.671153,2.710236,4.882812,30.181885,28.808594,39.787109
68360,15.428236,-2.489970,-0.775721,-87.615967,-247.528076,128.753662,39.769531
68400,17.171215,-10.568007,-16.711529,-48.248291,58.563232,18.585205,39.767578
68440,12.397177,-6.181829,-14.777013,-92.132568,56.976318,53.894043,39.785156
68480,8.154651,-3.366248,-12.042834,-111.175537,42.602539,65.490723,39.751953
68520,2.595315,-3.347094,-8.154651,-76.843262,22.460938,35.003662,39.777344
68560,0.852336,-3.873818,-1.470040,-24.078369,16.479492,33.935547,39.775391
68600,0.737414,-3.773262,3.672705,-24.200439,56.304932,0.061035,39.771484
68640,-0.488417,-3.955221,4.012682,31.402588,-20.874023,-65.582275,39.791016
68680,6.617573,-5.995081,2.403779,82.427979,-36.590576,-44.982910,39.800781
68720,18.684351,-9.035717,-12.387600,54.290771,-10.223389,-23.895264,39.771484
68760,14.757859,-6.957550,-15.500062,89.111328,-32.379150,-71.655273,39.773438
68800,8.226477,-5.846641,-13.278243,101.165771,-40.832520,-58.746338,39.785156
68840,6.354211,-3.979163,-9.835381,82.672119,-50.842285,-37.445068,39.781250
68880,5.066131,0.641646,-3.926491,31.799316,-13.366699,-18.127441,39.787109
68920,4.687847,4.012682,1.000776,-0.244141,25.024414,-5.310059,39.767578
68960,2.863465,4.343082,2.106898,-5.310059,32.867432,9.521484,39.785156
69000,1.249773,2.489970,1.474828,-19.042969,44.769287,46.569824,39.761719
69040,11.611878,-1.752556,1.225831,-11.322021,-149.902344,82.763672,39.775391
69080,18.358738,-10.060435,-13.637373,-18.707275,10.467529,0.213623,39.789062
69120,12.962208,-7.278373,-14.379576,-57.647705,47.790527,35.430908,39.781250
69160,9.514558,-3.921702,-11.607090,-102.966309,45.593262,73.364258,39.757812
69200,4.884171,-3.442862,-9.342175,-83.923340,21.514893,44.464111,39.771484
69240,1.024718,-3.284845,-4.477157,-28.808594,-10.375977,15.380859,39.761719
69280,1.268927,-3.715801,2.020706,-13.092041,29.449463,24.810791,39.767578
69320,0.301669,-3.016694,4.247314,-7.751465,22.491455,-32.806396,39.775391
69360,-0.675165,-3.351882,2.030283,61.920166,-42.816162,-74.707031,39.783203
69400,12.990938,-5.971139,0.306458,58.898926,-2.807617,-21.209717,39.765625
69440,19.220652,-9.370906,-14.690822,71.807861,-36.010742,-50.964355,39.757812
69480,11.745954,-8.456321,-15.868769,87.493896,-48.828125,-61.004639,39.767578
69520,7.551312,-7.125144,-13.599066,96.954346,-57.861328,-59.783936,39.763672
69560,6.584054,-3.442862,-9.184157,64.056396,-49.346924,-39.733887,39.769531
69600,5.837064,1.331176,-2.992752,13.946533,-2.532959,-20.080566,39.750000
69640,5.224148,4.189853,1.532289,-22.125244,55.297852,-18.463135,39.785156
69680,3.031059,3.509900,2.686294,16.906738,68.328857,0.823975,39.744141
69720,0.675165,2.571373,1.082179,-36.315918,37.902832,44.006348,39.765625
69760,9.208099,0.502782,0.814029,-54.931641,-83.862305,76.751709,39.779297
69800,20.456059,-9.519346,-12.876017,-44.586182,27.130127,24.169922,39.746094
69840,12.291832,-8.427590,-16.519991,-75.195312,50.445557,22.705078,39.757812
69880,8.073248,-3.888184,-12.981361,-116.729736,41.320801,81.970215,39.773438
69920,5.023035,-3.892972,-9.337387,-105.102539,33.477783,55.206299,39.777344
69960,1.283292,-3.811569,-4.515464,-50.262451,-5.401611,21.606445,39.755859
70000,1.019930,-4.501099,1.474828,-23.864746,18.402100,22.399902,39.765625
70040,0.191536,-3.888184,3.873818,-9.979248,4.608154,-40.374756,39.757812
70080,-0.474052,-3.773262,2.303222,67.443848,-33.691406,-83.496094,39.781250
70120,13.101071,-5.889736,1.201889,39.794922,-0.823975,-4.150391,39.763672
70160,19.565416,-8.968679,-15.504850,56.304932,-25.390625,-40.740967,39.753906
70200,12.253524,-8.389283,-16.419436,99.304199,-35.217285,-65.216064,39.771484
70240,6.258443,-6.928820,-14.662091,89.050293,-64.605713,-55.877686,39.744141
70280,5.956774,-3.404555,-9.064447,61.248779,-34.667969,-29.418945,39.757812
70320,5.999869,1.374272,-2.106898,11.108398,14.038086,-1.861572,39.767578
70360,5.066131,4.553771,1.795651,4.333496,17.730713,-1.800537,39.763672
70400,2.585738,3.916914,1.752556,-18.432617,22.552490,32.897949,39.757812
70440,-0.110133,2.308010,0.167594,-34.820557,15.533447,46.844482,39.767578
70480,11.051635,-2.628834,1.484405,0.610352,-38.024902,64.819336,39.769531
70520,19.416975,-11.362882,-14.235924,0.152588,-0.488281,-16.235352,39.761719
70560,12.856863,-8.078036,-16.697163,-78.063965,24.597168,28.961182,39.771484
70600,8.863335,-3.615245,-12.406754,-103.424072,28.686523,69.641113,39.783203
70640,4.611232,-3.131616,-9.543288,-93.994141,11.810303,36.193848,39.761719
70680,1.790863,-3.897760,-4.185065,-29.235840,5.889893,20.507812,39.765625
70720,2.202666,-4.462792,3.078943,-22.094727,53.894043,30.181885,39.744141
70760,-0.392649,-3.107674,4.127604,8.178711,-7.110596,-48.431396,39.787109
70800,-0.565032,-2.801216,1.800440,69.641113,-36.132812,-83.496094,39.775391
70840,14.307750,-3.586514,0.143652,-15.350342,40.130615,8.026123,39.748047
70880,19.024326,-8.949526,-17.573441,61.126709,-46.539307,-47.271729,39.765625
70920,12.665327,-8.743625,-17.693151,67.993164,-35.522461,-54.687500,39.763672
70960,7.216124,-6.488286,-13.819332,77.087402,-50.994873,-42.236328,39.775391
71000,5.410896,-2.355895,-8.092402,43.273926,-39.031982,-33.233643,39.767578
71040,5.645528,2.126051,-1.283292,-7.446289,21.484375,-5.676270,39.751953
71080,4.707001,3.452439,2.738967,29.479980,66.101074,-11.810303,39.757812
71120,2.370260,2.940080,2.169147,-13.397217,42.388916,52.673340,39.757812
71160,1.742979,1.709460,0.124498,-46.508789,35.400391,78.002930,39.761719
71200,11.104307,-0.703895,-2.676718,-52.154541,6.500244,50.231934,39.740234
71240,19.081787,-11.314998,-14.810532,-26.489258,39.428711,24.810791,39.757812
71280,13.761871,-9.327810,-15.140931,-65.063477,49.224854,28.198242,39.771484
71320,8.145074,-3.792415,-11.334151,-94.787598,35.278320,46.844482,39.765625
71360,3.414132,-2.724602,-8.106767,-87.127686,16.510010,36.712646,39.755859
71400,1.201889,-4.022259,-2.528277,-17.333984,-2.929688,24.841309,39.744141
71440,1.522712,-3.629610,2.868254,1.800537,52.307129,1.556396,39.757812
71480,-0.407014,-1.991976,3.122039,5.584717,20.263672,-37.536621,39.757812
71520,3.787627,-2.944868,3.691859,25.634766,-23.406982,-45.654297,39.750000
71560,15.476120,-11.674128,-4.769250,89.263916,-32.714844,-3.112793,39.742188
71600,16.807297,-11.262324,-16.960526,85.021973,-42.053223,-79.315186,39.757812
71640,10.702082,-6.579266,-15.231912,97.442627,-52.978516,-64.086914,39.751953
71680,6.301539,-4.213795,-12.052411,105.010986,-71.075439,-60.943604,39.740234
71720,5.286397,-0.632069,-5.315128,49.285889,-7.171631,-31.219482,39.748047
71760,4.687847,2.628834,0.488417,8.880615,61.828613,-23.101807,39.744141
71800,3.088520,4.036624,2.489970,20.111084,64.758301,-11.627197,39.755859
71840,1.173159,3.452439,2.279280,-26.794434,10.131836,28.656006,39.732422
71880,5.645528,0.612916,2.461239,1.953125,-75.408936,56.549072,39.763672
71920,20.910957,-7.038953,-8.815451,-74.890137,-47.058105,97.351074,39.755859
71960,14.729129,-9.672575,-17.271770,-46.051025,50.079346,13.549805,39.753906
72000,9.461885,-4.888960,-13.666103,-95.031738,44.616699,62.591553,39.732422
72040,5.104438,-3.485958,-10.606314,-102.325439,36.682129,53.497314,39.763672
72080,1.565808,-3.682282,-5.329493,-54.199219,21.484375,37.689209,39.771484
72120,1.364695,-4.405331,1.230620,-1.617432,47.515869,18.493652,39.738281
72160,0.445322,-3.213019,4.165911,-8.209229,19.622803,-37.567139,39.722656
72200,1.072602,-3.912126,3.040636,45.074463,-35.583496,-74.493408,39.750000
72240,14.920665,-9.490616,-3.687071,32.257080,-0.335693,9.246826,39.742188
72280,16.620548,-9.758766,-15.777789,86.639404,-49.072266,-74.707031,39.734375
72320,9.500193,-7.383718,-14.053964,110.870361,-38.055420,-71.044922,39.744141
72360,6.282385,-5.449203,-11.602302,105.712891,-61.737061,-55.328369,39.726562
72400,5.607220,-0.943315,-6.287174,62.072754,-37.780762,-42.816162,39.742188
72440,5.837064,3.241749,-0.378284,5.798340,30.029297,-25.726318,39.751953
72480,4.237737,4.769250,2.039860,-4.821777,61.676025,-14.556885,39.734375
72520,1.283292,3.849876,1.632846,-24.719238,48.889160,26.763916,39.763672
72560,3.462016,-0.210690,2.169147,25.207520,-23.620605,46.905518,39.714844
72600,20.010738,-6.675035,-5.372589,-73.822021,-112.304688,112.701416,39.734375
72640,16.012421,-10.180145,-17.166426,-38.879395,45.196533,-10.131836,39.732422
72680,10.702082,-4.807557,-13.249513,-103.118896,56.091309,64.636230,39.738281
72720,5.640739,-3.055001,-10.582372,-112.182617,35.644531,61.401367,39.726562
72760,0.756568,-3.227384,-6.354211,-68.420410,1.373291,33.843994,39.722656
72800,1.029507,-4.175488,0.253785,-18.005371,15.930176,33.416748,39.761719
72840,1.096544,-3.596091,4.237737,-19.073486,57.678223,-8.697510,39.755859
72880,-0.191536,-3.040636,3.921702,21.087646,-33.935547,-71.166992,39.726562
72920,7.647080,-6.105214,2.087744,65.307617,-34.393311,-37.872314,39.751953
72960,19.187132,-11.822568,-13.378799,69.793701,-26.214600,-32.592773,39.716797
73000,15.164873,-8.939949,-17.664421,95.886230,-44.250488,-75.531006,39.732422
73040,6.770802,-6.813898,-15.212758,105.102539,-85.784912,-60.089111,39.726562
73080,4.946421,-3.327940,-9.308656,62.774658,-55.206299,-38.391113,39.732422
73120,5.578490,1.072602,-2.135628,1.342773,12.817383,-2.746582,39.726562
73160,5.128380,3.251326,1.786075,-23.468018,82.397461,-13.702393,39.726562
73200,2.274492,3.457227,1.896208,15.045166,85.113525,3.753662,39.728516
73240,1.307234,2.379837,2.178724,21.118164,33.966064,19.866943,39.742188
73280,11.516110,0.387861,2.853889,-76.049805,-192.352295,98.205566,39.720703
73320,20.116083,-9.787497,-16.361975,-44.952393,29.785156,34.301758,39.728516
73360,12.133814,-8.954314,-17.482460,-69.549561,39.978027,24.047852,39.726562
73400,7.647080,-3.758897,-12.138602,-122.406006,34.027100,70.892334,39.726562
73440,2.882619,-2.968810,-8.446744,-99.517822,31.707764,49.865723,39.738281
73480,1.149217,-4.113238,-2.624045,-27.923584,13.153076,36.529541,39.722656
73520,1.848324,-4.577713,3.083732,-16.510010,59.020996,28.717041,39.736328
73560,-0.550666,-3.174711,3.471592,25.970459,-1.525879,-70.953369,39.734375
73600,4.271256,-4.501099,3.643975,51.422119,-26.458740,-50.811768,39.746094
73640,15.825673,-10.400413,-9.610326,55.389404,-20.385742,-9.460449,39.728516
73680,15.217546,-9.179369,-16.874334,73.364258,-45.928955,-63.293457,39.712891
73720,8.523358,-7.220912,-15.222335,115.661621,-61.187744,-76.843262,39.736328
73760,6.119579,-5.176264,-11.932701,85.296631,-62.133789,-43.823242,39.716797
73800,5.420473,0.196325,-4.802769,29.327393,-11.688232,-30.700684,39.707031
73840,6.062119,4.223372,1.403002,-10.467529,55.877686,-35.705566,39.732422
73880,4.276044,4.951209,2.916138,0.976562,90.881348,-6.164551,39.720703
73920,0.823605,2.494758,1.216254,-36.010742,17.211914,47.241211,39.730469
73960,4.999093,-2.375048,0.670376,43.243408,-121.643066,60.638428,39.716797
74000,18.679562,-8.681376,-8.906430,-73.089600,5.340576,68.511963,39.746094
74040,13.575124,-8.149862,-16.280571,-39.733887,41.168213,7.476807,39.707031
74080,9.888053,-4.477157,-14.149732,-103.088379,55.084229,76.477051,39.722656
74120,6.042965,-3.950433,-11.382035,-113.128662,24.108887,60.211182,39.720703
74160,2.030283,-3.701436,-6.282385,-76.385498,11.749268,39.672852,39.712891
74200,1.886631,-4.031836,0.454898,-38.269043,27.435303,38.330078,39.699219
74240,0.885855,-3.165135,3.557784,-19.927979,60.089111,-21.484375,39.718750
74280,-0.895431,-2.882619,2.968810,29.388428,-29.632568,-78.308105,39.708984
74320,7.048530,-4.817134,3.040636,65.124512,-8.178711,-43.334961,39.726562
74360,19.306843,-11.056423,-11.640609,73.852539,-5.371094,-23.345947,39.728516
74400,15.026010,-9.423578,-18.526333,70.770264,-38.452148,-65.490723,39.718750
74440,7.819463,-6.713342,-15.298949,90.393066,-65.856934,-56.549072,39.716797
74480,5.635951,-4.127604,-10.165780,68.664551,-60.760498,-41.381836,39.707031
74520,5.578490,0.196325,-3.375824,9.124756,3.387451,-1.922607,39.732422
74560,5.473145,3.078943,1.364695,-12.573242,69.274902,-6.408691,39.679688
74600,2.920926,3.064578,2.360683,17.211914,62.622070,-7.873535,39.708984
74640,0.742203,2.221819,1.790863,-17.150879,38.208008,36.376953,39.716797
74680,5.176264,0.220267,2.619257,5.584717,-38.482666,49.438477,39.712891
74720,20.709845,-7.522582,-9.854534,-69.427490,-48.828125,84.197998,39.708984
74760,15.988479,-10.773908,-18.923771,-32.196045,37.719727,-11.260986,39.689453
74800,10.443508,-4.869806,-13.752295,-118.011475,36.285400,78.887939,39.693359
74840,5.181053,-3.169923,-10.548853,-109.832764,38.574219,57.373047,39.683594
74880,0.938527,-3.552995,-5.262455,-62.011719,16.387939,35.766602,39.707031
74920,1.517924,-3.945644,1.259350,-35.400391,44.097900,37.658691,39.691406
74960,-0.119710,-2.585738,2.920926,-4.211426,35.522461,-38.604736,39.722656
75000,-0.598550,-2.446874,2.662352,32.745361,-37.750244,-72.875977,39.705078
75040,8.858546,-5.521029,3.624821,53.741455,2.471924,-18.981934,39.703125
75080,18.784906,-11.975797,-12.962208,70.159912,-7.232666,-25.634766,39.722656
75120,14.235924,-9.030929,-18.521544,68.939209,-49.163818,-63.903809,39.728516
75160,7.594408,-6.856994,-15.011644,90.515137,-60.058594,-51.116943,39.705078
75200,6.110003,-3.916914,-9.323022,66.101074,-38.848877,-39.672852,39.681641
75240,5.410896,1.005565,-2.638410,3.234863,32.379150,-16.906738,39.712891
75280,4.577713,3.926491,1.690306,-15.075684,94.970703,-18.585205,39.722656
75320,2.638410,4.127604,2.552219,-13.336182,49.011230,8.728027,39.687500
75360,0.033519,2.178724,0.972046,-58.258057,-4.150391,53.466797,39.699219
75400,4.290410,-1.067814,2.513912,30.609131,-78.277588,46.508789,39.705078
75440,19.958065,-8.149862,-8.513782,-62.133789,-82.855225,81.512451,39.708984
75480,14.599842,-9.701305,-18.674774,-59.783936,41.809082,12.756348,39.699219
75520,9.830592,-4.146757,-15.011644,-99.426270,43.792725,68.298340,39.687500
75560,6.038177,-2.992752,-11.755530,-109.771729,34.301758,70.007324,39.687500
75600,2.240973,-4.156334,-6.114791,-48.797607,19.195557,45.074463,39.708984
75640,1.771709,-4.769250,1.422156,-1.007080,73.791504,16.723633,39.703125
75680,-0.186748,-3.313575,4.113238,-6.011963,26.428223,-39.123535,39.691406
75720,-0.995988,-2.935291,2.906561,40.740967,-31.311035,-70.098877,39.722656
75760,9.232041,-5.214571,0.651223,54.168701,-35.583496,-22.674561,39.714844
75800,18.253393,-10.601525,-15.093047,61.981201,-25.909424,-38.391113,39.699219
75840,12.909535,-9.121908,-17.017986,97.900391,-43.060303,-69.244385,39.693359
75880,6.349423,-7.062895,-14.030022,117.462158,-74.310303,-65.917969,39.699219
75920,5.453991,-2.839523,-9.021352,73.028564,-49.194336,-42.236328,39.697266
75960,5.741296,1.948880,-2.116474,6.988525,13.000488,-11.566162,39.699219
76000,5.114015,4.180276,2.068590,-9.246826,66.802979,-23.254395,39.705078
76040,2.710236,3.945644,2.375048,1.068115,52.764893,4.455566,39.703125
76080,1.048660,1.881842,1.584962,-5.340576,19.226074,25.390625,39.683594
76120,12.976573,-1.082179,1.517924,-42.785645,-157.867432,107.727051,39.673828
76160,20.700268,-11.013328,-17.123331,-36.071777,49.682617,25.634766,39.693359
76200,11.803414,-8.178593,-16.711529,-76.324463,50.933838,29.083252,39.697266
76240,7.235278,-3.797204,-11.841722,-117.614746,38.604736,77.728271,39.683594
76280,2.360683,-3.198653,-8.532935,-92.041016,28.289795,47.760010,39.679688
76320,0.627281,-3.825934,-2.734178,-27.465820,2.380371,32.989502,39.693359
76360,2.130840,-3.787627,3.122039,-19.378662,59.539795,31.280518,39.693359
76400,0.210690,-2.169147,3.356671,8.819580,24.078369,-50.720215,39.673828
76440,4.338294,-4.481946,3.552995,34.088135,-24.688721,-48.553467,39.679688
76480,16.596605,-13.029245,-8.518570,93.231201,-36.926270,-20.141602,39.697266
76520,15.835250,-10.917560,-17.918205,88.378906,-33.111572,-77.392578,39.673828
76560,8.097190,-7.125144,-15.260642,116.363525,-64.483643,-72.174072,39.718750
76600,5.157111,-4.108450,-11.156980,88.165283,-60.058594,-48.858643,39.691406
76640,5.272032,0.268151,-4.118027,27.160645,3.143311,-24.719238,39.683594
76680,5.846641,3.806781,1.292869,-17.913818,85.723877,-31.311035,39.697266
76720,3.428497,4.544195,2.523489,7.354736,114.318848,-9.704590,39.705078
76760,0.775721,2.906561,2.006341,-10.467529,61.828613,27.648926,39.666016
76800,8.662222,-0.330400,2.327164,-35.034180,-223.419189,94.665527,39.687500
76840,20.312407,-9.208099,-13.081918,-56.060791,24.291992,46.997070,39.687500
76880,13.077129,-9.370906,-16.089035,-66.986084,44.952393,29.052734,39.664062
76920,9.461885,-4.759673,-12.339716,-109.588623,61.492920,70.922852,39.683594
76960,4.362236,-3.136404,-9.672575,-101.501465,35.064697,49.316406,39.695312
77000,0.541090,-3.390190,-4.371812,-37.841797,8.880615,26.184082,39.679688
77040,0.703895,-3.567361,2.312799,-15.655518,54.290771,18.066406,39.679688
77080,-0.660800,-3.299210,3.830723,2.960205,-5.767822,-49.591064,39.669922
77120,0.957681,-4.022259,4.228160,52.276611,-14.495850,-69.061279,39.667969
77160,15.251065,-8.508993,-1.872266,36.895752,0.091553,18.615723,39.664062
77200,16.692375,-9.710882,-16.548721,70.770264,-45.562744,-51.452637,39.669922
77240,11.176133,-7.637504,-15.418659,99.761963,-37.322998,-59.020996,39.685547
77280,7.857770,-6.234501,-12.579136,87.768555,-60.699463,-40.588379,39.675781
77320,5.985504,-1.905785,-6.957550,47.302246,-32.653809,-31.982422,39.683594
77360,5.434838,3.107674,-0.804452,-12.725830,6.652832,-18.829346,39.669922
77400,4.740520,5.085284,2.523489,-20.416260,74.066162,-21.057129,39.679688
77440,1.522712,3.198653,1.853112,-30.578613,60.760498,20.416260,39.705078
77480,2.121263,-0.411803,1.867477,15.380859,7.720947,34.179688,39.666016
77520,17.812860,-5.841852,-3.160346,-58.258057,-170.013428,116.088867,39.685547
77560,17.697939,-10.184934,-16.582241,-30.334473,66.833496,-14.068604,39.687500
77600,11.817780,-5.204995,-13.857639,-89.050293,63.232422,61.218262,39.675781
77640,6.512228,-3.926491,-11.707646,-99.517822,43.548584,62.591553,39.675781
77680,1.810017,-3.552995,-7.556100,-64.941406,19.866943,34.027100,39.666016
77720,0.837971,-3.734955,-1.005565,-21.118164,9.216309,26.489258,39.662109
77760,0.948104,-3.150769,3.615245,-16.113281,48.400879,-7.720947,39.679688
77800,-0.761356,-2.537854,3.232172,28.259277,-32.073975,-73.028564,39.689453
77840,6.957550,-3.768473,4.845864,29.235840,3.845215,-23.376465,39.679688
77880,17.123331,-10.390836,-9.390059,70.800781,-12.451172,-20.812988,39.683594
77920,15.093047,-9.380483,-16.668432,67.474365,-30.456543,-52.612305,39.677734
77960,9.270349,-7.206547,-14.369999,111.541748,-43.853760,-68.603516,39.699219
78000,7.163452,-5.137957,-11.520899,90.759277,-65.887451,-47.607422,39.677734
78040,5.583278,-0.837971,-5.449203,45.806885,-20.416260,-27.587891,39.673828
78080,4.802769,2.786851,0.067038,-2.563477,30.456543,-8.789062,39.701172
78120,3.404555,3.749320,2.236184,-1.312256,44.250488,-10.559082,39.691406
78160,1.163582,3.323152,1.714248,-17.639160,24.627686,25.787354,39.712891
78200,3.538630,1.364695,3.543418,14.495850,39.093018,37.872314,39.669922
78240,19.043480,-2.834735,-2.154782,-74.371338,-174.468994,99.853516,39.681641
78280,17.482460,-11.180922,-19.120094,-32.501221,42.419434,5.615234,39.664062
78320,10.793061,-6.588843,-15.428236,-99.670410,37.200928,59.478760,39.669922
78360,6.689400,-3.088520,-11.109096,-127.441406,34.881592,75.897217,39.666016
78400,1.891419,-3.169923,-6.809110,-72.570801,23.468018,40.771484,39.666016
78440,1.446098,-4.156334,-0.402226,-27.404785,10.894775,38.848877,39.648438
78480,1.177947,-3.677494,2.576161,12.542725,45.227051,-5.065918,39.673828
78520,-0.588974,-2.240973,3.069367,33.020020,-9.460449,-75.225830,39.658203
78560,8.101978,-5.683835,4.750096,28.869629,-20.080566,-13.061523,39.675781
78600,16.706739,-12.971785,-12.152967,92.864990,-38.330078,-43.670654,39.675781
78640,14.743494,-9.394848,-17.937359,84.625244,-44.097900,-67.962646,39.666016
78680,7.824251,-6.545747,-15.322891,110.656738,-72.845459,-69.519043,39.652344
78720,5.784391,-3.620033,-9.888053,75.622559,-50.201416,-45.104980,39.689453
78760,5.607220,0.885855,-3.035848,19.744873,4.974365,-19.683838,39.664062
78800,5.128380,3.711013,1.584962,-11.566162,88.317871,-32.806396,39.673828
78840,2.686294,4.371812,2.466028,2.807617,89.355469,-6.683350,39.689453
78880,0.325611,2.815581,1.541866,-23.742676,56.060791,26.794434,39.666016
78920,8.240842,-1.249773,3.485958,-13.397217,-201.538086,89.050293,39.669922
78960,20.216639,-8.504205,-12.856863,-53.710938,-8.941650,44.128418,39.699219
79000,13.450625,-8.944737,-17.578228,-62.011719,40.374756,26.489258,39.667969
79040,9.753978,-4.151546,-13.575124,-109.619141,51.513672,75.714111,39.656250
79080,5.166687,-2.987964,-10.266336,-99.151611,33.447266,57.983398,39.675781
79120,0.924162,-3.811569,-5.104438,-20.935059,2.929688,22.460938,39.673828
79160,1.508347,-4.707001,2.044648,-6.164551,57.312012,32.196045,39.685547
79200,0.153229,-3.371036,3.730166,5.218506,21.911621,-34.362793,39.673828
79240,0.158017,-3.045424,3.059790,54.626465,-24.963379,-74.249268,39.683594
79280,14.135366,-7.699753,-1.853112,41.839600,1.220703,5.523682,39.683594
79320,18.047493,-10.295067,-16.539145,85.083008,-43.121338,-71.838379,39.675781
79360,10.960655,-8.264784,-15.433024,107.879639,-22.674561,-69.763184,39.679688
79400,6.210559,-6.828263,-12.200851,104.583740,-55.023193,-45.654297,39.679688
79440,5.291186,-1.838747,-6.627151,64.331055,-26.306152,-36.956787,39.669922
79480,5.291186,2.887407,-0.526724,12.084961,27.160645,-22.521973,39.683594
79520,4.146757,4.912902,2.116474,1.220703,54.870605,-34.423828,39.679688
79560,1.584962,4.165911,1.527501,-41.473389,31.921387,28.503418,39.697266
79600,0.991199,1.158794,1.158794,-2.075195,55.053711,33.050537,39.677734
79640,15.916653,-3.074155,1.288081,-37.780762,-196.258545,102.752686,39.669922
79680,19.081787,-11.353305,-16.510414,-42.510986,57.708740,13.153076,39.664062
79720,12.181698,-7.805098,-15.002068,-72.662354,49.682617,35.858154,39.677734
79760,7.675811,-4.209007,-11.257536,-102.874756,34.515381,63.629150,39.675781
79800,2.494758,-3.485958,-8.259995,-72.021484,13.275146,27.252197,39.669922
79840,0.852336,-3.189077,-2.604892,-34.881592,-14.099121,23.529053,39.664062
79880,2.250550,-3.620033,2.873042,-23.529053,42.724609,30.822754,39.664062
79920,0.215478,-2.480393,3.040636,10.284424,22.766113,-38.330078,39.673828
79960,3.303998,-3.476381,4.462792,49.682617,-5.615234,-58.990479,39.664062
80000,15.179238,-11.305421,-4.908113,92.529297,-45.288086,-30.242920,39.673828
80040,16.429012,-11.439496,-16.807297,86.547852,-40.893555,-71.716309,39.666016
80080,9.835381,-7.354988,-15.605407,109.649658,-58.654785,-69.793701,39.667969
80120,6.268020,-4.836287,-12.172121,96.588135,-80.261230,-52.612305,39.656250
80160,5.856217,-0.952892,-5.659893,44.677734,-28.228760,-24.383545,39.664062
80200,5.430049,2.671929,-0.201113,-8.117676,25.909424,-9.429932,39.675781
80240,3.543418,3.701436,1.963245,-5.859375,83.129883,-33.142090,39.656250
80280,0.962469,3.629610,1.656788,-14.190674,33.172607,13.732910,39.675781
80320,3.040636,1.163582,3.294421,20.996094,6.042480,32.104492,39.664062
80360,19.359514,-3.921702,-3.428497,-94.787598,-183.898926,104.034424,39.662109
80400,16.467319,-10.582372,-18.425776,-46.813965,41.503906,10.986328,39.675781
80440,9.864111,-6.282385,-14.963760,-92.254639,37.811279,58.868408,39.664062
80480,6.349423,-4.089296,-11.367670,-105.895996,27.221680,66.894531,39.666016
80520,2.451663,-3.979163,-7.728483,-74.890137,15.686035,46.630859,39.671875
80560,2.011129,-4.836287,-1.340753,-13.885498,23.010254,39.398193,39.660156
80600,1.685518,-3.653552,2.834735,-13.946533,57.098389,4.028320,39.673828
80640,-0.909797,-1.877054,2.614468,45.318604,-11.016846,-88.104248,39.667969
80680,6.392519,-3.763685,3.892972,38.879395,-23.406982,-25.451660,39.654297
80720,17.650055,-10.180145,-11.563994,51.330566,-10.650635,-19.989014,39.660156
80760,13.958196,-9.868899,-16.888699,83.282471,-38.665771,-67.932129,39.673828
80800,7.632715,-8.145074,-14.810532,120.941162,-55.175781,-73.699951,39.669922
80840,6.335058,-5.468357,-11.420342,101.043701,-63.201904,-60.180664,39.664062
80880,5.525817,-0.172383,-5.185841,47.149658,-13.580322,-37.414551,39.675781
80920,5.233725,3.462016,0.378284,9.582520,44.067383,-24.169922,39.650391
80960,3.428497,4.194642,2.389413,17.700195,71.319580,-7.049561,39.650391
81000,1.034295,3.083732,1.197101,-14.709473,32.409668,32.592773,39.664062
81040,5.214571,0.383072,1.106121,6.958008,-55.633545,42.358398,39.669922
81080,19.886240,-8.264784,-8.422802,-44.708252,-20.904541,58.746338,39.652344
81120,14.925453,-10.017340,-15.351622,-40.222168,53.405762,2.899170,39.656250
81160,10.539276,-4.927267,-11.932701,-100.524902,67.108154,73.547363,39.652344
81200,6.090849,-4.137180,-10.319010,-95.489502,44.372559,64.147949,39.654297
81240,1.618480,-3.284845,-6.239290,-69.305420,16.998291,29.846191,39.642578
81280,0.905008,-3.007117,-0.488417,-33.599854,9.338379,20.263672,39.654297
81320,0.493206,-2.557007,2.992752,-30.944824,49.468994,-8.850098,39.669922
81360,-1.082179,-2.600103,2.518700,19.348145,-30.426025,-65.734863,39.669922
81400,8.087613,-5.118803,4.745308,55.633545,0.213623,-33.020020,39.669922
81440,18.828003,-11.535264,-9.509769,70.617676,-9.490967,-30.792236,39.648438
81480,15.002068,-9.318233,-16.400282,72.631836,-17.456055,-65.063477,39.671875
81520,8.877700,-7.378930,-14.369999,95.397949,-50.018311,-53.375244,39.667969
81560,7.508216,-5.114015,-10.745177,73.181152,-52.490234,-31.768799,39.654297
81600,5.722142,-1.106121,-4.984728,38.452148,-12.176514,-18.676758,39.650391
81640,4.558560,2.236184,0.100556,-8.850098,26.580811,3.692627,39.644531
81680,2.911349,3.256114,1.939303,1.159668,18.951416,-3.021240,39.640625
81720,0.895431,2.906561,1.628057,-19.409180,12.969971,24.047852,39.660156
81760,3.974375,1.225831,3.452439,-8.728027,40.496826,46.844482,39.648438
81800,19.776106,-3.294421,-3.725378,-74.066162,-84.930420,70.281982,39.648438
81840,17.228676,-11.425131,-17.808073,-6.317139,16.479492,-4.974365,39.658203
81880,10.936713,-7.326257,-14.369999,-80.566406,37.109375,47.424316,39.666016
81920,7.920019,-3.830723,-10.611102,-99.212646,28.411865,57.556152,39.642578
81960,3.399766,-3.548207,-6.871359,-57.006836,20.629883,32.104492,39.656250
82000,1.326388,-4.027047,-1.139640,-5.981445,6.072998,18.371582,39.636719
82040,0.732626,-3.227384,2.643199,2.746582,26.489258,-2.593994,39.648438
82080,-0.627281,-2.087744,3.069367,47.576904,-10.498047,-75.469971,39.626953
82120,6.296751,-4.955997,4.553771,76.141357,-26.611328,-57.800293,39.621094
82160,18.167202,-11.865664,-10.323798,74.127197,-15.655518,-30.853271,39.640625
82200,15.682021,-8.796297,-17.085024,86.151123,-27.832031,-70.434570,39.650391
82240,9.414001,-7.120356,-14.293385,106.445312,-48.675537,-55.450439,39.621094
82280,7.091625,-4.711789,-9.902418,89.996338,-46.020508,-46.966553,39.621094
82320,4.745308,0.229843,-4.228160,36.285400,-16.937256,-26.367188,39.621094
82360,3.993528,4.481946,0.574608,-21.514893,34.210205,-15.960693,39.650391
82400,2.973598,5.425261,2.681506,-9.918213,36.132812,-8.483887,39.644531
82440,0.387861,3.193865,1.493982,-23.681641,36.895752,25.482178,39.646484
82480,7.182605,-2.384625,3.280056,31.921387,-102.447510,65.032959,39.636719
82520,18.081011,-8.767567,-8.451532,-55.816650,-25.390625,43.762207,39.642578
82560,13.948619,-9.528923,-15.064317,-30.700684,36.743164,15.686035,39.652344
82600,10.663774,-5.482722,-12.469003,-78.460693,52.185059,58.013916,39.636719
82640,7.388506,-3.878607,-10.697293,-90.423584,22.735596,51.025391,39.644531
82680,2.911349,-2.896984,-7.015011,-73.974609,19.927979,28.259277,39.652344
82720,0.981623,-2.978387,-1.441309,-27.740479,-1.464844,13.946533,39.644531
82760,1.106121,-2.686294,3.026271,-41.687012,45.318604,0.274658,39.646484
82800,-0.392649,-2.466028,3.356671,10.803223,-6.958008,-71.228027,39.630859
82840,5.645528,-5.094861,3.955221,61.279297,-7.446289,-49.987793,39.636719
82880,18.641254,-10.960655,-8.571242,52.246094,7.629395,-16.265869,39.646484
82920,16.361975,-9.385271,-16.931795,72.326660,-11.596680,-71.472168,39.634766
82960,9.021352,-7.331046,-15.169662,97.930908,-44.830322,-64.483643,39.646484
83000,6.837840,-5.530606,-10.812215,78.918457,-56.640625,-42.175293,39.630859
83040,5.056554,-1.498770,-4.687847,29.541016,-7.293701,-13.580322,39.636719
83080,4.261679,2.226608,0.114922,-11.932373,18.402100,6.774902,39.634766
83120,3.447650,3.768473,2.351106,3.906250,39.428711,-15.380859,39.625000
83160,2.121263,3.471592,2.437297,-13.366699,47.760010,16.296387,39.638672
83200,6.818686,1.857901,2.882619,-39.306641,-0.366211,34.790039,39.662109
83240,21.327549,-4.946421,-7.929596,-91.766357,6.805420,90.301514,39.628906
83280,14.547170,-10.687716,-16.184803,-32.043457,47.882080,-1.617432,39.666016
83320,10.122684,-6.703765,-12.497733,-106.170654,55.603027,65.856934,39.654297
83360,6.665458,-4.338294,-10.242394,-121.185303,50.384521,66.253662,39.640625
83400,1.877054,-3.280056,-6.789956,-81.268311,29.357910,34.271240,39.656250
83440,0.497994,-3.098097,-1.154005,-38.787842,1.159668,17.761230,39.615234
83480,0.708684,-3.203442,2.944868,-30.853271,44.372559,7.110596,39.644531
83520,-0.129287,-3.294421,3.600879,7.415771,-12.084961,-61.676025,39.640625
83560,8.461109,-6.861782,3.495534,42.663574,-22.521973,-20.446777,39.640625
83600,18.737022,-10.338163,-11.745954,43.518066,-7.751465,-21.362305,39.666016
83640,14.551958,-7.287950,-14.891934,66.589355,-23.925781,-53.253174,39.640625
83680,8.518570,-6.852205,-13.244724,89.569092,-42.358398,-52.215576,39.642578
83720,5.932832,-5.420473,-9.634268,83.404541,-48.187256,-41.839600,39.648438
83760,4.539406,-0.009577,-3.744531,27.374268,-12.298584,-18.188477,39.644531
83800,4.448427,3.931279,0.900220,-21.209717,40.313721,-1.800537,39.644531
83840,3.165135,4.587290,2.681506,-16.510010,47.058105,12.359619,39.644531
83880,0.861913,3.112462,1.786075,-31.005859,49.438477,40.344238,39.636719
83920,9.706094,-1.216254,3.160346,-6.835938,-156.280518,88.928223,39.646484
83960,19.081787,-8.825027,-11.836933,-62.713623,5.157471,40.893555,39.646484
84000,12.966996,-8.853758,-15.121778,-47.058105,57.250977,23.529053,39.656250
84040,10.912771,-4.946421,-12.885593,-98.968506,52.673340,72.143555,39.642578
84080,6.464345,-3.634398,-10.884041,-100.921631,36.773682,57.464600,39.634766
84120,0.852336,-3.418920,-6.138733,-47.302246,-1.281738,24.078369,39.660156
84160,0.162806,-3.955221,0.459687,-10.314941,11.810303,17.028809,39.642578
84200,0.100556,-3.667917,3.878607,-20.111084,35.430908,-8.544922,39.621094
84240,-0.814029,-3.213019,3.371036,37.475586,-33.508301,-62.438965,39.640625
84280,10.299856,-4.209007,3.950433,33.782959,8.361816,-15.502930,39.646484
84320,18.818426,-8.537724,-12.966996,51.391602,-10.437012,-28.106689,39.617188
84360,13.517663,-9.255983,-16.381128,80.657959,-31.066895,-61.706543,39.638672
84400,8.403648,-7.532158,-14.499286,91.064453,-48.736572,-50.994873,39.644531
84440,7.608773,-4.630386,-10.874464,73.150635,-58.319092,-36.346436,39.623047
84480,6.536170,-0.090980,-4.314352,26.214600,-3.173828,-13.580322,39.640625
84520,4.965574,2.839523,0.517148,-21.270752,39.916992,6.774902,39.628906
84560,3.050213,3.840300,1.977611,-14.404297,17.578125,16.723633,39.644531
84600,0.646434,2.614468,1.537078,-25.817871,53.802490,38.269043,39.640625
84640,4.386178,-0.474052,3.294421,10.284424,12.115479,50.903320,39.630859
84680,19.158401,-7.465121,-6.579266,-49.652100,-62.164307,71.868896,39.640625
84720,16.390705,-10.520123,-17.515980,-33.447266,43.670654,-11.962891,39.644531
84760,11.056423,-4.347870,-13.445837,-105.621338,52.978516,68.420410,39.621094
84800,5.813122,-2.810793,-11.046846,-107.391357,35.888672,55.541992,39.628906
84840,1.757344,-3.399766,-6.287174,-68.145752,10.528564,30.853271,39.638672
84880,1.695095,-4.180276,0.454898,-35.522461,22.888184,32.501221,39.646484
84920,0.383072,-3.213019,2.896984,-16.937256,37.109375,-19.409180,39.636719
84960,-0.545878,-2.973598,3.107674,28.137207,-25.512695,-69.702148,39.646484
85000,9.045294,-6.382942,3.864242,50.598145,-18.463135,-20.660400,39.640625
85040,18.157625,-12.210428,-12.330139,90.332031,-18.463135,-39.855957,39.640625
85080,15.131354,-8.370130,-16.974890,87.799072,-24.291992,-65.399170,39.617188
85120,8.523358,-6.220136,-14.489709,110.900879,-56.701660,-59.814453,39.630859
85160,6.540959,-3.658340,-10.251971,69.000244,-50.231934,-35.430908,39.640625
85200,5.473145,0.129287,-3.801992,18.798828,-2.593994,-2.990723,39.642578
85240,4.587290,2.695871,0.684742,-8.026123,41.107178,-2.288818,39.621094
85280,2.298434,2.906561,1.824382,18.188477,56.427002,-8.758545,39.621094
85320,0.866701,2.949656,2.260126,1.678467,32.196045,21.301270,39.640625
85360,7.201759,-0.081403,4.639963,15.045166,-50.903320,52.429199,39.640625
85400,20.891804,-6.631939,-9.361329,-70.404053,-44.494629,67.993164,39.621094
85440,14.451402,-9.643845,-17.434576,-19.653320,33.386230,-3.204346,39.636719
85480,9.581595,-4.879383,-13.249513,-100.891113,34.057617,66.558838,39.646484
85520,5.736507,-3.112462,-9.979033,-105.957031,32.196045,51.879883,39.630859
85560,1.580173,-3.375824,-5.353435,-60.607910,14.312744,36.071777,39.652344
85600,1.546654,-4.022259,0.761356,-20.233154,26.885986,31.860352,39.626953
85640,0.651223,-2.834735,3.064578,-10.314941,34.484863,-16.693115,39.609375
85680,-0.023942,-3.174711,3.514688,46.112061,-13.031006,-66.680908,39.646484
85720,11.281479,-8.216900,1.800440,59.844971,-30.883789,-10.467529,39.656250
85760,17.381905,-12.263102,-15.571888,83.587646,-37.200928,-65.277100,39.644531
85800,12.751518,-8.188169,-16.596605,98.510742,-50.506592,-70.129395,39.621094
85840,8.264784,-6.387730,-13.934254,105.468750,-59.967041,-56.427002,39.621094
85880,6.268020,-2.806004,-8.734048,72.265625,-43.701172,-49.163818,39.634766
85920,5.114015,2.068590,-2.279280,15.411377,-3.417969,-25.878906,39.617188
85960,4.955997,4.845864,2.054225,-13.000488,69.610596,-33.935547,39.619141
86000,2.748544,4.386178,2.528277,-19.714355,51.940918,16.693115,39.615234
86040,0.526724,1.532289,1.259350,-7.354736,37.353516,27.984619,39.625000
86080,12.923901,-3.581726,0.895431,-18.096924,-225.372314,106.262207,39.621094
86120,17.290924,-10.654198,-13.972561,-44.555664,49.102783,9.796143,39.597656
86160,11.971008,-7.244854,-14.475344,-59.936523,58.349609,32.592773,39.615234
86200,8.853758,-3.701436,-11.563994,-95.123291,44.708252,70.892334,39.615234
86240,4.491522,-2.892196,-8.834604,-93.841553,27.832031,50.750732,39.617188
86280,0.895431,-2.882619,-4.103662,-48.370361,4.180908,26.062012,39.605469
86320,1.000776,-3.442862,1.647211,-18.768311,40.588379,22.338867,39.621094
86360,-0.081403,-2.782062,3.744531,-13.366699,16.479492,-35.552979,39.630859
86400,0.866701,-3.912126,3.696647,50.170898,-18.676758,-66.070557,39.605469
86440,14.460979,-8.671799,0.450110,80.718994,4.638672,-18.615723,39.605469
86480,17.678785,-10.970232,-17.180792,84.197998,-44.555664,-74.035645,39.617188
86520,11.875240,-8.082825,-16.553511,95.336914,-40.313721,-55.023193,39.621094
86560,6.713342,-6.253655,-13.838486,95.977783,-71.044922,-46.936035,39.630859
86600,6.325481,-2.207454,-8.097190,53.253174,-43.884277,-30.273438,39.625000
86640,5.774815,1.671153,-1.379060,7.507324,14.770508,-19.195557,39.623047
86680,4.496311,2.839523,1.671153,-12.512207,84.350586,-16.387939,39.630859
86720,1.632846,2.858677,1.618480,4.791260,57.830811,27.252197,39.603516
86760,1.211466,2.480393,2.082955,-5.981445,27.465820,39.886475,39.621094
86800,14.460979,-0.890643,3.591303,-60.180664,-132.507324,85.845947,39.601562
86840,19.924547,-10.108319,-15.969325,-38.696289,34.271240,9.063721,39.603516
86880,11.808203,-8.863335,-16.845604,-54.504395,37.750244,21.209717,39.605469
86920,7.943961,-4.156334,-11.080365,-108.428955,37.506104,66.070557,39.634766
86960,2.935291,-2.834735,-8.312668,-94.360352,22.277832,38.635254,39.613281
87000,0.814029,-3.433285,-3.069367,-41.900635,-3.601074,28.778076,39.615234
87040,1.877054,-4.304775,2.389413,-15.808105,38.940430,25.482178,39.607422
87080,0.445322,-3.193865,3.682282,10.772705,16.326904,-47.729492,39.632812
87120,4.314352,-4.735731,4.271256,47.973633,-11.566162,-57.220459,39.634766
87160,16.232687,-11.640609,-7.134721,67.687988,-25.390625,-20.660400,39.621094
87200,16.529568,-10.113108,-17.180792,83.068848,-33.721924,-76.202393,39.630859
87240,9.107543,-7.766790,-15.533581,108.947754,-49.804688,-66.040039,39.617188
87280,6.406884,-5.056554,-11.511322,80.871582,-57.769775,-42.846680,39.630859
87320,5.750873,-0.301669,-4.812346,37.261963,-5.920410,-34.759521,39.611328
87360,5.401319,3.433285,0.521936,-11.993408,57.189941,-30.731201,39.626953
87400,3.351882,4.448427,2.183512,-10.711670,95.520020,-14.678955,39.625000
87440,0.689530,3.385401,1.810017,-34.210205,50.964355,22.857666,39.609375
87480,5.176264,-0.090980,3.074155,14.373779,-96.313477,52.154541,39.621094
87520,20.254946,-6.153099,-8.374918,-99.578857,-65.826416,87.219238,39.642578
87560,14.480132,-9.543288,-16.486473,-55.267334,52.764893,15.197754,39.591797
87600,10.587160,-5.391742,-12.880805,-110.473633,63.964844,80.871582,39.621094
87640,5.913678,-3.605668,-10.716447,-107.421875,28.381348,58.074951,39.625000
87680,1.110910,-3.337517,-6.315904,-62.011719,12.023926,30.426025,39.619141
87720,0.579397,-3.907337,0.268151,-15.533447,28.137207,31.372070,39.625000
87760,0.632069,-3.902549,4.170700,-22.583008,52.459717,1.556396,39.597656
87800,-0.067038,-4.472369,4.242526,42.938232,-24.322510,-67.382812,39.613281
87840,11.027693,-8.264784,0.521936,64.727783,-39.764404,-21.850586,39.601562
87880,18.344374,-9.672575,-15.054740,77.026367,-35.369873,-65.277100,39.630859
87920,13.110648,-6.852205,-14.906300,94.177246,-24.200439,-70.678711,39.611328
87960,7.675811,-6.813898,-12.895170,104.736328,-53.497314,-58.074951,39.595703
88000,5.602432,-3.562572,-8.628703,72.998047,-46.691895,-39.978027,39.615234
88040,4.711789,1.546654,-2.533065,13.366699,-10.070801,-16.571045,39.601562
88080,5.195418,4.702212,1.810017,-10.223389,39.733887,-26.763916,39.595703
88120,3.131616,4.472369,2.183512,-14.038086,47.119141,-5.798340,39.605469
88160,1.082179,2.054225,1.244985,-22.155762,57.250977,30.151367,39.601562
88200,12.502522,-2.322376,2.269703,-42.846680,-119.079590,103.790283,39.589844
88240,20.867863,-9.878476,-14.259866,-26.092529,15.350342,-2.105713,39.603516
88280,13.010092,-7.532158,-15.629349,-65.277100,36.376953,22.979736,39.599609
88320,9.102755,-4.209007,-11.468226,-108.276367,32.257080,64.300537,39.605469
88360,3.897760,-3.055001,-8.331821,-84.075928,30.303955,35.400391,39.615234
88400,0.900220,-2.791639,-2.968810,-42.846680,-5.554199,21.850586,39.605469
88440,1.647211,-3.303998,2.537854,-23.803711,37.933350,21.881104,39.611328
88480,0.019154,-2.676718,3.069367,18.310547,-4.028320,-58.868408,39.599609
88520,2.422932,-4.036624,3.801992,53.558350,-8.544922,-56.091309,39.595703
88560,15.308526,-8.576031,-2.394202,64.910889,-28.289795,-8.544922,39.582031
88600,19.627666,-8.360553,-17.415422,75.469971,-15.777588,-64.819336,39.603516
88640,11.506534,-6.349423,-16.405069,89.569092,-39.123535,-51.116943,39.611328
88680,6.215348,-5.023035,-12.176909,73.455811,-61.920166,-32.440186,39.591797
88720,5.650316,-1.388637,-5.793968,34.851074,-11.352539,-12.451172,39.601562
88760,5.233725,2.226608,-0.114922,-10.498047,41.564941,5.676270,39.609375
88800,3.404555,3.509900,2.384625,-7.263184,67.443848,-0.885010,39.595703
88840,1.221043,3.256114,2.059013,-40.435791,0.518799,39.215088,39.591797
88880,2.432509,1.321599,2.269703,-29.937744,35.278320,45.837402,39.593750
88920,17.918205,-3.438074,-2.418144,-57.891846,-155.548096,103.698730,39.601562
88960,16.194380,-10.855310,-17.458519,-50.567627,39.062500,40.008545,39.625000
89000,9.624691,-7.551312,-14.757859,-68.450928,40.985107,48.736572,39.599609
89040,5.722142,-4.098873,-10.912771,-96.771240,20.294189,56.884766,39.607422
89080,1.747767,-3.356671,-7.556100,-63.232422,7.110596,36.041260,39.597656
89120,1.460463,-3.998317,-1.426944,-23.223877,0.244141,38.299561,39.601562
89160,2.264915,-3.399766,3.145981,-20.080566,60.119629,9.429932,39.605469
89200,-0.148441,-2.202666,3.246537,30.029297,-2.868652,-87.951660,39.611328
89240,4.084508,-3.835511,4.975151,54.626465,29.235840,-49.682617,39.617188
89280,16.304514,-6.919243,-6.325481,65.795898,27.618408,-35.552979,39.605469
89320,14.551958,-7.905654,-18.085800,53.894043,-42.266846,-65.338135,39.615234
89360,7.441179,-7.216124,-17.693151,77.331543,-54.992676,-41.687012,39.595703
89400,4.611232,-6.531382,-13.460202,64.910889,-69.305420,-39.184570,39.593750
89440,5.540183,-0.885855,-5.501875,2.136230,-23.162842,-17.608643,39.615234
89480,7.000646,3.821146,0.837971,-32.836914,10.528564,3.509521,39.589844
89520,4.955997,4.266468,2.873042,-30.609131,60.852051,21.759033,39.597656
89560,1.661576,1.833959,1.824382,-28.503418,42.083740,45.776367,39.595703
89600,9.275137,-3.687071,2.351106,20.477295,-67.382812,89.050293,39.582031
89640,20.580557,-11.702858,-12.866440,3.356934,37.231445,-10.955811,39.597656
89680,13.623008,-6.986280,-16.922218,-76.171875,46.020508,19.805908,39.605469
89720,8.877700,-2.398990,-15.011644,-108.367920,51.147461,67.718506,39.601562
89760,4.031836,-2.729390,-10.946290,-88.958740,38.299561,50.476074,39.582031
89800,1.637634,-3.596091,-3.485958,-49.255371,6.835938,32.440186,39.611328
89840,1.810017,-4.505888,3.294421,-38.269043,48.736572,25.299072,39.609375
89880,-0.565032,-4.304775,4.065354,2.960205,-23.773193,-64.605713,39.597656
89920,3.179500,-4.611232,4.031836,75.378418,-10.833740,-68.969727,39.587891
89960,18.440142,-7.934384,-5.133168,45.196533,29.449463,7.293701,39.589844
90000,18.076223,-7.441179,-17.037140,52.764893,-25.177002,-45.898438,39.591797
90040,10.022128,-7.225701,-15.011644,114.898682,-46.722412,-66.192627,39.607422
90080,6.066907,-5.899313,-11.626244,97.778320,-62.103271,-40.863037,39.601562
90120,4.687847,-1.168370,-5.090073,31.372070,-5.493164,-3.448486,39.613281
90160,4.410120,2.887407,0.584185,-24.810791,19.714355,27.008057,39.615234
90200,4.151546,4.252102,3.265691,21.209717,34.881592,3.662109,39.611328
90240,1.905785,3.744531,2.542642,-31.616211,17.303467,40.008545,39.607422
90280,4.702212,0.885855,3.165135,-21.392822,40.954590,58.837891,39.611328
90320,20.719421,-5.588067,-6.617573,-38.635254,-68.511963,66.192627,39.593750
90360,16.103401,-11.621455,-18.219875,-29.144287,21.667480,6.469727,39.607422
90400,10.280702,-5.770026,-14.159308,-93.597412,28.076172,52.978516,39.599609
90440,6.114791,-2.839523,-10.285490,-109.191895,17.089844,57.495117,39.595703
90480,1.656788,-2.930503,-5.511452,-59.906006,6.103516,30.303955,39.597656
90520,1.316811,-3.782839,0.497994,-20.202637,-2.624512,26.153564,39.585938
90560,1.173159,-3.438074,3.351882,22.186279,53.100586,-5.645752,39.617188
90600,-0.665588,-2.188300,3.117251,31.158447,-15.991211,-58.654785,39.611328
90640,8.221688,-5.798757,4.697424,62.530518,-26.153564,-22.796631,39.585938
90680,17.587805,-13.503298,-11.343728,107.238770,-40.863037,-54.046631,39.601562
90720,14.140155,-9.854534,-18.004396,93.719482,-60.394287,-90.270996,39.597656
90760,7.704541,-6.392519,-15.763424,105.621338,-84.259033,-73.577881,39.595703
90800,6.196194,-3.179500,-10.778696,69.854736,-62.225342,-48.492432,39.599609
90840,6.402095,0.938527,-3.361459,9.124756,6.317139,-12.634277,39.572266
90880,5.482722,3.548207,1.244985,-30.914307,57.800293,-20.172119,39.585938
90920,3.007117,3.691859,2.264915,3.112793,104.217529,-5.371094,39.568359
90960,0.675165,2.030283,2.054225,4.913330,70.739746,26.641846,39.578125
91000,7.388506,0.191536,2.738967,-37.811279,-178.070068,63.293457,39.615234
91040,19.603724,-8.604761,-12.871228,-50.201416,-7.537842,51.666260,39.576172
91080,13.704411,-9.471462,-17.123331,-47.088623,56.640625,12.725830,39.548828
91120,9.457097,-4.888960,-13.560759,-102.600098,48.889160,77.453613,39.568359
91160,4.932055,-3.859453,-10.438720,-89.477539,32.775879,54.901123,39.576172
91200,1.426944,-3.916914,-4.702212,-37.231445,16.998291,31.341553,39.578125
91240,1.484405,-3.950433,1.843535,-11.993408,49.713135,25.543213,39.572266
91280,-0.172383,-2.916138,3.380613,12.298584,17.272949,-39.031982,39.583984
91320,-1.302446,-2.695871,2.231396,65.216064,-33.905029,-80.169678,39.591797
91360,11.707646,-5.540183,2.169147,33.966064,-4.028320,5.706787,39.570312
91400,17.750612,-11.051635,-14.877569,80.505371,-31.951904,-58.227539,39.580078
91440,12.387600,-9.236830,-16.663643,89.385986,-44.616699,-67.901611,39.548828
91480,6.933608,-6.967127,-13.488933,109.130859,-66.406250,-63.842773,39.582031
91520,5.707777,-2.944868,-8.480263,70.831299,-51.879883,-38.970947,39.562500
91560,5.540183,1.661576,-2.317587,11.627197,-2.593994,-11.932373,39.576172
91600,4.951209,4.347870,1.690306,-13.641357,40.527344,-17.761230,39.562500
91640,2.647987,4.007894,2.149993,-15.686035,38.024902,6.591797,39.566406
91680,0.177171,2.475605,0.885855,-38.452148,24.414062,37.109375,39.582031
91720,7.647080,-1.216254,3.821146,2.746582,-21.545410,79.040527,39.589844
91760,23.276428,-8.801085,-11.439496,-41.870117,4.455566,53.253174,39.558594
91800,14.499286,-10.994174,-19.819202,-45.196533,35.308838,2.716064,39.578125
91840,8.178593,-4.122815,-13.919888,-82.763672,24.108887,52.429199,39.574219
91880,3.821146,-2.806004,-9.356541,-79.284668,20.812988,43.609619,39.585938
91920,1.905785,-4.108450,-3.433285,-35.522461,5.432129,35.949707,39.562500
91960,1.982399,-4.606444,2.164358,2.807617,48.187256,8.392334,39.576172
92000,0.392649,-3.260903,4.137180,20.629883,8.544922,-75.347900,39.554688
92040,5.458780,-5.453991,4.529830,70.922852,-22.644043,-59.326172,39.558594
92080,18.559851,-11.166556,-9.174581,91.278076,-17.364502,-43.121338,39.554688
92120,15.854403,-8.705317,-17.128119,108.673096,-45.837402,-78.186035,39.560547
92160,7.723695,-6.344635,-14.978126,119.323730,-61.553955,-61.828613,39.562500
92200,5.257667,-2.652776,-9.476251,68.847656,-36.499023,-29.541016,39.587891
92240,4.865018,1.225831,-2.528277,18.920898,6.958008,0.946045,39.582031
92280,4.975151,4.467580,2.322376,2.746582,47.149658,-13.763428,39.578125
92320,3.466804,5.046977,3.160346,-12.390137,14.801025,12.725830,39.589844
92360,2.092532,2.964022,2.102109,-23.315430,66.558838,27.191162,39.554688
92400,17.037140,-3.466804,0.339977,-41.717529,-175.323486,112.792969,39.560547
92440,17.046717,-12.536040,-15.361198,-20.904541,24.749756,2.502441,39.552734
92480,13.043611,-8.264784,-13.872005,-56.579590,57.708740,26.275635,39.589844
92520,10.050858,-4.376601,-11.511322,-82.702637,34.027100,55.450439,39.558594
92560,2.935291,-3.457227,-8.101978,-27.893066,-0.793457,6.774902,39.578125
92600,-1.244985,-2.762909,-2.700660,2.166748,-52.703857,-10.070801,39.558594
92640,0.866701,-3.246537,4.209007,-34.698486,20.629883,21.697998,39.537109
