MS,Accel X (m/s²),Accel Y (m/s²),Accel Z (m/s²),Gyro X (°/s),Gyro Y (°/s),Gyro Z (°/s),Temp (°C)
30000,1.134852,4.601655,4.496311,50.476074,90.850830,-28.930664,40.150391
30040,-0.914585,1.810017,1.929727,-7.934570,-52.459717,24.993896,40.154297
30080,5.190629,0.258574,2.959233,-135.742188,-175.109863,86.944580,40.167969
30120,18.990808,1.407791,-11.923124,-38.970947,-81.298828,56.091309,40.148438
30160,15.241488,4.347870,-19.627666,39.916992,22.613525,-10.589600,40.164062
30200,7.565677,6.052542,-13.872005,-69.030762,-25.604248,54.077148,40.167969
30240,4.199430,3.323152,-10.884041,-30.578613,-49.926758,26.977539,40.167969
30280,2.911349,-0.981623,-6.339846,4.364014,-27.252197,-2.838135,40.154297
30320,4.702212,-3.801992,-0.526724,-0.396729,-16.693115,26.367188,40.164062
30360,4.865018,-3.969586,2.489970,62.194824,93.048096,30.761719,40.169922
30400,3.059790,-1.632846,3.869030,43.518066,180.633545,3.173828,40.169922
30440,9.246407,1.680730,0.225055,-108.551025,-244.934082,-68.206787,40.158203
30480,17.956512,4.405331,-17.108965,90.881348,63.873291,-123.687744,40.160156
30520,12.603078,3.462016,-19.718645,161.651611,49.530029,-96.923828,40.162109
30560,4.582502,1.091756,-17.271770,117.279053,-4.760742,-84.655762,40.160156
30600,3.447650,2.226608,-10.754754,49.316406,3.417969,-60.424805,40.142578
30640,4.491522,4.845864,-1.446098,-22.247314,85.052490,-26.733398,40.160156
30680,4.204218,6.277597,5.023035,32.562256,263.183594,-37.231445,40.162109
30720,0.158017,3.562572,3.754108,7.659912,-19.378662,-6.896973,40.146484
30760,4.094085,0.646434,2.906561,-103.607178,-231.567383,87.829590,40.164062
30800,17.865534,2.102109,-9.725247,-85.571289,-170.288086,61.523438,40.144531
30840,14.709975,3.509900,-19.488802,27.557373,13.488770,3.967285,40.154297
30880,8.571242,5.348647,-14.719552,-68.786621,-7.720947,49.499512,40.150391
30920,5.406107,4.616021,-11.923124,-48.675537,-30.883789,28.839111,40.140625
30960,2.537854,0.153229,-6.684611,-14.099121,-10.803223,7.873535,40.128906
31000,3.629610,-4.036624,-0.047884,-26.397705,-5.950928,27.130127,40.154297
31040,4.898537,-4.630386,2.978387,44.403076,34.637451,15.228271,40.152344
31080,4.012682,-1.987187,3.284845,5.218506,65.765381,-2.593994,40.130859
31120,12.354081,0.622492,-4.774038,-88.409424,-128.234863,-45.043945,40.134766
31160,16.883911,4.338294,-19.828779,148.040771,82.122803,-129.241943,40.158203
31200,10.472239,3.811569,-18.306067,117.889404,25.634766,-59.692383,40.144531
31240,5.674258,2.240973,-14.451402,97.869873,5.676270,-74.249268,40.138672
31280,4.065354,3.117251,-7.771579,79.223633,10.986328,-54.016113,40.148438
31320,3.533842,4.400543,-0.239420,-1.190186,59.509277,-5.920410,40.144531
31360,2.537854,5.827487,4.299986,80.413818,185.333252,-43.273926,40.158203
31400,-0.536301,2.628834,2.183512,22.308350,-21.026611,27.404785,40.138672
31440,2.097321,0.905008,3.835511,-75.164795,-52.612305,79.132080,40.125000
31480,14.130578,2.001553,-3.648763,-63.995361,-262.237549,42.907715,40.140625
31520,17.372328,2.695871,-22.984337,-44.006348,1.159668,75.012207,40.144531
31560,9.595961,4.625597,-19.167978,-49.957275,-3.814697,38.238525,40.091797
31600,3.926491,4.060566,-12.636597,-63.446045,-22.369385,49.682617,40.091797
31640,1.675941,-0.172383,-7.603985,-19.378662,-23.162842,27.679443,40.085938
31680,4.299986,-3.845088,-1.450886,-14.373779,3.723145,31.433105,40.119141
31720,4.745308,-4.558560,1.795651,15.014648,57.464600,7.659912,40.105469
31760,3.418920,-3.083732,2.825158,48.187256,110.412598,23.437500,40.125000
31800,8.073248,-1.312023,-0.306458,-89.538574,-177.368164,-32.318115,40.111328
31840,16.998833,1.814805,-17.070658,53.253174,60.729980,-65.216064,40.109375
31880,12.933477,2.638410,-20.470425,116.058350,51.239014,-71.411133,40.103516
31920,6.703765,1.335965,-16.338032,85.144043,19.317627,-67.016602,40.113281
31960,5.161899,1.886631,-10.874464,79.650879,15.167236,-68.450928,40.115234
32000,3.447650,3.280056,-2.734178,26.519775,67.413330,-41.107178,40.101562
32040,2.896984,5.367800,3.457227,3.051758,138.641357,-33.538818,40.099609
32080,0.727837,4.539406,3.509900,35.461426,52.978516,-50.903320,40.103516
32120,1.589750,1.077391,3.548207,-45.867920,-27.648926,38.604736,40.089844
32160,11.338940,1.881842,-2.020706,-102.203369,-244.018555,55.877686,40.083984
32200,18.444929,2.020706,-18.344374,-30.731201,-2.593994,66.253662,40.089844
32240,11.851298,4.438850,-17.525557,-54.138184,16.876221,31.311035,40.128906
32280,7.062895,4.568137,-12.986150,-86.303711,-16.143799,62.316895,40.109375
32320,3.284845,1.570596,-9.911995,-29.327393,-29.815674,15.625000,40.111328
32360,2.446874,-2.336741,-3.409343,-9.307861,-12.847900,15.533447,40.091797
32400,4.232949,-4.132392,1.331176,-29.937744,1.617432,38.024902,40.117188
32440,3.514688,-3.825934,2.164358,67.413330,67.657471,21.179199,40.089844
32480,4.122815,-1.431733,2.743755,-80.505371,12.634277,-16.204834,40.087891
32520,15.500062,-0.670376,-8.250419,-55.847168,-85.906982,-8.911133,40.136719
32560,15.859192,2.226608,-20.125660,132.171631,68.817139,-110.870361,40.093750
32600,10.189722,1.144428,-17.357962,112.182617,40.039062,-85.937500,40.107422
32640,6.986280,1.446098,-14.470555,99.578857,4.486084,-94.268799,40.115234
32680,4.711789,2.777274,-7.144298,76.019287,55.114746,-75.531006,40.119141
32720,3.126827,4.347870,0.258574,3.387451,72.998047,-41.046143,40.113281
32760,2.145205,5.066131,3.931279,54.534912,171.264648,-73.303223,40.111328
32800,0.225055,3.557784,3.160346,8.056641,45.959473,-15.075684,40.101562
32840,4.884171,2.183512,3.806781,-104.064941,-159.820557,96.313477,40.101562
32880,16.912642,4.285621,-9.064447,-117.858887,-170.501709,87.158203,40.095703
32920,14.518439,4.012682,-19.153614,-28.747559,0.579834,29.022217,40.091797
32960,9.648633,3.438074,-14.441825,-100.097656,-18.432617,83.160400,40.113281
33000,6.014235,1.532289,-11.779472,-62.896729,-38.146973,52.276611,40.082031
33040,2.523489,-1.110910,-6.823475,-34.790039,-24.353027,21.575928,40.115234
33080,2.331953,-3.318364,-0.761356,-37.200928,-7.659912,17.547607,40.121094
33120,2.940080,-4.209007,2.485181,7.171631,27.618408,-8.605957,40.125000
33160,2.279280,-3.313575,1.838747,75.744629,63.659668,36.407471,40.105469
33200,7.441179,0.287304,1.661576,-202.514648,-123.596191,-28.656006,40.103516
33240,20.173544,3.102885,-12.890382,48.278809,39.031982,-22.521973,40.121094
33280,14.168885,2.432509,-19.009962,104.705811,29.663086,-63.659668,40.085938
33320,8.628703,0.905008,-15.796943,82.855225,18.066406,-67.474365,40.113281
33360,7.015011,1.910573,-12.124237,92.987061,3.570557,-68.725586,40.119141
33400,4.065354,3.251326,-4.975151,39.672852,32.653809,-36.956787,40.111328
33440,3.169923,5.137957,1.829170,-19.073486,98.175049,-9.155273,40.099609
33480,1.082179,4.817134,4.060566,39.855957,98.602295,-29.663086,40.099609
33520,-0.785298,2.044648,2.398990,-25.177002,-32.409668,20.294189,40.095703
33560,6.071695,0.373495,3.112462,-134.918213,-196.533203,113.861084,40.101562
33600,19.057846,2.671929,-11.971008,-84.869385,-96.435547,92.407227,40.103516
33640,13.503298,4.371812,-20.068199,2.014160,2.502441,18.890381,40.121094
33680,8.068460,4.740520,-15.026010,-88.562012,-12.573242,74.188232,40.095703
33720,4.946421,2.978387,-12.258312,-56.549072,-39.337158,49.652100,40.123047
33760,2.509123,-0.478840,-6.722919,-33.874512,-23.620605,25.756836,40.109375
33800,3.787627,-3.323152,-0.339977,-36.621094,-3.814697,34.484863,40.109375
33840,4.252102,-4.429273,2.499547,19.317627,58.380127,31.066895,40.099609
33880,2.638410,-2.930503,2.767697,21.911621,106.781006,10.253906,40.095703
33920,8.619126,-0.847547,-0.521936,-105.590820,-140.777588,-20.477295,40.101562
33960,18.444929,3.102885,-15.418659,68.267822,69.305420,-60.943604,40.099609
34000,14.053964,3.969586,-18.339584,103.698730,47.393799,-68.572998,40.109375
34040,8.054094,2.116474,-14.719552,94.055176,30.151367,-64.666748,40.101562
34080,5.717354,2.288857,-10.903194,89.050293,12.817383,-58.410645,40.083984
34120,3.203442,3.145981,-3.797204,25.817871,32.623291,-18.981934,40.095703
34160,2.892196,4.745308,2.451663,-21.850586,104.614258,-8.026123,40.121094
34200,0.924162,4.113238,4.462792,38.543701,128.540039,-27.496338,40.111328
34240,0.316035,1.345541,3.758897,-22.186279,-54.016113,15.045166,40.117188
34280,9.212888,2.633622,0.541090,-93.658447,-285.522461,63.354492,40.105469
34320,19.843143,4.558560,-17.046717,-39.031982,-29.052734,75.103760,40.097656
34360,11.779472,4.845864,-19.196709,-53.710938,-13.458252,47.424316,40.119141
34400,6.708553,4.817134,-13.297397,-106.140137,-21.606445,81.176758,40.103516
34440,3.744531,1.733402,-9.983821,-56.640625,-29.815674,41.595459,40.101562
34480,2.858677,-2.001553,-3.811569,-41.717529,-6.835938,38.330078,40.101562
34520,3.778050,-4.467580,1.503559,-31.738281,12.268066,42.694092,40.101562
34560,3.672705,-4.165911,2.700660,54.229736,60.180664,50.506592,40.105469
34600,4.199430,-2.590526,2.743755,-74.523926,-2.929688,-14.739990,40.097656
34640,15.945383,-0.445322,-8.643068,-49.743652,-44.158936,3.631592,40.080078
34680,16.620548,3.739743,-19.618090,161.041260,77.789307,-150.817871,40.097656
34720,9.452309,3.031059,-16.357185,119.323730,21.423340,-69.427490,40.082031
34760,5.525817,3.045424,-12.559982,86.975098,-6.439209,-62.927246,40.101562
34800,4.448427,3.409343,-5.846641,65.368652,25.360107,-53.802490,40.089844
34840,4.122815,5.023035,0.809240,-18.615723,80.444336,-15.808105,40.097656
34880,2.149993,5.204995,4.180276,50.842285,188.537598,-41.564941,40.107422
34920,-0.574608,1.982399,2.983175,-8.575439,39.215088,19.561768,40.109375
34960,3.715801,0.043096,2.676718,-93.811035,-230.865479,101.135254,40.119141
35000,19.091364,2.418144,-10.496181,-99.121094,-197.784424,98.266602,40.107422
35040,15.969325,5.621585,-21.054609,14.770508,18.829346,12.725830,40.097656
35080,7.350199,6.526594,-14.824897,-75.775146,-8.789062,49.652100,40.097656
35120,3.064578,3.763685,-11.793838,-87.493896,-44.342041,64.666748,40.089844
35160,2.284068,-0.967257,-6.708553,-53.192139,-26.947021,44.158936,40.109375
35200,4.180276,-4.888960,-0.670376,-29.235840,-7.202148,57.434082,40.097656
35240,4.223372,-5.391742,1.800440,43.762207,48.767090,72.113037,40.101562
35280,2.806004,-2.662352,2.935291,8.697510,96.008301,5.798340,40.099609
35320,10.591949,-1.388637,-2.509123,-115.234375,-163.848877,-20.874023,40.085938
35360,17.961302,2.288857,-17.875111,106.231689,70.098877,-105.499268,40.085938
35400,12.301409,2.786851,-18.215086,123.901367,37.658691,-108.428955,40.091797
35440,5.942409,2.173935,-15.442601,114.532471,12.023926,-86.425781,40.099609
35480,3.471592,3.031059,-10.170568,39.886475,14.556885,-60.211182,40.099609
35520,3.768473,4.098873,-1.881842,-30.914307,65.032959,-11.657715,40.099609
35560,3.840300,5.458780,3.859453,19.958496,194.274902,-42.846680,40.082031
35600,0.416591,3.390190,2.954445,-7.781982,91.735840,-5.584717,40.082031
35640,-0.359130,0.105345,2.964022,-38.970947,-47.302246,3.509521,40.103516
35680,10.170568,-0.689530,0.277727,-43.914795,-379.089355,58.013916,40.109375
35720,19.235016,4.525041,-17.980455,-58.227539,-23.437500,96.313477,40.080078
35760,10.496181,6.684611,-18.770542,-50.109863,-16.693115,38.757324,40.083984
35800,4.817134,4.774038,-13.886370,-86.029053,-33.416748,71.960449,40.089844
35840,2.006341,1.063026,-11.133038,-66.101074,-51.635742,52.825928,40.099609
35880,2.662352,-2.777274,-4.635174,-46.447754,-26.977539,39.703369,40.107422
35920,5.147533,-5.157111,0.928950,-36.621094,-11.688232,67.901611,40.099609
35960,4.175488,-4.232949,2.504335,62.042236,63.079834,24.078369,40.095703
36000,4.400543,-1.335965,3.050213,-67.047119,51.361084,34.729004,40.115234
36040,14.374787,0.248997,-8.058883,-62.744141,-78.277588,-15.502930,40.109375
36080,15.466543,3.524265,-21.614853,120.117188,62.255859,-123.382568,40.107422
36120,8.255207,2.303222,-17.803284,109.405518,14.984131,-76.049805,40.105469
36160,3.189077,2.178724,-13.843274,70.495605,-0.854492,-66.894531,40.103516
36200,3.284845,3.404555,-7.101202,-11.383057,43.609619,-31.219482,40.089844
36240,4.429273,4.520253,0.272939,-42.877197,121.643066,-5.187988,40.083984
36280,2.422932,4.343082,4.285621,27.160645,259.521484,-43.121338,40.089844
36320,-0.244209,1.881842,3.198653,-38.299561,-3.997803,12.969971,40.095703
36360,4.553771,-0.761356,3.562572,-112.304688,-274.200439,99.761963,40.101562
36400,18.430565,1.728614,-11.410766,-67.565918,-186.279297,72.265625,40.099609
36440,13.206416,5.889736,-22.218191,-1.281738,9.765625,18.066406,40.101562
36480,6.105214,6.282385,-16.165649,-71.014404,-29.846191,59.478760,40.091797
36520,2.896984,3.653552,-12.679692,-71.502686,-47.760010,60.150146,40.091797
36560,2.762909,-1.053449,-6.502652,-47.607422,-16.845703,45.288086,40.095703
36600,5.185841,-4.841076,0.014365,-50.811768,0.915527,75.683594,40.113281
36640,4.860229,-4.774038,2.820370,14.465332,34.301758,-1.892090,40.095703
36680,6.349423,-2.054225,1.862689,-34.698486,-52.307129,24.871826,40.119141
36720,16.299725,0.876278,-11.405977,-9.704590,33.325195,-15.655518,40.109375
36760,14.666880,4.702212,-20.556616,148.162842,89.324951,-123.443604,40.085938
36800,7.235278,3.600879,-16.385916,134.307861,56.762695,-74.615479,40.078125
36840,3.227384,3.045424,-12.986150,68.298340,9.490967,-55.938721,40.095703
36880,3.749320,3.677494,-5.851429,29.266357,50.781250,-27.923584,40.109375
36920,3.979163,5.142745,1.810017,-20.172119,145.294189,-7.720947,40.097656
36960,1.513135,4.778827,4.548983,52.734375,204.254150,-29.357910,40.119141
37000,-1.283292,1.920150,2.111686,-16.326904,-13.519287,35.675049,40.091797
37040,4.343082,0.469264,3.011906,-152.343750,-264.343262,90.270996,40.097656
37080,20.216639,4.022259,-12.306197,-60.943604,-171.112061,52.154541,40.083984
37120,13.268666,5.377377,-21.241358,-9.796143,2.990723,26.824951,40.099609
37160,7.364564,6.047753,-14.858416,-88.958740,-31.921387,75.592041,40.076172
37200,4.027047,3.605668,-11.453861,-63.629150,-55.480957,48.034668,40.091797
37240,2.442086,-0.684742,-5.118803,-33.355713,-20.019531,32.928467,40.091797
37280,3.955221,-3.840300,1.268927,-43.670654,8.605957,43.365479,40.089844
37320,3.792415,-4.735731,2.810793,33.782959,-3.448486,-1.586914,40.091797
37360,1.240196,-3.576937,0.895431,47.119141,25.512695,-34.301758,40.062500
37400,11.348516,0.445322,-3.323152,-149.902344,-117.614746,9.979248,40.107422
37440,18.090588,5.434838,-18.780119,103.698730,69.458008,-73.455811,40.072266
37480,10.821792,5.372589,-19.139248,103.790283,25.146484,-62.225342,40.076172
37520,5.961562,2.877831,-15.327680,96.069336,29.632568,-87.615967,40.083984
37560,5.181053,2.959233,-10.491392,77.301025,27.191162,-65.155029,40.105469
37600,4.285621,4.199430,-2.264915,16.632080,85.571289,-8.087158,40.085938
37640,2.379837,5.468357,3.371036,28.503418,162.414551,-32.104492,40.070312
37680,-0.536301,3.179500,2.973598,9.368896,77.667236,1.190186,40.076172
37720,0.775721,0.608127,3.505111,-38.818359,-58.654785,32.287598,40.099609
37760,14.580688,4.458004,-3.811569,-96.069336,-312.500000,23.468018,40.082031
37800,17.970879,5.923255,-21.140800,15.136719,26.062012,29.998779,40.091797
37840,9.150639,6.239290,-17.176003,-77.545166,-14.678955,75.317383,40.072266
37880,4.821922,4.577713,-12.483368,-76.324463,-36.834717,63.903809,40.117188
37920,2.370260,0.416591,-7.819463,-19.989014,-18.402100,21.545410,40.101562
37960,2.801216,-3.418920,-1.130063,-13.946533,6.805420,33.691406,40.097656
38000,3.576937,-4.955997,2.571373,10.101318,13.824463,30.548096,40.076172
38040,2.662352,-3.682282,2.288857,70.251465,4.974365,13.092041,40.085938
38080,6.253655,-0.464475,1.484405,-131.866455,-65.734863,-22.064209,40.105469
38120,19.172768,2.614468,-13.924677,20.233154,44.982910,-7.446289,40.083984
38160,14.484921,4.826711,-21.456835,152.038574,42.083740,-104.583740,40.076172
38200,7.120356,2.580950,-16.381128,133.605957,26.763916,-91.491699,40.082031
38240,4.161122,2.863465,-11.856087,77.819824,20.599365,-74.127197,40.083984
38280,3.462016,4.228160,-4.290410,27.923584,53.894043,-18.585205,40.078125
38320,3.112462,5.602432,2.528277,-1.464844,111.968994,-23.651123,40.085938
38360,0.588974,4.429273,3.265691,18.707275,108.551025,-14.373779,40.076172
38400,-1.211466,1.288081,2.513912,-16.937256,9.033203,12.695312,40.091797
38440,7.493851,0.967257,3.236961,-104.949951,-300.781250,88.470459,40.085938
38480,20.427328,4.707001,-16.390705,-45.715332,-79.803467,53.924561,40.085938
38520,12.152967,6.272809,-21.753717,-15.655518,15.289307,23.834229,40.072266
38560,5.358223,5.363012,-14.346057,-84.716797,-34.484863,74.310303,40.082031
38600,2.753332,2.197877,-10.438720,-57.189941,-38.421631,57.312012,40.068359
38640,3.323152,-1.393425,-4.089296,-33.172607,-9.185791,39.306641,40.099609
38680,4.448427,-3.629610,0.909797,-23.559570,41.748047,33.233643,40.058594
38720,2.346318,-3.222595,2.293645,63.415527,61.157227,-58.380127,40.091797
38760,3.711013,-2.279280,3.466804,-81.085205,59.844971,38.055420,40.093750
38800,14.848839,0.311246,-6.004658,-29.418945,-133.819580,-19.500732,40.076172
38840,16.141708,5.147533,-22.227768,123.992920,63.354492,-88.562012,40.101562
38880,9.040505,4.888960,-18.938135,102.935791,9.399414,-61.950684,40.099609
38920,4.893748,2.930503,-13.259089,93.322754,15.075684,-86.151123,40.099609
38960,4.553771,3.471592,-7.038953,52.795410,40.771484,-45.227051,40.091797
39000,3.830723,4.659117,-0.416591,-1.556396,89.996338,-6.958008,40.099609
39040,2.049437,4.247314,3.610456,48.370361,195.983887,-31.280518,40.080078
39080,-0.665588,1.972822,2.580950,-11.138916,112.762451,11.352539,40.105469
39120,1.340753,0.105345,3.821146,-67.138672,-98.510742,21.423340,40.052734
39160,17.017986,3.682282,-5.693412,-61.889648,-326.721191,10.223389,40.066406
39200,17.707516,5.597643,-22.064962,55.023193,38.360596,4.669189,40.085938
39240,8.054094,6.665458,-16.405069,-65.429688,-30.273438,55.450439,40.058594
39280,4.333505,5.018247,-11.444284,-78.247070,-43.579102,62.622070,40.060547
39320,2.753332,0.550666,-7.062895,-29.266357,-22.094727,30.883789,40.089844
39360,3.988740,-3.141193,-0.928950,-25.329590,11.932373,39.245605,40.093750
39400,3.720589,-4.247314,1.977611,14.312744,37.811279,20.935059,40.076172
39440,2.370260,-3.002329,2.173935,76.690674,88.836670,13.824463,40.087891
39480,5.884948,-0.627281,1.527501,-154.907227,-120.513916,-30.731201,40.095703
39520,19.340361,1.982399,-13.862428,35.186768,24.353027,-20.019531,40.074219
39560,14.676456,4.831499,-21.284452,145.965576,59.661865,-109.680176,40.089844
39600,7.603985,3.016694,-16.290148,109.802246,28.839111,-79.040527,40.093750
39640,5.061342,2.786851,-11.817780,85.235596,17.913818,-73.577881,40.080078
39680,3.797204,3.725378,-4.376601,24.780273,55.999756,-34.790039,40.085938
39720,3.524265,5.181053,2.116474,-9.246826,115.142822,-19.195557,40.101562
39760,1.039083,4.175488,3.438074,46.905518,172.698975,-34.637451,40.095703
39800,-1.584962,1.288081,2.250550,-2.777100,22.918701,10.620117,40.103516
39840,7.527370,1.666364,2.738967,-104.980469,-364.990234,49.224854,40.083984
39880,20.537462,4.774038,-15.519216,-42.541504,-59.631348,43.121338,40.099609
39920,12.124237,6.042965,-19.843143,-25.238037,-2.227783,26.031494,40.082031
39960,7.082048,5.382165,-12.981361,-77.301025,-27.923584,66.894531,40.072266
40000,3.543418,2.250550,-9.600749,-39.825439,-29.144287,41.809082,40.115234
40040,2.236184,-1.417367,-3.892972,-16.571045,-14.587402,29.022217,40.091797
40080,3.711013,-3.088520,1.177947,-30.120850,23.559570,32.684326,40.109375
40120,3.270479,-2.513912,2.408567,3.845215,27.221680,-32.623291,40.105469
40160,6.038177,-1.446098,2.317587,-61.584473,-35.736084,10.894775,40.095703
40200,15.203181,0.737414,-6.569689,3.906250,8.850098,-22.735596,40.085938
40240,15.471332,4.443638,-19.598934,114.013672,20.568848,-86.029053,40.099609
40280,11.377247,3.825934,-19.029116,129.882812,59.600830,-90.850830,40.085938
40320,5.085284,2.207454,-13.790602,81.909180,17.730713,-63.110352,40.072266
40360,3.356671,4.132392,-6.531382,70.983887,46.752930,-45.654297,40.089844
40400,2.638410,5.640739,0.028730,-1.159668,75.164795,-16.601562,40.091797
40440,1.307234,5.252879,3.457227,45.074463,133.270264,-34.393311,40.082031
40480,-0.780510,2.796427,2.537854,-11.871338,20.629883,17.608643,40.082031
40520,2.810793,0.603339,3.993528,-93.963623,-77.575684,78.887939,40.093750
40560,15.974113,4.936844,-5.497087,-42.877197,-229.095459,6.561279,40.083984
40600,16.050728,6.914454,-21.136013,-25.543213,-4.241943,60.943604,40.091797
40640,9.528923,6.086061,-16.759413,-71.075439,-24.566650,76.446533,40.080078
40680,5.884948,3.849876,-12.928689,-74.798584,-40.588379,75.195312,40.091797
40720,2.719813,0.837971,-8.681376,-41.259766,-21.392822,45.623779,40.066406
40760,3.093309,-2.796427,-2.197877,-24.383545,11.016846,46.020508,40.068359
40800,3.457227,-4.505888,1.680730,0.213623,42.327881,24.658203,40.097656
40840,2.097321,-3.811569,2.451663,39.825439,34.667969,-49.896240,40.095703
40880,7.829040,-1.264138,0.383072,-84.655762,-138.946533,-22.918701,40.093750
40920,17.319654,0.129287,-15.255854,81.817627,67.657471,-40.802002,40.080078
40960,12.689269,4.323928,-20.728998,130.676270,51.116943,-109.619141,40.095703
41000,7.532158,3.859453,-15.595830,120.147705,39.642334,-90.423584,40.076172
41040,4.898537,3.275268,-11.511322,118.286133,18.188477,-88.378906,40.097656
41080,2.715025,4.084508,-4.721366,58.807373,54.138184,-43.609619,40.082031
41120,2.284068,6.947973,2.671929,-2.136230,153.686523,-26.153564,40.085938
41160,0.153229,6.095637,3.940856,10.711670,158.081055,-41.839600,40.085938
41200,-1.829170,1.977611,2.801216,-20.233154,-12.664795,8.636475,40.058594
41240,10.697293,2.829947,1.953669,-94.146729,-386.535645,94.604492,40.074219
41280,17.305290,5.152322,-16.462530,-57.464600,-38.726807,34.698486,40.089844
41320,11.875240,6.406884,-18.655621,-55.847168,-10.955811,67.810059,40.072266
41360,8.125920,4.850653,-14.025233,-78.063965,-24.810791,73.974609,40.095703
41400,4.276044,2.149993,-10.568007,-48.095703,-37.902832,36.621094,40.083984
41440,2.030283,-1.747767,-4.687847,-14.556885,-23.864746,13.854980,40.080078
41480,3.538630,-4.874595,0.732626,-3.723145,16.571045,17.700195,40.091797
41520,2.959233,-5.319916,2.724602,64.971924,43.914795,-61.065674,40.105469
41560,4.644751,-1.273715,1.379060,-44.982910,-78.399658,3.570557,40.078125
41600,14.743494,1.307234,-8.279149,-4.516602,41.992188,-43.762207,40.095703
41640,14.197616,5.535394,-21.638796,147.949219,72.326660,-113.922119,40.074219
41680,8.283937,4.467580,-17.472883,113.525391,37.597656,-69.030762,40.107422
41720,5.353435,3.572149,-13.038822,114.624023,28.503418,-82.031250,40.095703
41760,3.605668,4.386178,-7.426814,81.024170,35.247803,-48.553467,40.097656
41800,2.729390,6.253655,-0.282516,11.016846,71.411133,-17.517090,40.113281
41840,1.182736,6.670246,3.514688,25.146484,110.504150,-33.264160,40.095703
41880,-1.264138,2.906561,2.844312,-6.683350,5.676270,25.695801,40.095703
41920,4.438850,0.909797,4.027047,-95.031738,-132.324219,105.163574,40.103516
41960,16.180016,4.759673,-10.817003,-101.074219,-115.234375,-2.075195,40.085938
42000,15.236700,6.416461,-20.853497,-22.644043,-0.091553,64.270020,40.103516
42040,8.930372,6.426037,-15.504850,-79.620361,-21.301270,78.033447,40.082031
42080,5.358223,3.782839,-11.927913,-70.037842,-39.947510,60.607910,40.087891
42120,2.298434,0.450110,-7.671022,-20.996094,-29.388428,10.620117,40.105469
42160,2.782062,-2.825158,-1.776498,-15.014648,-10.559082,13.153076,40.115234
42200,3.557784,-4.874595,1.623269,16.540527,12.329102,-9.368896,40.095703
42240,1.752556,-4.074931,1.972822,52.429199,22.979736,-61.614990,40.097656
42280,6.574478,-0.828394,0.574608,-73.333740,-73.455811,-12.207031,40.089844
42320,17.166426,1.043872,-14.982914,70.739746,91.430664,-41.046143,40.105469
42360,12.186486,5.252879,-22.658726,126.434326,36.468506,-114.501953,40.109375
42400,6.847417,4.137180,-16.610971,118.591309,44.097900,-99.426270,40.070312
42440,4.132392,4.572925,-11.492168,98.419189,24.902344,-87.280273,40.111328
42480,3.399766,5.659893,-4.635174,45.654297,75.134277,-43.853760,40.095703
42520,2.504335,6.028600,1.742979,13.763428,100.616455,-26.397705,40.093750
42560,-0.287304,4.290410,2.906561,8.911133,82.122803,0.671387,40.083984
42600,-0.526724,1.599327,3.069367,-13.305664,-4.730225,30.456543,40.066406
42640,9.174581,4.467580,2.135628,-93.475342,-260.253906,17.150879,40.087891
42680,17.463306,8.690952,-18.373104,-84.014893,-42.968750,49.346924,40.101562
42720,10.620679,7.479486,-20.288465,-54.962158,-33.325195,79.986572,40.091797
42760,5.573701,3.878607,-13.943830,-77.911377,-35.736084,73.730469,40.103516
42800,3.423708,1.154005,-10.295067,-49.163818,-41.015625,49.438477,40.080078
42840,2.863465,-2.293645,-4.572925,-3.845215,2.655029,31.738281,40.095703
42880,4.036624,-4.908113,0.794875,7.293701,46.569824,37.078857,40.095703
42920,2.327164,-3.730166,2.954445,52.551270,61.798096,-56.701660,40.089844
42960,3.552995,-0.852336,1.393425,-36.804199,-129.760742,-36.560059,40.109375
43000,15.600618,0.675165,-11.559206,0.274658,23.498535,-59.722900,40.099609
43040,13.364434,5.803545,-22.898146,115.020752,48.034668,-90.545654,40.105469
43080,6.957550,5.008670,-17.017986,86.212158,39.093018,-83.770752,40.119141
43120,3.725378,4.108450,-12.349293,74.981689,13.305664,-69.396973,40.101562
43160,3.016694,4.687847,-6.473921,47.088623,28.137207,-40.344238,40.111328
43200,3.074155,6.172252,0.162806,-25.451660,62.744141,-19.073486,40.109375
43240,0.814029,4.663905,3.035848,1.159668,52.917480,-10.589600,40.095703
43280,-1.053449,1.307234,2.221819,-9.643555,-41.900635,30.273438,40.095703
43320,7.058106,-1.580173,1.723825,23.193359,-31.311035,-27.038574,40.101562
43360,18.435352,4.074931,-14.255077,-40.161133,1.403809,52.734375,40.109375
43400,11.473015,7.977480,-19.838356,-6.256104,-32.287598,20.568848,40.082031
43440,6.291962,6.761226,-14.796166,-68.603516,-18.768311,71.807861,40.144531
43480,4.108450,3.979163,-11.798626,-83.770752,-36.926270,81.634521,40.087891
43520,2.260126,0.464475,-6.584054,-44.677734,-32.928467,36.773682,40.109375
43560,2.987964,-2.111686,-0.861913,-27.648926,10.498047,7.598877,40.099609
43600,3.126827,-3.873818,1.551443,-4.852295,17.730713,-23.376465,40.115234
43640,1.249773,-4.419696,0.924162,6.530762,29.052734,-71.289062,40.111328
43680,10.903194,-2.092532,-3.160346,28.594971,-103.515625,-87.524414,40.111328
43720,15.394717,6.981492,-18.229452,48.828125,85.754395,-23.284912,40.115234
43760,9.835381,9.064447,-19.967642,72.357178,13.763428,-57.312012,40.105469
43800,5.880159,3.936068,-14.403518,60.272217,25.177002,-45.867920,40.101562
43840,4.453215,3.390190,-9.337387,50.659180,21.667480,-40.588379,40.130859
43880,3.160346,4.912902,-2.221819,4.058838,44.281006,-12.145996,40.111328
43920,1.436521,5.190629,2.801216,-17.395020,45.837402,9.063721,40.115234
43960,-0.823605,2.815581,2.719813,-12.359619,-32.012939,37.628174,40.115234
44000,2.710236,1.015141,2.461239,-45.928955,-53.283691,45.379639,40.121094
44040,13.402741,3.514688,-7.594408,-53.894043,-73.364258,9.765625,40.138672
44080,14.982914,7.819463,-20.690691,-25.817871,-28.808594,64.331055,40.115234
44120,8.331821,7.134721,-17.401058,-64.086914,-24.261475,65.093994,40.101562
44160,3.825934,5.291186,-12.914324,-97.839355,-42.602539,95.062256,40.121094
44200,1.953669,1.991976,-8.738836,-46.142578,-49.804688,49.957275,40.119141
44240,2.624045,-1.900996,-2.849100,-14.953613,-6.713867,32.562256,40.123047
44280,4.031836,-3.629610,1.168370,-23.895264,27.435303,25.695801,40.125000
44320,2.030283,-4.616021,1.000776,25.939941,8.331299,-46.112061,40.091797
44360,4.161122,-3.562572,-0.248997,10.864258,-24.658203,-84.350586,40.093750
44400,15.763424,2.408567,-12.095507,18.218994,57.769775,0.122070,40.103516
44440,11.688493,10.654198,-21.782448,86.364746,41.442871,-77.728271,40.107422
44480,6.622362,7.206547,-16.970102,75.378418,27.191162,-55.908203,40.082031
44520,4.108450,3.926491,-12.387600,66.589355,21.057129,-55.908203,40.093750
44560,3.495534,4.467580,-6.033388,41.748047,51.116943,-35.522461,40.099609
44600,2.145205,5.875371,0.699107,-15.930176,49.621582,-0.793457,40.119141
44640,-0.177171,4.161122,3.059790,4.882812,8.514404,17.822266,40.103516
44680,-0.110133,1.426944,2.825158,-10.437012,-25.848389,51.910400,40.101562
44720,8.805874,0.742203,0.387861,-7.354736,-76.690674,-19.927979,40.103516
44760,16.395493,6.742072,-15.035586,-50.476074,-1.495361,49.987793,40.089844
44800,9.667787,8.695741,-20.187908,-25.726318,-41.076660,44.891357,40.119141
44840,4.908113,7.608773,-15.231912,-81.542969,-25.482178,75.012207,40.091797
44880,3.222595,5.046977,-11.702858,-76.599121,-46.508789,69.702148,40.085938
44920,2.006341,0.368707,-6.497863,-18.218994,-38.421631,22.888184,40.105469
44960,3.466804,-3.653552,-0.833182,-12.908936,17.852783,32.073975,40.085938
45000,3.849876,-4.845864,1.599327,24.475098,24.810791,-15.167236,40.099609
45040,2.188300,-3.897760,0.727837,16.357422,24.688721,-54.901123,40.123047
45080,11.161768,0.009577,-5.123591,0.030518,-112.640381,-77.880859,40.097656
45120,13.584701,7.857770,-19.469648,72.937012,92.407227,-62.042236,40.111328
45160,8.513782,8.920795,-19.067423,88.836670,40.679932,-75.012207,40.109375
45200,4.189853,5.128380,-14.039598,67.932129,34.027100,-53.955078,40.117188
45240,3.327940,4.367024,-9.255983,66.070557,28.289795,-59.631348,40.107422
45280,2.518700,5.219360,-2.351106,26.977539,51.147461,-37.933350,40.107422
45320,1.369483,5.679047,2.681506,-14.343262,53.405762,-3.265381,40.095703
45360,-1.120486,2.820370,2.518700,-2.990723,-10.314941,31.921387,40.095703
45400,0.689530,1.254562,2.547431,-33.172607,-58.807373,51.086426,40.113281
45440,12.756307,2.011129,-5.027823,-34.881592,-102.081299,-43.151855,40.083984
45480,16.012421,7.536947,-20.015526,-17.303467,-7.904053,38.940430,40.103516
45520,7.412448,8.671799,-18.655621,-37.475586,-29.174805,38.208008,40.089844
45560,3.754108,7.565677,-13.804967,-94.451904,-37.475586,92.834473,40.109375
45600,2.298434,3.835511,-10.371682,-59.448242,-45.227051,58.349609,40.076172
45640,2.509123,-1.043872,-4.606444,-7.446289,-9.796143,19.165039,40.070312
45680,4.050989,-3.811569,0.363919,-12.664795,36.560059,26.428223,40.074219
45720,2.992752,-4.299986,1.498770,24.230957,31.036377,-37.750244,40.083984
45760,2.767697,-3.102885,0.167594,-6.195068,19.500732,-71.868896,40.080078
45800,13.436260,2.509123,-10.472239,-30.975342,-44.525146,-48.980713,40.087891
45840,11.501745,9.677363,-21.878216,89.691162,57.037354,-79.071045,40.101562
45880,6.904878,7.987057,-17.946936,70.495605,48.858643,-59.722900,40.095703
45920,3.150769,4.979939,-12.708423,60.058594,20.233154,-53.192139,40.066406
45960,2.834735,4.850653,-6.315904,50.964355,47.790527,-44.555664,40.089844
46000,2.188300,5.305551,0.248997,-0.946045,57.739258,-12.878418,40.099609
46040,0.565032,4.347870,3.280056,6.469727,16.479492,11.566162,40.085938
46080,-1.163582,2.135628,2.274492,-12.298584,-53.619385,37.719727,40.076172
46120,5.722142,0.943315,2.001553,-10.986328,-30.700684,-10.803223,40.101562
46160,15.198392,6.157887,-12.971785,-86.151123,-24.749756,71.411133,40.111328
46200,10.984597,8.911219,-21.562180,-11.596680,-38.543701,42.572021,40.091797
46240,5.200206,7.972692,-15.926229,-65.887451,-26.245117,68.328857,40.095703
46280,2.695871,6.033388,-12.143391,-81.756592,-51.269531,87.493896,40.087891
46320,1.565808,1.733402,-7.613562,-35.095215,-33.630371,42.541504,40.087891
46360,3.236961,-2.284068,-2.073379,-11.993408,0.122070,28.411865,40.097656
46400,4.352659,-4.041412,0.876278,1.068115,36.804199,-0.854492,40.074219
46440,2.317587,-4.510676,0.584185,5.859375,46.600342,-54.840088,40.082031
46480,9.840169,-0.761356,-3.734955,5.462646,-124.450684,-96.954346,40.085938
46520,13.359646,7.929596,-17.836803,41.473389,97.778320,-37.139893,40.101562
46560,7.378930,10.515334,-19.316420,77.087402,19.592285,-64.910889,40.087891
46600,4.199430,5.961562,-14.140155,54.199219,21.240234,-40.496826,40.099609
46640,3.485958,4.515464,-9.524135,64.147949,16.662598,-57.159424,40.099609
46680,2.695871,4.625597,-2.925714,30.334473,47.851562,-10.528564,40.111328
46720,1.867477,5.343858,2.279280,-4.699707,37.414551,-1.831055,40.089844
46760,-0.737414,3.179500,2.834735,6.561279,-14.068604,27.801514,40.091797
46800,1.656788,1.177947,2.652776,-16.906738,-50.384521,46.936035,40.101562
46840,11.913548,4.304775,-6.636727,-73.242188,-78.460693,11.871338,40.089844
46880,13.292608,8.604761,-19.967642,-19.866943,-20.385742,52.307129,40.103516
46920,6.497863,8.801085,-18.085800,-37.628174,-34.088135,56.304932,40.109375
46960,3.390190,6.976704,-13.690045,-77.667236,-48.278809,100.982666,40.085938
47000,1.642422,3.289633,-10.194510,-36.193848,-45.806885,54.809570,40.076172
47040,2.475605,-1.024718,-4.539406,4.455566,-7.873535,15.472412,40.099609
47080,4.548983,-3.442862,0.076614,-7.843018,45.959473,27.496338,40.082031
47120,3.045424,-3.509900,1.316811,13.000488,32.379150,-27.313232,40.105469
47160,4.702212,-1.446098,-0.253785,5.218506,-48.858643,-70.739746,40.119141
47200,13.292608,4.970363,-12.885593,-53.741455,39.184570,-17.608643,40.111328
47240,9.868899,9.935937,-21.361067,90.942383,53.222656,-82.244873,40.101562
47280,5.588067,6.651093,-16.438589,57.861328,65.551758,-43.640137,40.121094
47320,3.136404,5.583278,-12.382812,63.659668,34.606934,-54.931641,40.107422
47360,2.207454,5.185841,-6.526594,52.337646,60.058594,-29.846191,40.091797
47400,1.541866,5.042189,0.067038,3.234863,54.382324,-5.462646,40.095703
47440,0.215478,4.060566,3.093309,15.533447,32.165527,5.706787,40.076172
47480,-1.182736,1.867477,2.624045,-5.584717,-40.252686,34.912109,40.082031
47520,6.976704,1.426944,1.029507,-16.571045,-70.526123,-25.939941,40.078125
47560,16.108189,8.269572,-15.040375,-72.967529,5.310059,74.737549,40.113281
47600,9.504981,9.481039,-20.259735,-8.392334,-41.625977,28.228760,40.078125
47640,5.190629,8.178593,-14.144943,-76.995850,-22.491455,76.934814,40.080078
47680,2.820370,6.028600,-11.267113,-67.504883,-46.020508,69.549561,40.087891
47720,0.924162,1.364695,-6.789956,-16.052246,-23.345947,22.674561,40.082031
47760,2.715025,-3.059790,-1.039083,-1.007080,30.364990,18.768311,40.070312
47800,3.797204,-4.917690,1.426944,14.221191,25.207520,8.514404,40.074219
47840,3.404555,-3.428497,0.919373,1.556396,-1.556396,-39.581299,40.080078
47880,10.529699,1.848324,-6.287174,-40.740967,-107.086182,-81.817627,40.058594
47920,12.416330,8.801085,-18.722658,57.952881,90.484619,-63.385010,40.087891
47960,7.627927,9.366117,-18.133684,73.333740,43.914795,-63.140869,40.091797
48000,3.964798,6.004658,-14.068329,56.732178,38.146973,-46.630859,40.072266
48040,3.409343,5.262455,-9.701305,68.878174,38.635254,-61.767578,40.095703
48080,2.207454,4.558560,-3.131616,40.710449,50.140381,-23.620605,40.089844
48120,1.843535,4.601655,2.130840,5.737305,46.569824,-4.272461,40.076172
48160,-0.612916,3.064578,2.710236,16.967773,2.960205,24.597168,40.082031
48200,1.345541,1.369483,2.504335,-11.993408,-54.504395,33.142090,40.080078
48240,12.105083,5.568913,-6.521805,-83.343506,-73.577881,20.233154,40.076172
48280,13.517663,9.059659,-19.689915,-21.179199,-29.876709,53.619385,40.082031
48320,7.058106,8.279149,-17.243040,-33.813477,-16.998291,35.736084,40.085938
48360,3.988740,6.660669,-13.086706,-77.575684,-41.656494,87.188721,40.080078
48400,2.068590,3.567361,-9.145850,-42.144775,-38.024902,44.281006,40.091797
48440,1.948880,-0.617704,-3.840300,-6.317139,-0.518799,4.791260,40.085938
48480,3.495534,-3.720589,0.617704,2.532959,49.835205,0.305176,40.080078
48520,2.547431,-4.367024,1.177947,16.693115,-3.540039,-39.581299,40.099609
48560,4.989516,-2.049437,-0.651223,5.310059,-74.066162,-80.505371,40.089844
48600,14.379576,6.191406,-13.460202,-57.922363,60.729980,-5.920410,40.082031
48640,9.677363,10.979809,-20.494366,85.327148,40.374756,-72.265625,40.105469
48680,5.343858,7.158663,-16.199169,54.229736,41.076660,-32.806396,40.074219
48720,3.241749,4.759673,-11.693281,63.903809,23.437500,-54.748535,40.089844
48760,3.078943,5.013458,-5.525817,49.194336,63.110352,-33.203125,40.080078
48800,1.881842,5.401319,0.541090,0.976562,51.971436,2.990723,40.101562
48840,-0.450110,4.161122,2.705448,1.831055,-1.556396,20.965576,40.091797
48880,-1.048660,1.661576,2.657564,-6.134033,-40.832520,41.809082,40.072266
48920,8.686164,2.379837,-0.517148,-41.015625,-96.496582,-24.108887,40.062500
48960,15.260642,8.595184,-16.879122,-59.112549,-10.742188,80.413818,40.078125
49000,7.781156,8.973468,-19.292477,-7.934570,-36.560059,29.418945,40.070312
49040,4.252102,8.030152,-14.068329,-78.491211,-36.895752,86.456299,40.089844
49080,2.269703,5.870583,-11.338940,-61.126709,-56.732178,69.793701,40.082031
49120,1.493982,1.177947,-6.282385,-18.188477,-30.761719,26.184082,40.082031
49160,4.012682,-2.944868,-1.000776,-1.739502,26.519775,24.108887,40.099609
49200,3.634398,-4.151546,0.608127,6.317139,33.813477,-1.556396,40.085938
49240,2.375048,-3.280056,-0.086191,-1.739502,-5.432129,-41.503906,40.068359
49280,11.003751,2.298434,-7.589619,-53.497314,-99.822998,-62.469482,40.089844
49320,11.688493,9.481039,-19.373880,55.358887,82.153320,-42.327881,40.105469
49360,7.029376,9.634268,-17.956512,62.347412,44.433594,-55.084229,40.074219
49400,4.031836,5.391742,-13.613431,66.711426,34.851074,-58.197021,40.082031
49440,3.016694,4.735731,-8.820239,68.298340,50.659180,-53.680420,40.083984
49480,1.924938,4.793192,-2.236184,29.052734,68.847656,-17.486572,40.085938
49520,1.034295,4.759673,2.298434,14.770508,42.694092,-7.110596,40.091797
49560,-0.919373,2.987964,2.815581,11.444092,-3.967285,14.190674,40.091797
49600,3.620033,1.877054,2.557007,-21.362305,-57.464600,25.146484,40.074219
49640,13.517663,8.259995,-11.109096,-103.088379,-29.418945,76.873779,40.091797
49680,10.769119,10.357317,-20.412964,-12.298584,-40.161133,45.013428,40.095703
49720,6.033388,8.283937,-15.753847,-64.788818,-24.902344,72.540283,40.091797
49760,3.232172,5.985504,-12.152967,-70.617676,-47.790527,82.733154,40.066406
49800,1.335965,2.130840,-7.900866,-26.489258,-32.135010,34.301758,40.066406
49840,2.365471,-2.130840,-2.533065,-1.983643,9.582520,14.801025,40.087891
49880,3.639187,-4.367024,0.900220,18.859863,36.804199,5.737305,40.074219
49920,2.097321,-4.165911,0.895431,10.650635,5.798340,-35.491943,40.091797
49960,8.446744,-0.220267,-2.183512,1.159668,-134.979248,-103.332520,40.078125
50000,13.455414,7.182605,-16.452953,-1.922607,112.854004,-9.002686,40.068359
50040,7.536947,10.907983,-20.154390,75.866699,27.618408,-75.103760,40.066406
50080,4.778827,6.387730,-14.748282,57.678223,44.006348,-52.886963,40.080078
50120,3.356671,4.769250,-10.137050,70.983887,40.405273,-66.589355,40.103516
50160,1.857901,5.118803,-4.170700,43.670654,78.186035,-29.510498,40.078125
50200,0.866701,5.559336,1.580173,-11.108398,39.276123,-3.814697,40.091797
50240,-0.833182,3.438074,2.916138,16.021729,-4.425049,6.378174,40.085938
50280,0.852336,1.063026,3.122039,-10.620117,-57.952881,43.457031,40.072266
50320,11.875240,5.956774,-4.984728,-109.771729,-69.763184,24.230957,40.082031
50360,13.680469,10.874464,-19.416975,-48.004150,-24.658203,68.115234,40.082031
50400,6.311116,10.295067,-17.808073,-42.205811,-39.031982,59.997559,40.064453
50440,3.351882,7.532158,-12.971785,-73.425293,-55.847168,89.172363,40.074219
50480,2.049437,3.519476,-9.567230,-29.113770,-49.133301,50.964355,40.082031
50520,2.312799,-0.699107,-4.448427,-0.274658,-10.437012,23.040771,40.085938
50560,4.022259,-3.936068,-0.057461,5.706787,34.393311,18.493652,40.093750
50600,2.748544,-4.812346,0.919373,46.295166,8.972168,-32.775879,40.058594
50640,3.979163,-0.866701,0.818817,-14.129639,-4.455566,-59.020996,40.066406
50680,13.991714,6.349423,-10.414778,-115.112305,-40.832520,-12.634277,40.085938
50720,9.749189,9.806650,-21.997925,96.710205,57.708740,-77.545166,40.074219
50760,5.094861,7.307104,-16.960526,71.105957,61.981201,-74.890137,40.091797
50800,2.863465,5.621585,-12.497733,83.770752,46.844482,-84.442139,40.089844
50840,1.996764,6.301539,-6.957550,64.849854,67.901611,-45.135498,40.062500
50880,1.843535,6.033388,-0.229843,15.319824,73.394775,-9.460449,40.080078
50920,0.105345,4.955997,3.107674,17.547607,32.989502,16.479492,40.082031
50960,-1.872266,2.341529,2.561796,6.835938,-43.945312,49.591064,40.078125
51000,5.698200,2.873042,2.820370,-51.177979,-88.989258,26.000977,40.070312
51040,14.499286,10.137050,-15.849615,-121.948242,-58.013916,86.303711,40.062500
51080,8.628703,10.697293,-21.006725,-19.012451,-37.536621,51.086426,40.064453
51120,4.587290,8.288726,-14.810532,-74.279785,-40.069580,85.357666,40.039062
51160,2.834735,4.994305,-11.856087,-51.910400,-45.837402,63.415527,40.076172
51200,1.968034,0.708684,-6.976704,-4.058838,-15.655518,20.751953,40.082031
51240,3.533842,-2.920926,-1.379060,13.793945,38.055420,12.512207,40.066406
51280,3.529053,-4.620809,1.350330,44.311523,17.425537,-13.580322,40.058594
51320,1.886631,-2.968810,1.417367,20.904541,25.756836,-42.785645,40.082031
51360,9.825804,3.936068,-3.605668,-91.217041,-141.082764,-84.259033,40.062500
51400,13.546393,8.389283,-18.856733,38.269043,106.048584,-48.156738,40.066406
51440,7.067683,9.854534,-20.163967,81.390381,56.762695,-74.035645,40.042969
51480,3.222595,6.081272,-14.805743,74.462891,58.776855,-71.960449,40.039062
51520,1.963245,5.434838,-9.993398,74.645996,44.494629,-62.561035,40.062500
51560,1.168370,5.439626,-3.126827,36.407471,61.798096,-19.470215,40.058594
51600,1.350330,5.707777,2.657564,0.305176,60.394287,-5.004883,40.041016
51640,-0.981623,3.529053,3.059790,21.820068,-10.131836,28.167725,40.058594
51680,2.063802,1.996764,3.500323,-8.605957,-53.833008,43.792725,40.046875
51720,12.152967,6.550536,-7.364564,-98.815918,-99.975586,42.968750,40.044922
51760,11.415554,9.921572,-20.187908,-21.270752,-29.663086,57.342529,40.060547
51800,6.440403,8.236053,-16.907852,-40.252686,-24.261475,58.654785,40.072266
51840,3.912126,5.679047,-13.488933,-59.783936,-32.897949,94.573975,40.058594
51880,1.628057,2.987964,-9.792285,-37.445068,-36.437988,58.990479,40.068359
51920,2.140416,-0.579397,-4.386178,-5.371094,-11.291504,15.502930,40.058594
51960,3.758897,-2.844312,-0.177171,24.444580,32.928467,-4.669189,40.066406
52000,2.006341,-3.122039,1.230620,25.360107,24.108887,-29.785156,40.058594
52040,5.674258,-1.077391,1.096544,-1.892090,-45.532227,-72.937012,40.072266
52080,13.594277,5.521029,-13.081918,-49.987793,58.654785,10.040283,40.062500
52120,9.045294,9.457097,-22.481554,79.925537,36.804199,-75.408936,40.042969
52160,5.650316,5.463568,-16.333244,75.927734,63.995361,-65.032959,40.076172
52200,3.347094,4.515464,-11.511322,86.151123,46.478271,-93.872070,40.062500
52240,2.030283,5.755661,-6.531382,61.248779,61.035156,-61.401367,40.076172
52280,1.766921,5.726931,-0.143652,4.241943,74.249268,-19.165039,40.060547
52320,0.172383,4.414908,2.561796,3.784180,34.301758,4.791260,40.035156
52360,-0.895431,2.499547,2.782062,-6.652832,-32.226562,21.820068,40.062500
52400,6.938396,2.868254,0.943315,-9.124756,-55.358887,11.962891,40.076172
52440,15.059528,11.563994,-16.596605,-102.355957,-26.885986,122.711182,40.041016
52480,8.446744,11.042058,-20.096930,-23.406982,-48.980713,48.370361,40.080078
52520,4.319140,6.148310,-14.116213,-69.213867,-38.299561,85.845947,40.060547
52560,2.202666,3.112462,-10.381259,-59.020996,-41.961670,73.638916,40.037109
52600,1.173159,0.081403,-5.477933,-16.662598,-23.712158,23.345947,40.066406
52640,3.112462,-2.839523,-0.320823,-3.540039,35.980225,9.521484,40.050781
52680,3.256114,-4.213795,1.374272,15.747070,22.521973,-23.620605,40.070312
52720,5.626374,-3.217807,0.756568,20.935059,-41.564941,-53.741455,40.082031
52760,13.239936,4.774038,-10.261548,-52.032471,4.669189,-13.916016,40.072266
52800,9.955091,10.386047,-21.059399,81.390381,45.654297,-76.171875,40.046875
52840,6.574478,7.378930,-16.850391,64.910889,43.914795,-68.542480,40.062500
52880,4.271256,4.797980,-12.143391,77.423096,39.581299,-74.127197,40.062500
52920,1.781286,5.286397,-7.340622,71.197510,60.394287,-48.187256,40.052734
52960,0.847547,6.153099,-0.076614,2.716064,68.756104,-0.671387,40.060547
53000,0.272939,5.343858,3.509900,10.711670,10.375977,24.932861,40.080078
53040,-1.058237,2.643199,2.844312,-3.387451,-76.263428,39.154053,40.062500
53080,7.067683,2.312799,-0.296881,-41.107178,-95.672607,22.766113,40.072266
53120,13.675680,9.466674,-14.226347,-119.476318,11.505127,115.447998,40.068359
53160,8.576031,8.652645,-19.512743,-21.240234,-52.612305,44.403076,40.072266
53200,5.367800,7.326257,-15.298949,-67.230225,-24.200439,77.514648,40.072266
53240,2.772485,4.213795,-12.492945,-54.809570,-47.851562,70.404053,40.076172
53280,1.364695,0.234632,-7.723695,-7.385254,-33.386230,16.113281,40.068359
53320,3.658340,-3.045424,-1.690306,-0.946045,15.441895,7.080078,40.078125
53360,3.548207,-4.338294,1.302446,38.085938,26.916504,-21.911621,40.078125
53400,2.686294,-2.365471,2.442086,-4.852295,58.715820,-36.315918,40.076172
53440,9.600749,5.401319,-2.964022,-114.013672,-180.847168,-43.945312,40.054688
53480,13.192051,9.543288,-18.085800,3.417969,67.474365,-22.827148,40.070312
53520,8.259995,8.748413,-20.489578,75.531006,47.912598,-73.730469,40.066406
53560,4.343082,5.118803,-14.973337,58.227539,64.361572,-69.519043,40.052734
53600,2.829947,5.353435,-10.769119,57.250977,49.987793,-74.493408,40.039062
53640,1.565808,5.094861,-4.860229,29.113770,58.319092,-33.264160,40.052734
53680,1.747767,4.501099,1.335965,1.159668,94.177246,-9.704590,40.058594
53720,-0.407014,2.954445,3.160346,19.500732,26.733398,10.375977,40.076172
53760,0.818817,1.752556,4.199430,9.277344,-17.822266,31.250000,40.066406
53800,11.324574,7.331046,-2.925714,-117.980957,-154.937744,9.368896,40.066406
53840,13.737929,10.740389,-19.833567,-29.052734,-19.989014,63.568115,40.056641
53880,7.316680,9.059659,-17.219099,-29.113770,-22.949219,46.112061,40.078125
53920,4.912902,7.398083,-12.612655,-75.347900,-27.740479,81.695557,40.056641
53960,2.403779,4.434062,-10.007763,-40.679932,-33.538818,48.431396,40.050781
54000,1.149217,-0.052672,-4.999093,-1.861572,-15.502930,21.606445,40.082031
54040,3.083732,-2.829947,-0.167594,7.324219,13.549805,12.054443,40.048828
54080,3.524265,-3.083732,1.824382,13.916016,25.878906,-9.552002,40.066406
54120,5.367800,-1.240196,2.015918,-12.725830,-0.793457,-45.654297,40.058594
54160,13.790602,6.062119,-7.431602,-91.064453,-48.187256,-18.676758,40.066406
54200,10.371682,11.908759,-19.335573,62.194824,42.877197,-26.885986,40.056641
54240,5.880159,8.576031,-15.749059,49.957275,44.555664,-33.599854,40.056641
54280,3.782839,5.061342,-12.636597,75.744629,51.605225,-77.545166,40.058594
54320,2.542642,4.505888,-8.609550,66.741943,35.675049,-57.769775,40.062500
54360,1.580173,4.649539,-2.528277,9.735107,37.811279,-4.821777,40.060547
54400,1.374272,4.606444,2.346318,-21.575928,60.913086,0.518799,40.052734
54440,-0.727837,2.408567,3.232172,4.333496,13.885498,25.604248,40.052734
54480,3.687071,0.684742,4.807557,6.011963,-19.195557,27.893066,40.058594
54520,13.220781,8.446744,-6.086061,-81.146240,-113.189697,15.686035,40.041016
54560,12.267890,12.808979,-21.236568,-19.531250,-32.135010,67.108154,40.050781
54600,6.172252,10.204087,-16.333244,-42.083740,-47.454834,58.380127,40.066406
54640,3.672705,7.283162,-12.009315,-71.807861,-53.710938,78.826904,40.072266
54680,2.240973,3.447650,-9.208099,-29.357910,-42.175293,45.898438,40.042969
54720,2.446874,-0.976834,-4.055778,7.690430,-11.444092,21.820068,40.060547
54760,3.552995,-3.289633,0.263362,17.364502,25.878906,8.087158,40.041016
54800,1.929727,-3.256114,1.623269,41.534424,26.336670,-52.673340,40.048828
54840,6.325481,0.229843,2.806004,-34.637451,-19.470215,-52.978516,40.058594
54880,14.446613,8.485051,-10.534488,-88.317871,-38.360596,3.509521,40.046875
54920,9.428367,11.295844,-20.752941,79.071045,23.254395,-43.914795,40.048828
54960,6.224925,7.331046,-16.472107,59.814453,67.871094,-61.157227,40.056641
55000,4.376601,5.458780,-13.699622,87.036133,63.262939,-98.144531,40.052734
55040,1.977611,4.821922,-8.197746,67.230225,71.350098,-50.262451,40.039062
55080,1.115698,4.936844,-0.790087,21.850586,63.507080,-18.280029,40.078125
55120,0.703895,4.721366,3.873818,23.559570,82.092285,-9.857178,40.048828
55160,-2.126051,2.676718,2.973598,7.629395,-43.334961,38.360596,40.046875
55200,1.939303,2.178724,3.112462,-17.150879,-57.464600,33.325195,40.046875
55240,15.112201,8.609550,-8.791509,-101.196289,-74.645996,24.810791,40.048828
55280,10.826580,10.481815,-20.106506,0.549316,-28.503418,36.804199,40.054688
55320,5.094861,9.615114,-14.997279,-40.740967,-33.538818,62.133789,40.042969
55360,3.648763,7.445967,-12.813767,-55.084229,-53.558350,81.573486,40.033203
55400,2.236184,3.672705,-9.504981,-16.113281,-32.165527,44.006348,40.042969
55440,2.456451,-0.751779,-3.864242,18.554688,-6.195068,13.793945,40.052734
55480,4.132392,-2.652776,0.478840,6.164551,20.080566,5.645752,40.041016
55520,2.705448,-3.227384,1.666364,28.686523,20.050049,-38.787842,40.048828
55560,5.114015,-0.502782,1.762132,-17.547607,-11.810303,-47.729492,40.046875
55600,13.709199,8.690952,-9.557653,-91.827393,5.706787,7.263184,40.041016
55640,9.629479,11.880029,-20.786459,65.643311,25.054932,-49.133301,40.037109
55680,5.880159,7.541735,-17.166426,56.701660,75.103760,-53.161621,40.052734
55720,3.691859,4.817134,-13.924677,83.923340,64.086914,-84.777832,40.056641
55760,2.375048,4.922479,-8.772355,68.511963,54.687500,-55.999756,40.033203
55800,2.126051,5.137957,-1.604115,26.672363,58.654785,-27.343750,40.019531
55840,1.805228,4.917690,3.241749,15.899658,78.430176,-17.333984,40.035156
55880,-0.641646,2.906561,2.997540,10.589600,-13.580322,35.675049,40.039062
55920,3.869030,3.045424,2.389413,-18.554688,-8.453369,45.135498,40.042969
55960,13.153744,10.936713,-9.619903,-123.413086,-36.071777,53.314209,40.037109
56000,9.375694,11.166556,-18.904617,-24.169922,-42.541504,57.708740,40.025391
56040,7.062895,7.493851,-14.298173,-52.276611,-35.491943,64.819336,40.023438
56080,4.735731,4.467580,-11.310209,-45.867920,-49.652100,53.009033,40.048828
56120,1.977611,1.723825,-7.867347,-6.896973,-56.152344,19.561768,40.041016
56160,3.605668,-0.895431,-2.470816,17.272949,-17.425537,12.390137,40.039062
56200,4.089296,-1.407791,0.727837,9.063721,46.844482,-3.021240,40.042969
56240,2.269703,-1.838747,1.594538,-0.061035,65.765381,-28.808594,40.050781
56280,8.571242,1.618480,0.248997,-44.616699,-102.325439,-37.994385,40.042969
56320,14.858416,8.403648,-13.982138,-15.411377,73.577881,-7.965088,40.039062
56360,8.992621,10.271125,-19.235016,76.416016,16.052246,-46.508789,40.046875
56400,6.119579,6.478710,-14.389153,63.079834,57.800293,-67.321777,40.056641
56440,4.568137,4.467580,-11.305421,85.571289,36.163330,-76.324463,40.060547
56480,2.480393,4.122815,-5.650316,59.417725,51.422119,-38.787842,40.033203
56520,1.877054,4.975151,1.010353,7.568359,60.272217,-19.134521,40.037109
56560,0.172383,4.371812,3.567361,17.822266,26.916504,-19.531250,40.048828
56600,-0.263362,2.896984,3.332729,-0.518799,-42.297363,15.716553,40.068359
56640,9.725247,7.196970,-2.518700,-93.963623,-114.135742,19.287109,40.058594
56680,13.215993,9.677363,-17.669209,-26.824951,-29.907227,41.656494,40.064453
56720,7.393295,9.284714,-16.687586,-28.594971,-37.231445,46.356201,40.070312
56760,5.013458,8.384495,-12.914324,-67.993164,-55.450439,85.876465,40.033203
56800,2.370260,5.291186,-10.409989,-51.391602,-51.330566,61.889648,40.048828
56840,1.484405,0.272939,-5.080496,-5.889893,-16.632080,18.890381,40.039062
56880,3.442862,-3.217807,-0.004788,8.331299,34.393311,13.336182,40.029297
56920,2.853889,-4.209007,1.695095,15.228271,13.397217,-12.390137,40.052734
56960,4.256891,-1.723825,1.872266,-15.869141,-32.989502,-26.580811,40.039062
57000,12.425907,7.283162,-7.340622,-115.936279,-90.179443,-0.335693,40.033203
57040,10.965444,11.832145,-19.541473,58.105469,56.701660,-42.419434,40.037109
57080,6.545747,8.695741,-17.310078,47.210693,39.001465,-31.463623,40.029297
57120,4.702212,5.099649,-13.656527,68.450928,71.350098,-79.681396,40.044922
57160,2.849100,4.458004,-9.595961,73.181152,64.788818,-63.079834,40.044922
57200,1.063026,4.620809,-3.002329,26.092529,57.189941,-11.138916,40.039062
57240,1.297657,5.257667,2.940080,-0.915527,58.227539,-11.413574,40.056641
57280,-1.019930,3.658340,3.514688,7.812500,-17.974854,19.836426,40.056641
57320,1.168370,1.781286,3.466804,-14.160156,-33.050537,45.013428,40.062500
57360,11.128249,6.397307,-4.213795,-96.710205,-118.530273,17.150879,40.039062
57400,13.278243,12.038046,-20.183121,-27.954102,-4.364014,49.957275,40.042969
57440,6.655881,10.917560,-16.979679,-37.872314,-46.813965,60.607910,40.021484
57480,4.003105,8.145074,-12.449849,-70.617676,-56.976318,89.874268,40.021484
57520,1.517924,3.964798,-9.629479,-32.104492,-53.344727,50.476074,40.037109
57560,1.833959,-0.483629,-4.314352,10.375977,-24.108887,14.495850,40.048828
57600,4.390966,-2.748544,0.181959,3.601074,18.524170,32.348633,40.031250
57640,3.232172,-2.762909,1.465251,23.437500,14.923096,-6.622314,40.042969
57680,3.921702,-1.369483,2.418144,-20.416260,50.567627,-42.938232,40.054688
57720,13.848063,5.434838,-6.220136,-91.827393,-114.227295,-26.855469,40.031250
57760,11.492168,11.156980,-22.400150,72.479248,48.431396,-36.895752,40.029297
57800,6.564901,8.978256,-18.119318,76.263428,53.741455,-77.819824,40.042969
57840,3.251326,5.439626,-13.441049,89.508057,55.938721,-103.881836,40.027344
57880,1.996764,5.248090,-8.643068,68.481445,59.265137,-64.727783,40.037109
57920,1.537078,5.334281,-2.059013,10.009766,47.729492,-13.305664,40.031250
57960,1.690306,4.754885,3.069367,-18.280029,91.522217,-11.749268,40.048828
58000,-0.976834,2.140416,3.174711,9.338379,-12.908936,13.732910,40.023438
58040,3.366248,1.168370,4.462792,2.288818,-19.836426,11.383057,40.050781
58080,13.584701,9.255983,-7.762002,-95.214844,-114.166260,29.815674,40.041016
58120,10.979809,13.129802,-21.619642,-4.089355,-37.292480,52.581787,40.042969
58160,5.137957,10.213664,-15.485697,-37.994385,-49.255371,62.469482,40.042969
58200,2.691083,7.139510,-11.975797,-62.744141,-57.952881,81.970215,40.023438
58240,1.403002,2.935291,-8.552089,-25.939941,-45.898438,53.497314,40.046875
58280,3.112462,-1.403002,-2.925714,7.324219,0.213623,31.585693,40.041016
58320,4.510676,-2.844312,1.010353,18.096924,20.172119,4.211426,40.015625
58360,1.958457,-2.892196,1.685518,32.928467,18.524170,-53.405762,40.029297
58400,7.714118,1.240196,1.781286,-44.433594,-25.482178,-55.358887,40.037109
58440,14.642938,9.782708,-13.623008,-52.032471,44.799805,-2.899170,40.042969
58480,8.183381,11.358093,-20.810402,76.599121,17.974854,-52.001953,40.046875
58520,4.979939,6.914454,-15.892711,59.295654,70.159912,-68.817139,40.035156
58560,3.706224,5.487510,-12.756307,81.634521,61.889648,-93.963623,40.033203
58600,1.786075,5.353435,-6.694188,45.227051,62.042236,-40.893555,40.023438
58640,1.556231,5.554548,0.713472,4.425049,85.510254,-19.531250,40.021484
58680,0.277727,3.955221,4.165911,31.768799,69.213867,0.274658,40.052734
58720,-2.102109,1.810017,2.949656,4.455566,-58.929443,38.299561,40.023438
58760,5.980716,2.547431,1.819593,-15.350342,-88.470459,-9.460449,40.013672
58800,14.709975,9.696517,-13.670892,-102.233887,-23.834229,73.638916,40.023438
58840,7.896077,11.310209,-18.722658,0.885010,-35.125732,30.151367,40.035156
58880,4.175488,9.892841,-13.627796,-59.906006,-49.407959,84.350586,40.037109
58920,2.959233,6.780379,-11.846510,-54.931641,-66.650391,73.486328,40.027344
58960,1.896208,2.561796,-7.766790,-19.653320,-41.961670,40.863037,40.019531
59000,3.213019,-1.407791,-2.279280,5.981445,-7.904053,25.634766,40.037109
59040,4.707001,-2.719813,1.173159,0.396729,15.014648,14.465332,40.017578
59080,3.256114,-3.031059,1.862689,8.178711,19.989014,-30.059814,40.041016
59120,9.078813,1.762132,-0.818817,-42.083740,-76.416016,-68.481445,40.019531
59160,13.589489,10.247183,-17.013197,-3.845215,82.244873,-17.333984,40.029297
59200,7.580042,11.822568,-20.044256,74.829102,26.489258,-52.947998,40.033203
59240,4.414908,6.670246,-14.853627,74.829102,81.726074,-79.620361,40.025391
59280,2.504335,5.267244,-11.635820,82.031250,49.652100,-87.188721,40.023438
59320,1.561020,5.434838,-5.209783,39.123535,52.551270,-37.658691,40.017578
59360,1.977611,5.899313,1.288081,-26.763916,63.690186,-14.190674,40.033203
59400,0.282516,3.232172,3.533842,8.209229,66.101074,1.525879,40.027344
59440,-0.689530,1.000776,3.447650,3.326416,-37.109375,30.792236,40.041016
59480,6.971915,3.715801,1.680730,-32.592773,-66.650391,1.739502,40.023438
59520,15.078682,13.201628,-15.696386,-85.174561,-38.543701,66.558838,40.009766
59560,8.441956,12.641385,-20.599712,-8.605957,-70.373535,58.990479,40.037109
59600,4.323928,9.136273,-12.933477,-65.521240,-55.114746,89.508057,40.025391
59640,1.613692,5.166687,-10.156203,-50.659180,-67.810059,70.159912,40.037109
59680,1.733402,0.502782,-5.793968,-1.129150,-35.980225,31.005859,40.041016
59720,4.189853,-2.327164,-0.823605,13.397217,7.659912,27.435303,40.025391
59760,3.615245,-2.614468,1.292869,20.996094,31.250000,-9.277344,40.017578
59800,3.342306,-2.379837,2.432509,-0.457764,42.236328,-35.247803,40.042969
59840,11.482592,2.930503,-3.002329,-53.924561,-124.633789,-60.333252,40.039062
59880,12.976573,11.420342,-19.474436,44.708252,77.819824,-42.541504,40.042969
59920,6.799533,11.707646,-19.795259,70.922852,31.372070,-63.415527,40.025391
59960,3.385401,6.555324,-14.954184,82.763672,65.399170,-90.576172,40.019531
60000,1.795651,4.922479,-10.204087,69.366455,60.119629,-79.193115,40.027344
60040,1.541866,5.430049,-3.160346,6.072998,51.330566,-16.601562,40.027344
60080,2.126051,5.530606,2.715025,-41.046143,89.660645,-7.019043,40.019531
60120,-0.497994,2.274492,3.596091,12.176514,44.647217,18.280029,40.037109
60160,0.033519,0.900220,3.639187,-3.631592,-50.903320,35.919189,40.017578
60200,10.769119,6.382942,-2.183512,-59.814453,-150.634766,-19.195557,40.031250
60240,13.742718,12.928689,-19.460072,-33.905029,-30.639648,61.462402,40.023438
60280,6.220136,11.358093,-17.559074,-20.660400,-53.588867,56.518555,40.037109
60320,3.533842,8.892065,-12.387600,-68.176270,-55.236816,82.977295,40.033203
60360,1.905785,4.812346,-9.552865,-37.261963,-47.973633,58.074951,40.039062
60400,2.092532,-0.450110,-4.458004,10.284424,-6.225586,25.421143,40.011719
60440,3.892972,-3.289633,0.272939,15.075684,18.920898,14.312744,40.015625
60480,2.815581,-3.816358,1.872266,39.031982,5.523682,-43.365479,40.033203
60520,4.620809,-1.446098,2.250550,-12.603760,11.260986,-34.881592,40.029297
60560,13.393165,8.322245,-8.221688,-102.539062,-32.867432,-1.556396,40.025391
60600,9.725247,12.492945,-20.044256,75.073242,26.458740,-52.917480,40.033203
60640,6.086061,8.499416,-17.243040,56.793213,58.502197,-46.325684,40.027344
60680,4.118027,5.468357,-14.427460,76.568604,69.152832,-92.224121,40.033203
60720,2.245761,5.396531,-9.011775,66.345215,69.030762,-58.929443,40.025391
60760,1.082179,5.784391,-1.757344,14.587402,59.448242,-23.803711,40.031250
60800,0.679953,5.449203,3.203442,-3.356934,58.593750,-16.143799,40.019531
60840,-1.671153,2.681506,3.337517,6.530762,-23.132324,36.224365,40.019531
60880,1.996764,0.976834,3.145981,-3.173828,-48.461914,34.149170,40.023438
60920,12.947843,7.369353,-7.053318,-101.287842,-99.731445,32.348633,40.007812
60960,11.793838,11.726800,-18.775330,-15.289307,-0.244141,40.771484,40.033203
61000,5.166687,10.591949,-15.389929,-42.510986,-39.642334,64.849854,40.023438
61040,3.399766,8.135497,-12.775460,-62.133789,-61.553955,82.061768,40.027344
61080,2.331953,4.721366,-10.237606,-35.430908,-56.488037,53.680420,40.019531
61120,2.571373,0.430956,-5.042189,-1.037598,-24.597168,26.550293,40.035156
61160,4.285621,-2.217031,-0.397437,2.502441,30.578613,22.003174,40.025391
61200,2.949656,-2.576161,1.383849,13.214111,26.367188,-25.024414,40.009766
61240,2.738967,-2.173935,1.695095,-6.866455,21.606445,-25.329590,40.042969
61280,13.297397,4.778827,-4.654328,-87.432861,-100.463867,-38.085938,40.027344
61320,12.205640,11.923124,-20.772095,57.830811,61.035156,-34.088135,40.007812
61360,6.995857,9.725247,-18.526333,71.105957,49.652100,-62.438965,40.033203
61400,3.213019,5.659893,-14.642938,89.660645,60.852051,-100.799561,40.033203
61440,2.403779,5.731719,-9.524135,65.277100,58.105469,-69.702148,40.003906
61480,2.011129,6.062119,-2.470816,10.009766,66.528320,-16.693115,40.007812
61520,1.541866,4.874595,2.489970,-14.678955,78.796387,-13.305664,40.041016
61560,-1.331176,2.006341,2.614468,2.136230,-21.789551,26.062012,39.998047
61600,-0.019154,0.588974,3.371036,6.744385,-39.367676,31.066895,40.019531
61640,10.951078,5.726931,0.143652,-51.361084,-86.761475,-10.803223,40.025391
61680,14.820108,14.753071,-19.230228,-58.502197,-35.247803,72.875977,40.025391
61720,6.588843,13.029245,-19.618090,-30.517578,-67.901611,73.547363,40.029297
61760,2.537854,8.346188,-12.818556,-68.084717,-64.514160,81.970215,40.013672
61800,1.244985,3.687071,-9.504981,-42.144775,-58.715820,56.274414,40.017578
61840,2.753332,-0.612916,-4.381389,-3.631592,-19.683838,37.231445,40.021484
61880,4.841076,-2.705448,0.062249,0.427246,33.905029,29.754639,40.027344
61920,2.863465,-2.940080,1.359907,33.355713,32.470703,-57.708740,40.007812
61960,4.635174,-1.872266,2.087744,-18.188477,16.876221,-24.169922,40.017578
62000,13.781025,6.378153,-7.723695,-71.380615,-65.979004,-27.679443,40.011719
62040,10.256760,12.536040,-20.839132,69.732666,62.408447,-44.189453,40.005859
62080,5.339070,9.591172,-17.300501,63.903809,45.532227,-52.764893,40.031250
62120,3.332729,5.942409,-13.450625,85.784912,58.685303,-92.590332,40.013672
62160,1.862689,5.128380,-8.001422,65.551758,66.650391,-51.513672,40.003906
62200,1.661576,5.741296,-0.742203,-0.671387,58.837891,-13.702393,40.001953
62240,1.182736,4.850653,3.883395,0.244141,79.010010,-10.833740,40.007812
62280,-1.537078,2.030283,3.567361,2.380371,-30.181885,37.750244,40.031250
62320,4.194642,1.996764,3.112462,-16.174316,-62.408447,21.728516,40.007812
62360,13.761871,10.639832,-11.774684,-99.121094,-80.322266,50.628662,40.017578
62400,8.906430,12.368446,-18.674774,-13.366699,-31.677246,54.656982,40.011719
62440,4.630386,10.419566,-14.053964,-57.891846,-54.260254,85.540771,40.009766
62480,3.112462,7.311892,-12.014104,-54.748535,-63.507080,74.462891,40.019531
62520,1.709460,2.504335,-7.905654,-15.747070,-30.181885,41.595459,40.027344
62560,2.810793,-1.513135,-2.360683,11.474609,-0.091553,22.521973,40.033203
62600,4.213795,-2.983175,1.053449,8.697510,16.967773,10.192871,40.017578
62640,3.236961,-3.428497,1.762132,6.805420,7.324219,-26.641846,40.021484
62680,8.518570,1.297657,-0.536301,-21.301270,-70.983887,-77.911377,40.023438
62720,13.412318,9.217676,-14.887146,-11.627197,97.534180,-22.186279,40.003906
62760,8.173804,12.406754,-19.776106,79.528809,33.355713,-55.755615,40.037109
62800,4.520253,7.728483,-15.054740,67.871094,75.866699,-72.387695,40.001953
62840,2.571373,5.726931,-11.870452,86.822510,50.323486,-86.517334,40.023438
62880,1.656788,5.702989,-5.564125,54.504395,62.377930,-41.900635,40.000000
62920,1.728614,6.081272,0.986411,-7.171631,61.523438,-21.820068,40.013672
62960,0.086191,4.137180,3.433285,0.152588,23.559570,-3.967285,40.029297
63000,-1.556231,1.561020,2.882619,-10.437012,-58.471680,45.043945,40.003906
63040,6.631939,1.953669,3.050213,-8.514404,-18.737793,15.411377,40.005859
63080,15.365987,11.640609,-13.613431,-104.492188,-41.290283,71.014404,40.037109
63120,8.834604,13.211205,-20.815189,-8.697510,-49.865723,59.356689,39.998047
63160,4.113238,9.639056,-13.263878,-58.227539,-55.145264,83.679199,40.000000
63200,2.255338,5.688623,-11.104307,-44.281006,-70.190430,64.727783,40.021484
63240,2.039860,1.738190,-7.359776,-9.857178,-36.193848,30.944824,39.994141
63280,3.768473,-1.182736,-1.733402,1.220703,2.655029,27.435303,40.000000
63320,4.074931,-1.944092,1.225831,-1.556396,47.546387,14.373779,39.984375
63360,2.422932,-1.939303,1.814805,-16.632080,14.282227,-18.402100,39.984375
63400,9.246407,1.230620,-0.555455,-34.790039,-124.084473,-76.171875,39.998047
63440,14.355634,8.738836,-18.535910,23.834229,77.514648,-40.100098,39.996094
63480,8.082825,11.362882,-21.696257,84.289551,48.095703,-67.993164,39.994141
63520,3.758897,7.029376,-15.160085,96.008301,75.683594,-103.393555,39.964844
63560,1.340753,5.832275,-10.208876,78.979492,58.837891,-84.625244,40.001953
63600,1.541866,6.086061,-3.227384,13.916016,68.389893,-21.240234,40.001953
63640,1.972822,5.808333,2.715025,-35.369873,103.240967,-12.298584,40.007812
63680,-0.833182,2.489970,3.840300,13.458252,8.850098,10.711670,40.000000
63720,0.201113,0.670376,3.950433,4.547119,-45.898438,29.846191,39.984375
63760,11.200075,6.770802,-2.494758,-71.289062,-148.864746,-4.882812,39.984375
63800,13.723564,14.465767,-19.503166,-37.719727,-30.944824,63.720703,39.974609
63840,5.554548,11.492168,-17.041927,-32.989502,-65.765381,67.901611,39.988281
63880,2.839523,8.169016,-12.061988,-68.237305,-64.178467,86.059570,40.003906
63920,1.120486,3.955221,-9.342175,-36.010742,-56.762695,54.748535,39.980469
63960,2.164358,-0.928950,-4.137180,10.253906,-14.343262,31.188965,39.998047
64000,4.467580,-3.323152,0.339977,16.387939,22.247314,30.273438,39.994141
64040,2.834735,-3.524265,1.747767,30.731201,21.697998,-39.245605,40.005859
64080,5.535394,-0.723049,1.714248,-14.953613,-7.965088,-48.034668,40.007812
64120,13.848063,7.647080,-10.261548,-80.383301,-12.512207,-5.462646,39.986328
64160,9.514558,11.731588,-20.973207,83.038330,34.362793,-61.767578,39.994141
64200,5.157111,7.852982,-17.051504,68.939209,64.697266,-62.988281,39.982422
64240,3.169923,5.626374,-13.766660,83.892822,69.793701,-102.539062,40.007812
64280,1.747767,5.846641,-7.661446,51.666260,73.974609,-43.243408,39.994141
64320,1.335965,6.660669,0.110133,-14.831543,70.007324,-20.568848,39.994141
64360,0.172383,4.678270,4.165911,6.195068,54.931641,-6.072998,40.007812
64400,-1.575385,1.920150,3.600879,-5.004883,-36.834717,45.013428,40.000000
64440,4.548983,2.111686,2.039860,-17.120361,-76.080322,18.188477,39.988281
64480,14.063540,9.380483,-12.220005,-111.175537,-56.091309,88.806152,39.998047
64520,9.236830,12.129025,-19.967642,-4.394531,-31.982422,43.762207,40.013672
64560,4.419696,10.433931,-13.948619,-64.727783,-50.720215,92.895508,40.005859
64600,2.202666,7.201759,-11.712435,-56.976318,-69.549561,77.575684,40.015625
64640,1.517924,2.547431,-7.800309,-23.284912,-43.151855,47.729492,39.994141
64680,3.567361,-1.537078,-2.202666,2.075195,-3.356934,37.658691,40.007812
64720,4.558560,-2.710236,0.991199,-3.753662,43.029785,22.460938,40.003906
64760,3.222595,-2.772485,1.833959,-2.471924,14.343262,-26.489258,39.988281
64800,10.170568,1.383849,-1.651999,-44.403076,-113.128662,-81.329346,40.003906
64840,14.422671,9.279925,-18.684351,34.515381,104.492188,-34.301758,40.013672
64880,7.934384,11.573571,-20.245369,81.481934,53.192139,-64.025879,39.980469
64920,3.691859,6.746861,-14.427460,91.308594,84.167480,-101.287842,40.013672
64960,1.608904,5.540183,-10.070012,81.695557,67.840576,-84.930420,39.986328
65000,1.144428,5.631162,-3.409343,26.397705,71.502686,-27.130127,39.986328
65040,1.642422,5.568913,2.528277,-23.284912,74.951172,-19.104004,39.990234
65080,-1.034295,2.887407,3.318364,10.467529,-9.124756,15.380859,39.982422
65120,-0.296881,0.986411,3.414132,8.361816,-50.750732,36.437988,39.982422
65160,9.672575,4.544195,0.282516,-32.470703,-81.237793,-10.375977,40.003906
65200,14.891934,13.852851,-17.515980,-60.150146,-28.900146,64.453125,40.009766
65240,6.679823,12.612655,-18.990808,-24.505615,-73.181152,68.939209,39.988281
65280,3.275268,8.657434,-12.746730,-63.262939,-64.025879,81.115723,39.966797
65320,1.431733,4.448427,-9.979033,-44.769287,-68.176270,64.605713,40.003906
65360,2.197877,-0.124498,-4.994305,-1.068115,-27.984619,33.355713,40.003906
65400,4.845864,-2.753332,-0.248997,1.556396,16.448975,38.696289,39.974609
65440,3.447650,-3.117251,1.417367,27.465820,29.510498,-35.003662,39.994141
65480,4.285621,-1.742979,2.121263,-9.338379,25.024414,-44.494629,39.996094
65520,13.852851,5.516241,-7.560889,-77.178955,-94.787598,-44.982910,39.994141
65560,11.037270,12.105083,-21.993137,69.274902,84.228516,-52.307129,40.000000
65600,5.377377,9.749189,-17.774553,61.431885,61.401367,-72.662354,40.000000
65640,2.537854,6.186617,-13.532028,81.024170,58.563232,-101.501465,39.998047
65680,1.570596,5.157111,-8.317456,64.422607,69.488525,-57.434082,40.000000
65720,1.642422,5.798757,-0.847547,-16.937256,68.237305,-10.437012,39.992188
65760,1.288081,4.783615,4.419696,2.044678,86.578369,-9.094238,40.007812
65800,-1.805228,2.097321,3.854665,-1.159668,-47.027588,31.524658,39.984375
65840,1.805228,0.995988,2.762909,0.946045,-75.958252,24.719238,39.982422
65880,13.555970,8.705317,-8.815451,-112.274170,-108.032227,29.144287,40.023438
65920,10.127473,13.081918,-20.025103,-5.828857,-18.066406,40.008545,40.001953
65960,4.027047,11.310209,-14.954184,-40.710449,-61.920166,72.814941,39.998047
66000,2.518700,8.389283,-12.507310,-59.570312,-74.218750,79.040527,39.996094
66040,1.288081,3.931279,-8.796297,-26.031494,-54.260254,44.494629,39.990234
66080,3.457227,-0.919373,-2.518700,0.335693,-5.584717,31.372070,40.001953
66120,5.482722,-3.136404,0.780510,-0.305176,16.479492,14.404297,39.998047
66160,3.471592,-3.778050,0.713472,18.768311,22.827148,-44.647217,40.001953
66200,7.460332,1.527501,-0.339977,-43.304443,-42.633057,-62.377930,39.992188
66240,13.220781,9.983821,-14.116213,-28.503418,92.681885,-30.700684,39.996094
66280,7.034164,12.770672,-20.034679,82.305908,24.719238,-45.013428,39.988281
66320,4.194642,7.661446,-15.021221,65.734863,77.697754,-59.600830,40.000000
66360,2.590526,5.449203,-11.683704,80.413818,64.575195,-88.562012,40.023438
66400,1.695095,5.434838,-5.377377,44.097900,74.127197,-35.736084,40.000000
66440,2.087744,5.521029,1.632846,7.781982,87.646484,-22.705078,40.023438
66480,-0.143652,3.725378,3.624821,23.406982,23.529053,5.218506,39.980469
66520,-1.675941,1.527501,2.810793,5.554199,-46.722412,44.311523,40.000000
66560,6.670246,3.337517,2.643199,-20.812988,-29.052734,11.535645,40.000000
66600,14.700398,13.038822,-14.810532,-85.723877,-59.204102,55.114746,39.980469
66640,7.977480,13.340492,-20.661961,-4.943848,-50.750732,57.708740,39.980469
66680,3.878607,9.581595,-13.268666,-57.281494,-61.737061,82.702637,39.988281
66720,1.709460,5.765238,-10.644621,-48.645020,-69.946289,64.331055,40.003906
66760,2.059013,1.053449,-5.904101,-9.643555,-29.510498,34.210205,39.978516
66800,4.879383,-1.881842,-0.612916,-0.885010,26.031494,32.623291,40.027344
66840,3.596091,-2.269703,1.182736,12.695312,56.518555,-24.688721,40.009766
66880,3.213019,-1.853112,2.015918,-38.574219,33.233643,-10.528564,39.986328
66920,13.306973,3.433285,-3.624821,-40.313721,-134.674072,-84.045410,40.013672
66960,11.774684,11.319786,-21.112070,67.199707,86.486816,-46.051025,40.003906
67000,5.722142,11.319786,-18.679562,73.242188,38.085938,-56.152344,40.013672
67040,2.647987,7.000646,-12.971785,84.442139,61.981201,-99.182129,39.974609
67080,1.561020,6.129156,-8.173804,57.678223,56.793213,-57.006836,39.998047
67120,1.704672,6.076484,-1.742979,-9.521484,40.252686,-4.241943,39.998047
67160,1.556231,4.726154,3.035848,-24.322510,65.979004,0.061035,39.984375
67200,-1.096544,1.570596,3.198653,8.361816,-33.355713,28.717041,39.994141
67240,1.537078,0.215478,3.964798,-0.427246,-26.855469,42.236328,40.011719
67280,12.310986,6.062119,-3.380613,-60.913086,-123.901367,-4.577637,39.988281
67320,12.775460,14.130578,-20.915747,-20.233154,-9.490967,52.947998,40.007812
67360,4.299986,11.975797,-17.429789,-19.805908,-62.347412,62.286377,40.003906
67400,1.886631,8.413225,-12.488156,-53.161621,-67.138672,78.765869,39.992188
67440,1.307234,4.381389,-9.868899,-29.418945,-61.981201,50.933838,39.994141
67480,3.227384,-0.263362,-4.376601,7.019043,-2.166748,26.580811,39.994141
67520,5.080496,-2.226608,0.210690,-4.333496,52.642822,34.057617,39.994141
67560,2.873042,-2.082955,1.685518,19.195557,38.574219,-45.135498,39.990234
67600,2.786851,-1.369483,1.647211,-18.218994,21.240234,-23.284912,40.017578
67640,14.954184,8.216900,-6.382942,-104.400635,-42.388916,-29.479980,39.988281
67680,10.098742,12.650962,-21.787235,61.187744,28.656006,-25.177002,39.990234
67720,5.171476,8.657434,-17.808073,60.546875,47.424316,-48.858643,40.021484
67760,3.174711,5.300763,-13.852851,80.108643,49.682617,-94.909668,39.990234
67800,2.288857,4.965574,-8.145074,53.710938,60.852051,-46.081543,40.013672
67840,2.159570,5.568913,-0.205901,4.547119,62.377930,-22.125244,40.017578
67880,1.259350,4.616021,4.357447,10.437012,57.220459,-14.678955,40.003906
67920,-1.757344,2.317587,3.462016,3.540039,-47.943115,42.205811,39.996094
67960,4.984728,3.208230,1.805228,-20.233154,-58.227539,17.181396,40.013672
68000,13.900735,11.118672,-13.340492,-91.888428,-41.473389,65.338135,40.001953
68040,7.943961,12.224793,-18.215086,-14.312744,-36.346436,51.910400,40.003906
68080,5.042189,9.979033,-13.555970,-64.300537,-40.222168,91.400146,39.976562
68120,3.145981,6.794744,-11.961432,-43.762207,-54.626465,68.969727,40.013672
68160,1.771709,2.073379,-7.484274,-10.284424,-17.150879,33.782959,39.996094
68200,2.916138,-1.537078,-1.934515,9.429932,17.395020,22.796631,40.005859
68240,3.289633,-2.585738,1.115698,-1.464844,19.744873,6.103516,40.017578
68280,2.164358,-2.849100,1.326388,6.225586,-10.986328,-23.590088,39.994141
68320,10.285490,2.743755,-0.306458,-28.503418,-107.177734,-84.197998,39.990234
68360,14.326903,10.544065,-15.902287,9.429932,100.067139,-29.693604,40.000000
68400,7.790732,11.520899,-19.407398,61.187744,40.985107,-45.593262,39.976562
68440,4.046201,7.196970,-15.054740,71.533203,69.122314,-72.998047,39.998047
68480,2.911349,6.354211,-11.525687,75.225830,47.790527,-76.324463,39.996094
68520,2.264915,5.722142,-4.611232,27.008057,65.093994,-21.911621,40.009766
68560,1.896208,5.046977,1.900996,-5.004883,69.671631,-13.092041,40.000000
68600,-0.622492,3.035848,3.260903,12.664795,-18.829346,9.429932,39.994141
68640,-1.355118,1.197101,2.762909,0.549316,-55.358887,41.809082,39.990234
68680,7.364564,2.619257,2.580950,-8.666992,-17.608643,7.232666,40.023438
68720,15.026010,11.856087,-14.604630,-84.228516,-42.663574,64.941406,39.994141
68760,8.183381,13.479356,-20.714634,-8.148193,-45.654297,56.274414,40.001953
68800,3.816358,9.600749,-13.163321,-53.009033,-56.793213,70.495605,39.992188
68840,2.351106,5.334281,-10.692505,-39.093018,-58.959961,56.243896,39.994141
68880,1.886631,1.283292,-6.550536,1.800537,-32.257080,17.944336,40.003906
68920,3.801992,-1.374272,-1.369483,6.408691,11.047363,17.395020,39.994141
68960,3.457227,-1.905785,1.115698,5.126953,63.842773,-11.016846,39.986328
69000,1.987187,-1.881842,1.742979,-10.040283,38.543701,-34.332275,40.001953
69040,12.071565,3.945644,0.344765,-57.464600,-141.082764,-83.007812,39.986328
69080,14.058752,11.147403,-19.048269,35.308838,76.812744,-31.982422,39.990234
69120,6.694188,11.817780,-20.336349,60.058594,45.013428,-52.459717,39.982422
69160,3.007117,7.374141,-14.791378,71.075439,57.281494,-81.359863,39.988281
69200,2.288857,6.229713,-9.844957,60.913086,56.640625,-66.986084,39.986328
69240,1.833959,5.597643,-2.935291,-3.143311,51.269531,-2.136230,39.994141
69280,1.714248,4.592079,3.107674,-11.199951,65.887451,-2.593994,39.994141
69320,-1.130063,1.963245,3.567361,15.258789,-25.634766,21.972656,39.984375
69360,-1.130063,0.593762,2.748544,4.669189,-55.694580,41.412354,39.982422
69400,10.994174,3.734955,0.229843,-21.057129,-103.424072,-16.387939,39.994141
69440,15.097836,12.981361,-17.774553,-57.647705,-4.577637,66.162109,40.000000
69480,5.525817,13.354857,-18.737022,-15.777588,-59.631348,59.478760,39.996094
69520,2.676718,10.323798,-13.374011,-59.875488,-60.943604,80.474854,39.998047
69560,1.982399,5.875371,-11.137826,-35.644531,-57.617188,56.945801,39.998047
69600,2.470816,0.469264,-5.813122,4.638672,-5.920410,24.841309,39.964844
69640,4.510676,-2.671929,-0.450110,-2.685547,42.877197,27.160645,39.998047
69680,3.763685,-3.155558,1.786075,20.172119,6.317139,-36.743164,39.998047
69720,3.940856,-1.862689,1.833959,3.509521,19.287109,-43.579102,39.978516
69760,12.401965,6.301539,-6.550536,-82.916260,-68.267822,-33.508301,39.998047
69800,11.386824,12.200851,-19.723434,62.835693,65.032959,-47.454834,39.988281
69840,6.607996,9.567230,-17.108965,62.500000,76.843262,-62.438965,40.003906
69880,3.308787,6.296751,-13.962984,73.760986,79.162598,-91.796875,40.021484
69920,1.393425,5.511452,-8.916007,61.645508,62.164307,-57.617188,39.998047
69960,0.636858,5.430049,-1.517924,5.645752,37.933350,-22.796631,39.988281
70000,0.660800,5.128380,3.744531,9.887695,44.464111,-25.543213,39.998047
70040,-1.292869,2.844312,3.711013,5.950928,-34.179688,35.461426,39.980469
70080,1.910573,1.110910,3.208230,-1.007080,-39.520264,44.616699,39.998047
70120,13.474567,7.666234,-6.354211,-87.341309,-84.716797,26.367188,39.984375
70160,11.674128,12.636597,-18.588581,-19.195557,-6.164551,41.748047,39.992188
70200,4.472369,11.765107,-15.294161,-43.945312,-54.901123,71.350098,39.966797
70240,3.069367,8.906430,-12.737153,-58.563232,-65.979004,76.629639,39.990234
70280,1.790863,4.410120,-9.983821,-21.911621,-55.419922,42.449951,39.966797
70320,2.446874,-0.105345,-4.194642,-0.579834,-17.913818,24.444580,40.007812
70360,4.687847,-2.379837,0.445322,-9.643555,28.411865,25.939941,40.001953
70400,3.878607,-3.155558,1.541866,8.850098,9.643555,-23.681641,39.984375
70440,5.056554,-1.441309,1.106121,-2.441406,-4.058838,-39.550781,39.982422
70480,13.680469,7.843405,-9.706094,-72.845459,10.711670,-15.838623,40.015625
70520,9.504981,12.248735,-20.087353,68.237305,34.790039,-37.658691,39.990234
70560,5.607220,8.738836,-16.328455,54.382324,66.986084,-52.246094,39.980469
70600,3.696647,5.875371,-13.460202,79.162598,53.222656,-90.332031,39.992188
70640,2.035071,5.118803,-7.900866,57.678223,56.640625,-42.510986,39.978516
70680,1.197101,5.147533,-0.301669,16.876221,52.978516,-25.848389,40.003906
70720,0.785298,4.831499,4.352659,25.146484,36.102295,-28.259277,40.000000
70760,-1.431733,2.700660,3.576937,-8.514404,-52.276611,45.837402,39.990234
70800,4.046201,2.001553,2.461239,-15.808105,-51.361084,30.548096,39.998047
70840,13.737929,9.332599,-11.779472,-86.700439,-42.602539,45.715332,40.029297
70880,8.485051,13.594277,-20.140024,-32.196045,-33.569336,50.018311,39.984375
70920,4.223372,11.784261,-14.810532,-63.934326,-65.368652,84.167480,39.998047
70960,3.011906,7.292738,-12.459426,-49.530029,-70.556641,65.704346,39.978516
71000,1.742979,2.073379,-8.288726,-16.693115,-36.956787,29.663086,39.994141
71040,3.485958,-1.637634,-2.245761,-1.708984,4.211426,30.151367,39.998047
71080,4.821922,-3.797204,1.268927,6.134033,18.615723,0.183105,39.984375
71120,2.451663,-3.284845,1.015141,22.766113,37.292480,-60.516357,40.013672
71160,5.693412,1.996764,0.469264,-29.388428,-65.002441,-49.926758,39.976562
71200,12.808979,10.931925,-12.665327,-57.556152,37.078857,-23.803711,39.978516
71240,7.685388,12.717999,-20.278889,66.284180,14.190674,-41.564941,39.958984
71280,4.601655,8.255207,-16.443377,57.617188,62.377930,-64.605713,39.984375
71320,2.858677,5.928043,-12.492945,68.511963,58.227539,-79.406738,39.964844
71360,0.967257,5.822699,-5.631162,27.648926,44.799805,-29.205322,39.957031
71400,1.086968,5.343858,1.604115,17.150879,62.744141,-16.174316,39.972656
71440,-0.392649,3.371036,3.873818,39.581299,20.355225,16.601562,39.978516
71480,-1.584962,1.307234,2.557007,13.641357,-50.109863,62.225342,39.990234
71520,8.231265,5.702989,-0.019154,-88.684082,-97.961426,36.071777,39.951172
71560,12.071565,13.034034,-16.390705,-77.209473,0.183105,79.620361,39.984375
71600,5.114015,12.473791,-17.803284,-26.397705,-52.398682,70.739746,39.966797
71640,3.849876,8.801085,-13.402741,-53.131104,-46.356201,79.864502,39.957031
71680,2.480393,4.946421,-11.176133,-27.587891,-43.151855,40.435791,39.992188
71720,1.963245,1.144428,-6.416461,2.807617,-26.794434,14.648438,39.980469
71760,4.903325,-1.441309,-0.962469,10.803223,44.097900,12.145996,39.988281
71800,4.467580,-2.437297,1.379060,5.554199,65.185547,-15.502930,39.990234
71840,3.500323,-1.335965,1.800440,-6.103516,26.458740,-20.019531,39.974609
71880,10.481815,5.688623,-4.103662,-82.580566,-108.062744,-47.271729,39.984375
71920,11.506534,12.162544,-18.832790,53.009033,66.375732,-39.581299,39.994141
71960,6.574478,10.615891,-17.568651,63.629150,61.523438,-45.104980,39.957031
72000,3.620033,6.871359,-13.790602,80.535889,67.779541,-85.540771,39.960938
72040,2.217031,5.961562,-9.006987,72.174072,53.527832,-62.805176,39.990234
72080,1.383849,5.434838,-2.528277,30.670166,54.382324,-30.853271,39.980469
72120,1.637634,5.109226,3.007117,16.387939,73.211670,-27.893066,39.992188
72160,-0.924162,3.222595,3.452439,10.253906,-20.141602,18.188477,39.994141
72200,1.369483,1.608904,3.447650,0.793457,-15.411377,36.560059,39.974609
72240,12.277467,8.264784,-4.620809,-83.557129,-89.324951,36.956787,39.994141
72280,12.411542,14.623784,-18.971655,-23.254395,-17.395020,57.891846,39.960938
72320,5.286397,12.109872,-15.260642,-47.027588,-53.344727,71.044922,39.980469
72360,3.749320,8.207323,-12.243947,-58.471680,-65.795898,85.418701,39.974609
72400,1.651999,3.940856,-9.418790,-22.857666,-54.077148,48.065186,39.960938
72440,2.020706,-0.282516,-3.955221,7.324219,-21.789551,19.287109,40.000000
72480,4.156334,-2.552219,0.215478,2.746582,18.920898,28.106689,39.974609
72520,2.853889,-2.777274,1.000776,28.076172,3.753662,-35.827637,39.978516
72560,4.185065,-1.383849,2.082955,-21.270752,27.679443,-29.113770,39.982422
72600,14.887146,5.789180,-6.612785,-61.370850,-97.229004,-29.815674,40.001953
72640,12.042834,11.621455,-21.471201,75.775146,91.217041,-51.483154,39.978516
72680,6.665458,9.543288,-17.535133,70.129395,81.787109,-77.911377,39.994141
72720,3.303998,6.722919,-14.020445,80.535889,69.305420,-93.872070,40.005859
72760,2.011129,5.966351,-8.796297,55.572510,70.495605,-53.100586,39.990234
72800,1.039083,5.209783,-1.498770,4.425049,71.868896,-15.869141,39.992188
72840,0.584185,4.367024,3.380613,2.288818,56.152344,-18.157959,40.000000
72880,-2.006341,2.499547,3.145981,4.608154,-52.337646,16.998291,39.988281
72920,2.264915,1.302446,3.945644,3.204346,-26.397705,27.404785,39.998047
72960,12.842498,8.006210,-7.024588,-71.105957,-138.397217,8.178711,39.988281
73000,12.248735,13.158532,-18.239029,-23.834229,8.758545,46.783447,39.982422
73040,5.262455,11.372458,-15.447390,-42.358398,-48.950195,64.453125,39.990234
73080,4.084508,8.657434,-13.043611,-62.011719,-55.023193,78.063965,39.978516
73120,2.221819,4.481946,-10.223241,-33.264160,-44.403076,49.591064,39.968750
73160,1.968034,-0.234632,-4.587290,1.678467,-9.918213,17.639160,39.949219
73200,4.041412,-2.662352,0.191536,5.767822,27.770996,10.101318,39.980469
73240,3.327940,-3.280056,1.455675,22.827148,7.904053,-33.508301,39.970703
73280,2.633622,-2.063802,1.470040,1.678467,19.897461,-28.656006,39.978516
73320,12.090718,6.354211,-3.993528,-79.010010,-101.318359,-49.499512,39.966797
73360,11.075577,12.957419,-18.641254,44.036865,59.814453,-40.252686,39.953125
73400,7.115568,9.892841,-17.851168,57.067871,43.212891,-41.046143,39.972656
73440,5.114015,6.172252,-15.701175,75.439453,69.793701,-94.451904,39.968750
73480,3.361459,5.449203,-11.247959,71.929932,62.103271,-67.687988,39.931641
73520,1.230620,5.875371,-3.145981,17.761230,75.164795,-30.120850,39.974609
73560,-0.119710,5.774815,2.834735,10.101318,40.527344,-22.583008,39.992188
73600,-2.011129,3.509900,3.538630,6.530762,-38.757324,32.623291,39.968750
73640,0.368707,1.465251,2.930503,-2.227783,-42.114258,43.457031,39.953125
73680,10.788273,6.517017,-1.944092,-56.396484,-61.065674,2.716064,39.980469
73720,13.019669,11.602302,-16.582241,-54.382324,-17.822266,73.944092,39.964844
73760,6.770802,11.544841,-16.582241,-30.151367,-29.602051,60.760498,39.984375
73800,4.453215,9.404425,-12.861651,-70.343018,-45.471191,96.008301,39.941406
73840,2.729390,6.248867,-11.133038,-45.074463,-59.967041,57.067871,39.960938
73880,1.489193,1.594538,-6.651093,-7.324219,-29.266357,23.498535,39.945312
73920,2.849100,-1.905785,-1.690306,2.685547,-1.037598,21.911621,39.955078
73960,3.615245,-2.973598,0.962469,6.896973,8.087158,-12.268066,39.953125
74000,3.481169,-2.782062,1.498770,1.373291,16.204834,-26.062012,39.992188
74040,11.200075,2.724602,-0.962469,-39.978027,-81.695557,-81.176758,39.966797
74080,13.876793,11.396400,-17.075447,30.792236,110.931396,-42.968750,39.984375
74120,7.958326,12.507310,-18.660408,59.387207,56.945801,-34.149170,39.980469
74160,4.888960,7.905654,-14.595054,65.551758,88.500977,-63.262939,39.945312
74200,3.241749,6.737284,-11.195287,70.159912,57.983398,-62.133789,39.968750
74240,1.067814,5.099649,-4.965574,35.766602,51.605225,-10.314941,39.929688
74280,0.210690,4.003105,0.952892,9.216309,32.226562,-1.922607,39.978516
74320,-0.454898,3.241749,3.174711,20.477295,-16.265869,-6.988525,39.966797
74360,-0.675165,1.987187,3.193865,3.479004,-56.304932,31.219482,39.974609
74400,6.603208,2.236184,3.648763,-10.192871,-1.129150,28.472900,39.968750
74440,14.034810,12.085930,-11.109096,-116.821289,-74.462891,66.925049,39.978516
74480,9.825804,13.019669,-20.633230,-1.403809,-31.829834,55.053711,39.972656
74520,5.372589,9.782708,-14.504074,-43.304443,-38.909912,59.661865,39.949219
74560,3.351882,7.168240,-11.846510,-48.614502,-57.098389,62.286377,39.958984
74600,1.829170,3.457227,-7.963115,-12.939453,-30.487061,31.463623,39.970703
74640,2.738967,-0.545878,-2.489970,3.936768,-0.488281,20.996094,39.960938
74680,4.132392,-2.197877,0.842759,1.342773,36.621094,7.598877,39.949219
74720,2.279280,-2.446874,0.991199,31.036377,25.421143,-65.002441,39.958984
74760,6.876147,-0.794875,1.719037,-17.547607,-8.666992,-44.952393,39.960938
74800,14.317327,7.771579,-11.353305,-33.813477,32.440186,-33.416748,39.960938
74840,8.599973,12.574347,-19.819202,73.883057,57.983398,-53.283691,39.964844
74880,5.310339,9.275137,-15.174450,58.135986,70.495605,-63.995361,39.958984
74920,4.209007,6.837840,-12.713211,78.826904,63.018799,-83.862305,39.966797
74960,2.245761,5.453991,-7.484274,68.756104,67.779541,-42.327881,39.957031
75000,0.713472,4.845864,-0.675165,27.374268,61.462402,-14.434814,39.962891
75040,0.167594,4.343082,3.706224,31.921387,34.179688,-21.881104,39.947266
75080,-1.508347,2.662352,3.548207,11.474609,-45.379639,26.214600,39.966797
75120,5.846641,2.379837,2.815581,0.579834,-50.781250,10.650635,39.955078
75160,14.250289,10.414778,-12.454638,-87.341309,-29.327393,50.415039,39.947266
75200,8.781932,11.516110,-17.003620,-2.929688,-12.023926,29.968262,39.955078
75240,5.343858,9.983821,-13.120225,-46.844482,-27.832031,68.969727,39.964844
75280,3.950433,7.785944,-11.961432,-43.884277,-48.065186,63.690186,39.943359
75320,1.977611,4.242526,-8.413225,-20.141602,-36.621094,27.313232,39.958984
75360,1.963245,0.009577,-3.615245,8.880615,-14.068604,2.655029,39.966797
75400,3.629610,-2.140416,-0.081403,4.852295,17.944336,2.014160,39.951172
75440,3.112462,-2.825158,1.024718,14.221191,6.469727,-35.369873,39.958984
75480,4.850653,-1.857901,1.527501,8.117676,20.965576,-41.137695,39.966797
75520,13.642161,6.325481,-6.655881,-69.427490,-24.932861,-38.452148,39.980469
75560,10.409989,13.364434,-19.464859,68.725586,80.261230,-61.859131,39.974609
75600,6.325481,10.869676,-16.950949,52.734375,68.237305,-45.379639,39.957031
75640,3.864242,7.354988,-14.690822,78.826904,61.706543,-87.127686,39.957031
75680,2.724602,6.354211,-9.730036,63.812256,58.258057,-58.868408,39.949219
75720,1.714248,5.410896,-2.298434,9.735107,58.929443,-13.946533,39.949219
75760,0.943315,4.510676,2.667141,-0.244141,47.698975,-12.542725,39.955078
75800,-1.618480,2.585738,2.825158,5.157471,-44.128418,26.794434,39.951172
75840,0.493206,1.158794,3.481169,0.946045,-36.590576,39.367676,39.958984
75880,10.534488,5.535394,-0.651223,-53.894043,-79.895020,1.281738,39.970703
75920,14.676456,12.636597,-17.784130,-44.525146,-17.913818,66.802979,39.955078
75960,7.259220,11.669339,-17.822437,-23.040771,-39.733887,55.816650,39.947266
76000,4.582502,8.963891,-12.627020,-59.692383,-45.562744,79.711914,39.933594
76040,2.676718,5.463568,-10.611102,-36.895752,-52.520752,58.593750,39.984375
76080,1.814805,1.312023,-5.956774,-3.326416,-17.303467,15.747070,39.958984
76120,3.045424,-1.120486,-1.091756,-1.708984,4.608154,7.598877,39.968750
76160,3.160346,-1.757344,1.154005,-3.356934,36.010742,-12.481689,39.957031
76200,3.189077,-2.082955,2.011129,-12.695312,18.402100,-15.563965,39.960938
76240,11.506534,2.614468,-2.346318,-34.484863,-120.574951,-99.578857,39.939453
76280,13.517663,10.357317,-18.483236,42.480469,108.825684,-46.966553,39.945312
76320,7.120356,11.037270,-18.440142,61.248779,49.896240,-54.595947,39.958984
76360,4.070143,7.580042,-14.441825,72.204590,74.951172,-82.672119,39.953125
76400,2.829947,6.679823,-10.467450,73.394775,52.825928,-69.305420,39.972656
76440,1.704672,5.784391,-3.605668,14.038086,60.913086,-18.890381,39.958984
76480,1.067814,4.888960,2.298434,-8.148193,60.272217,-14.312744,39.968750
76520,-1.086968,2.786851,3.653552,19.714355,-10.894775,1.251221,39.966797
76560,0.191536,1.225831,3.624821,1.739502,-39.062500,34.454346,39.970703
76600,10.812215,7.426814,-2.489970,-63.446045,-109.405518,12.512207,39.962891
76640,13.814544,13.101071,-17.659632,-27.252197,-30.120850,61.492920,39.951172
76680,6.440403,11.147403,-15.696386,-28.625488,-46.905518,59.997559,39.955078
76720,3.926491,8.777143,-11.994950,-63.323975,-57.495117,82.519531,39.958984
76760,2.303222,5.104438,-9.911995,-32.836914,-54.504395,47.363281,39.968750
76800,1.920150,0.445322,-4.788404,1.647949,-11.444092,19.592285,39.964844
76840,3.533842,-2.571373,-0.081403,12.603760,28.167725,6.774902,39.951172
76880,3.361459,-3.246537,1.508347,27.618408,1.739502,-39.825439,39.945312
76920,3.533842,-2.647987,1.537078,4.302979,21.118164,-37.780762,39.964844
76960,13.206416,6.727707,-5.204995,-85.205078,-79.559326,-31.616211,39.951172
77000,11.109096,13.125013,-19.053057,59.204102,62.896729,-44.830322,39.955078
77040,7.053318,10.347740,-17.075447,57.128906,54.229736,-38.940430,39.945312
77080,4.821922,6.991069,-14.355634,68.328857,73.638916,-80.505371,39.960938
77120,2.901772,6.229713,-9.706094,71.228027,62.286377,-56.335449,39.976562
77160,0.344765,5.238513,-2.940080,22.949219,40.802002,-15.197754,39.960938
77200,0.138864,5.377377,2.815581,5.218506,16.204834,-19.927979,39.966797
77240,-1.187524,3.485958,3.481169,2.258301,-40.100098,23.010254,39.953125
77280,0.598550,1.043872,3.227384,-9.277344,-45.501709,55.053711,39.972656
77320,10.381259,3.548207,-1.355118,-29.357910,-84.808350,9.704590,39.943359
77360,14.250289,11.559206,-17.434576,-52.093506,11.749268,58.532715,39.955078
77400,6.454768,12.085930,-17.755400,-18.829346,-34.088135,45.654297,39.968750
77440,3.778050,9.969456,-12.976573,-60.638428,-47.424316,75.897217,39.968750
77480,2.456451,6.469133,-11.516110,-39.947510,-60.913086,53.649902,39.953125
77520,2.130840,1.905785,-7.005434,-7.110596,-30.487061,20.812988,39.951172
77560,3.840300,-1.302446,-1.781286,0.793457,8.026123,19.500732,39.929688
77600,3.821146,-2.221819,0.708684,-3.723145,43.090820,2.014160,39.970703
77640,2.236184,-2.355895,1.091756,13.488770,19.714355,-42.633057,39.964844
77680,8.652645,1.489193,0.301669,-35.247803,-67.718506,-71.929932,39.962891
77720,14.144943,9.490616,-16.692375,25.451660,71.655273,-59.295654,39.968750
77760,8.633492,12.071565,-20.398598,72.875977,62.042236,-55.633545,39.939453
77800,4.534618,8.513782,-14.671668,76.080322,89.599609,-92.956543,39.955078
77840,1.991976,7.038953,-11.104307,75.897217,48.187256,-85.235596,39.949219
77880,1.331176,5.875371,-5.118803,27.374268,52.886963,-20.477295,39.966797
77920,1.149217,4.893748,0.876278,-22.888184,53.283691,1.586914,39.931641
77960,-0.445322,2.829947,3.423708,11.657715,20.202637,-0.488281,39.958984
78000,-1.254562,1.359907,3.859453,3.875732,-61.035156,21.392822,39.970703
78040,6.038177,3.174711,3.112462,-25.604248,-42.358398,18.249512,39.957031
78080,13.599066,13.795390,-13.594277,-109.832764,-89.569092,81.176758,39.966797
78120,8.805874,14.030022,-20.580557,-12.237549,-57.830811,73.333740,39.970703
78160,4.438850,9.533711,-14.360422,-62.133789,-64.819336,94.390869,39.968750
78200,2.628834,5.861006,-12.306197,-47.576904,-67.535400,80.047607,39.964844
78240,2.202666,1.848324,-8.145074,1.342773,-27.526855,37.200928,39.958984
78280,3.366248,-1.556231,-2.561796,20.141602,26.641846,19.958496,39.955078
78320,3.691859,-2.566584,0.928950,15.655518,42.114258,2.288818,39.958984
78360,1.446098,-2.686294,1.656788,34.576416,17.211914,-51.116943,39.962891
78400,6.339846,0.402226,1.508347,-9.429932,-37.811279,-62.957764,39.960938
78440,13.910312,9.212888,-12.354081,-47.912598,40.466309,-10.620117,39.960938
78480,9.576807,11.932701,-20.824766,68.817139,53.222656,-55.053711,39.962891
78520,5.535394,7.656657,-16.510414,68.237305,95.703125,-72.326660,39.960938
78560,3.236961,5.947197,-13.474567,74.584961,64.483643,-80.566406,39.958984
78600,1.575385,5.702989,-7.603985,37.231445,64.514160,-42.236328,39.958984
78640,0.541090,5.315128,-0.550666,-3.509521,60.058594,-23.620605,39.968750
78680,-0.114922,3.892972,3.552995,21.026611,24.139404,-19.226074,39.980469
78720,-1.513135,2.212242,3.347094,4.058838,-50.079346,36.102295,39.990234
78760,5.616797,2.121263,2.106898,3.936768,-55.664062,16.815186,39.960938
78800,13.498509,10.256760,-12.090718,-102.996826,-38.238525,86.212158,39.957031
78840,8.815451,11.051635,-17.549498,-4.699707,-29.266357,40.985107,39.951172
78880,5.453991,8.877700,-13.508086,-49.682617,-26.794434,75.286865,39.970703
78920,4.050989,5.947197,-12.382812,-44.555664,-50.689697,74.035645,39.958984
78960,2.020706,3.040636,-8.743625,-18.829346,-39.245605,40.832520,39.951172
79000,1.972822,-0.100556,-3.342306,9.399414,-10.833740,9.674072,39.964844
79040,3.706224,-1.532289,0.857124,1.037598,42.053223,-4.119873,39.958984
79080,2.331953,-2.173935,1.800440,5.371094,16.998291,-40.313721,39.964844
79120,5.702989,-1.048660,2.082955,-16.876221,-8.636475,-36.987305,39.982422
79160,15.327680,6.938396,-9.667787,-23.803711,14.648438,-33.538818,39.968750
79200,10.491392,12.229582,-20.934900,61.065674,62.835693,-41.229248,39.945312
79240,6.081272,8.767567,-17.061081,66.589355,70.678711,-58.654785,39.970703
79280,3.878607,6.742072,-13.699622,79.101562,55.358887,-84.503174,39.955078
79320,2.451663,6.306327,-8.494628,45.166016,58.044434,-45.989990,39.966797
79360,0.383072,5.248090,-1.867477,-10.589600,32.531738,-1.159668,39.958984
79400,-0.081403,4.232949,2.887407,3.692627,4.669189,-12.756348,39.951172
79440,-1.489193,2.705448,3.485958,-1.770020,-51.940918,28.594971,39.943359
79480,3.265691,0.995988,4.635174,-5.004883,-6.378174,50.842285,39.964844
79520,11.525687,7.915231,-4.644751,-72.418213,-73.944092,23.010254,39.964844
79560,11.070788,13.924677,-20.628443,-50.903320,-42.236328,88.592529,39.970703
79600,5.056554,11.420342,-16.467319,-43.304443,-70.983887,80.993652,39.953125
79640,3.050213,7.929596,-11.942278,-65.002441,-73.760986,94.329834,39.974609
79680,1.422156,4.520253,-9.615114,-45.532227,-73.181152,56.335449,39.937500
79720,2.154782,0.325611,-4.764462,-27.221680,-38.513184,34.423828,39.955078
79760,4.663905,-3.222595,-0.397437,-24.505615,15.411377,55.969238,39.964844
79800,3.462016,-2.940080,1.465251,-9.490967,13.580322,-3.967285,39.955078
79840,3.869030,0.665588,1.398214,-57.067871,-37.139893,-13.671875,39.972656
79880,11.477803,8.791509,-7.699753,-157.043457,-37.048340,18.402100,39.970703
79920,11.180922,10.184934,-20.796036,56.762695,21.789551,-40.039062,39.941406
79960,6.742072,8.762778,-17.118542,50.537109,45.684814,-49.835205,39.974609
80000,2.829947,7.287950,-12.085930,56.304932,58.654785,-85.998535,39.974609
80040,1.575385,5.066131,-7.570466,63.232422,61.859131,-68.420410,39.955078
80080,0.900220,3.418920,-2.164358,38.421631,37.902832,-35.491943,39.984375
80120,1.546654,2.480393,2.159570,25.909424,53.070068,-1.861572,39.978516
80160,0.603339,2.250550,3.869030,20.446777,-3.051758,32.073975,39.953125
80200,3.715801,5.391742,3.150769,-67.962646,-50.628662,39.459229,39.960938
80240,11.731588,11.492168,-11.353305,-108.184814,-83.557129,55.725098,39.974609
80280,8.595184,10.213664,-22.050598,1.892090,-32.104492,46.508789,39.958984
80320,4.505888,8.786720,-15.452178,-48.950195,-15.197754,41.625977,39.980469
80360,2.355895,7.029376,-11.745954,-57.373047,-54.962158,60.882568,39.955078
80400,1.383849,3.059790,-7.474698,-16.784668,-29.327393,16.052246,39.955078
80440,2.968810,-1.292869,-1.853112,10.314941,39.123535,-6.103516,39.949219
80480,3.821146,-3.165135,1.517924,-2.349854,-3.631592,-19.378662,39.964844
80520,2.145205,-3.428497,1.312023,13.183594,-4.516602,-54.077148,39.978516
80560,10.582372,2.499547,-1.513135,-45.074463,-91.491699,-81.604004,39.964844
80600,13.666103,12.780249,-16.606182,-21.575928,79.162598,25.604248,39.978516
80640,6.746861,13.273455,-18.397045,47.912598,-10.437012,-16.510010,39.955078
80680,3.629610,7.671022,-14.389153,48.126221,42.999268,-46.051025,39.962891
80720,2.868254,6.095637,-11.152191,43.823242,29.174805,-62.500000,39.958984
80760,2.059013,5.367800,-4.960786,-8.636475,17.944336,5.157471,39.953125
80800,1.762132,4.462792,1.292869,-19.104004,30.609131,18.249512,39.949219
80840,-0.402226,2.255338,3.007117,9.063721,-21.820068,35.461426,39.953125
80880,-1.043872,0.603339,2.561796,-7.568359,-80.718994,55.725098,39.941406
80920,7.287950,1.632846,2.111686,-23.742676,-55.877686,35.247803,39.976562
80960,15.734694,10.046070,-14.724340,-65.795898,2.868652,102.905273,39.964844
81000,8.274361,14.590265,-21.835119,-29.113770,-36.773682,88.592529,39.964844
81040,2.671929,11.578360,-14.810532,-65.643311,-71.441650,97.045898,39.964844
81080,0.656011,6.488286,-11.994950,-49.102783,-70.892334,79.681396,39.960938
81120,1.096544,1.082179,-7.402872,-4.669189,-29.174805,24.780273,39.962891
81160,3.739743,-1.833959,-1.900996,-13.244629,-7.171631,29.693604,39.951172
81200,4.367024,-2.810793,0.957681,-21.575928,7.873535,6.439209,39.970703
81240,3.069367,-2.901772,1.125275,13.488770,11.169434,-49.499512,39.982422
81280,10.338163,1.513135,-0.090980,-26.153564,-44.250488,-55.145264,39.966797
81320,13.493721,10.539276,-15.715540,-4.028320,68.481445,2.044678,39.982422
81360,7.589619,12.866440,-19.507956,55.877686,29.602051,-38.787842,39.958984
81400,4.060566,7.929596,-15.519216,69.274902,65.002441,-66.253662,39.994141
81440,2.485181,5.750873,-12.066776,70.678711,47.790527,-70.526123,39.968750
81480,1.493982,4.941632,-4.999093,16.662598,57.495117,-11.413574,39.958984
81520,1.987187,4.855441,2.087744,-7.019043,53.558350,-6.225586,39.955078
81560,0.167594,3.385401,3.797204,12.390137,4.913330,11.810303,39.951172
81600,-0.440533,1.460463,3.409343,-3.448486,-40.069580,50.415039,39.939453
81640,9.811439,3.246537,-0.248997,-9.582520,-90.332031,4.852295,39.964844
81680,13.077129,12.138602,-16.898275,-67.901611,-21.850586,77.423096,39.949219
81720,5.415684,12.732365,-17.506403,-25.085449,-58.593750,53.375244,39.957031
81760,3.576937,9.155427,-13.235147,-62.194824,-71.044922,80.596924,39.964844
81800,2.260126,5.013458,-11.271901,-36.132812,-73.425293,57.342529,39.964844
81840,2.001553,0.890643,-5.851429,-2.105713,-32.958984,19.897461,39.955078
81880,4.544195,-2.001553,-0.268151,-3.509521,27.313232,20.843506,39.947266
81920,4.936844,-2.686294,2.059013,3.906250,8.209229,-26.489258,39.964844
81960,4.319140,-2.288857,1.651999,0.915527,18.371582,-47.149658,39.978516
82000,11.104307,5.315128,-5.635951,-73.364258,-74.615479,-37.139893,39.958984
82040,11.468226,12.909535,-19.201498,48.126221,58.563232,-33.569336,39.988281
82080,6.708553,11.046846,-17.262194,51.025391,44.708252,-34.545898,39.986328
82120,4.295198,6.493075,-14.293385,73.455811,73.333740,-78.918457,39.980469
82160,2.059013,4.778827,-10.395624,71.716309,54.107666,-59.692383,39.970703
82200,0.483629,4.759673,-3.007117,6.469727,34.393311,-10.070801,39.986328
82240,1.235408,5.238513,3.471592,0.946045,41.107178,-25.268555,39.957031
82280,-1.015141,3.490746,3.830723,-4.241943,-38.238525,25.115967,39.978516
82320,1.230620,1.891419,3.514688,-13.061523,-36.987305,49.621582,39.960938
82360,11.650186,6.818686,-3.859453,-61.248779,-89.385986,28.381348,39.980469
82400,12.464214,13.397953,-20.863073,-26.062012,-33.782959,66.589355,39.976562
82440,5.406107,11.803414,-16.419436,-34.088135,-44.677734,56.915283,39.962891
82480,2.614468,8.250419,-11.726800,-66.558838,-59.234619,83.862305,39.976562
82520,1.182736,3.754108,-9.318233,-23.010254,-51.910400,44.921875,39.978516
82560,2.523489,-0.641646,-3.869030,10.345459,-15.075684,22.033691,39.968750
82600,4.754885,-2.782062,0.325611,6.866455,32.135010,30.914307,39.982422
82640,3.256114,-2.528277,1.441309,29.785156,32.806396,-51.391602,39.949219
82680,5.343858,-0.828394,2.087744,-13.977051,15.411377,-42.510986,39.970703
82720,14.355634,6.038177,-8.762778,-29.418945,-11.932373,-49.926758,39.984375
82760,10.812215,13.699622,-22.093693,67.565918,87.493896,-37.719727,39.966797
82800,5.027823,10.649409,-17.343597,71.197510,57.556152,-52.490234,39.951172
82840,2.207454,7.359776,-13.311762,82.855225,53.741455,-91.766357,39.966797
82880,1.470040,6.224925,-7.728483,51.330566,54.138184,-49.407959,39.966797
82920,1.115698,5.152322,-1.244985,-5.767822,31.250000,-6.164551,39.960938
82960,1.101333,3.782839,3.232172,-2.227783,52.642822,-12.145996,39.958984
83000,-0.962469,1.781286,3.423708,22.399902,-30.853271,11.718750,39.958984
83040,3.045424,1.024718,3.988740,3.326416,-7.324219,25.390625,39.966797
83080,12.411542,8.911219,-7.062895,-79.925537,-109.741211,20.568848,39.957031
83120,11.008539,14.949395,-19.833567,-7.995605,-13.702393,53.100586,39.966797
83160,4.084508,12.057199,-15.073894,-39.031982,-58.532715,69.793701,39.964844
83200,2.743755,7.833828,-11.961432,-46.600342,-61.737061,71.563721,39.968750
83240,1.436521,3.452439,-8.844181,-10.345459,-41.900635,38.238525,39.960938
83280,2.427721,-0.852336,-3.481169,18.493652,-6.561279,16.662598,39.964844
83320,4.462792,-2.882619,0.402226,8.331299,34.179688,18.371582,39.955078
83360,3.236961,-2.887407,1.407791,47.546387,23.559570,-66.467285,39.974609
83400,4.481946,-1.110910,1.565808,-5.706787,23.132324,-44.250488,39.978516
83440,13.948619,8.652645,-9.169792,-53.588867,-12.756348,-35.003662,39.978516
83480,10.218452,13.225570,-20.484789,68.572998,60.394287,-58.349609,39.980469
83520,5.391742,9.911995,-17.276560,58.349609,72.906494,-70.892334,39.970703
83560,3.280056,7.283162,-14.772224,80.627441,60.760498,-98.022461,39.970703
83600,1.757344,6.172252,-8.968679,56.274414,58.532715,-54.321289,39.972656
83640,1.206678,6.105214,-1.154005,-8.911133,62.927246,-30.334473,39.949219
83680,0.608127,4.932055,3.749320,2.899170,49.133301,-21.057129,39.984375
83720,-2.006341,1.929727,3.481169,5.737305,-41.076660,44.158936,39.976562
83760,-0.287304,0.550666,2.355895,4.486084,-66.558838,40.191650,39.960938
83800,12.162544,5.339070,-4.146757,-52.093506,-101.104736,2.563477,39.992188
83840,12.746730,11.477803,-17.707516,-44.036865,11.596680,59.082031,39.964844
83880,4.908113,12.033257,-16.227900,-23.315430,-33.233643,51.025391,39.964844
83920,2.949656,9.332599,-12.971785,-52.947998,-49.468994,75.683594,39.972656
83960,2.260126,6.081272,-11.204864,-35.675049,-56.610107,50.384521,39.978516
84000,2.336741,1.795651,-6.636727,-5.950928,-25.115967,23.468018,39.976562
84040,4.175488,-1.450886,-1.556231,2.899170,22.918701,20.385742,39.966797
84080,3.509900,-2.461239,0.814029,7.507324,38.269043,-14.923096,39.957031
84120,2.049437,-2.365471,1.201889,5.645752,14.556885,-20.751953,39.970703
84160,10.386047,2.987964,-0.363919,-38.330078,-81.604004,-62.194824,39.976562
84200,13.503298,11.377247,-17.319654,19.378662,86.273193,-39.367676,39.958984
84240,7.637504,11.822568,-19.560627,58.807373,59.143066,-57.861328,39.970703
84280,3.821146,7.479486,-15.557523,68.023682,69.946289,-78.002930,39.968750
84320,2.475605,6.991069,-11.439496,70.129395,47.790527,-79.193115,39.988281
84360,1.465251,5.573701,-4.788404,32.440186,57.617188,-31.677246,39.980469
84400,1.450886,4.874595,1.407791,-18.402100,41.168213,-11.993408,39.964844
84440,-0.052672,3.098097,3.323152,3.234863,3.387451,0.244141,39.968750
84480,-1.063026,1.527501,3.184288,-6.072998,-56.793213,36.193848,39.968750
84520,6.943185,2.317587,2.590526,-17.395020,-23.345947,18.890381,39.984375
84560,14.216769,11.377247,-13.939042,-74.615479,-43.762207,65.673828,39.974609
84600,8.312668,13.838486,-19.867086,-21.240234,-42.388916,67.016602,39.960938
84640,3.687071,10.534488,-13.551182,-60.180664,-60.577393,76.660156,39.968750
84680,1.953669,6.196194,-11.372458,-50.476074,-65.155029,71.685791,39.984375
84720,1.355118,1.891419,-7.493851,-17.944336,-45.227051,30.090332,39.964844
84760,3.552995,-1.417367,-2.130840,-8.148193,-19.744873,36.102295,39.966797
84800,4.644751,-2.691083,0.818817,-3.326416,38.574219,13.183594,39.957031
84840,2.513912,-2.614468,1.115698,17.944336,24.475098,-57.250977,39.968750
84880,9.093178,0.746991,0.430956,-27.893066,-69.335938,-62.133789,39.968750
84920,14.757859,10.299856,-15.749059,15.808105,82.305908,-39.031982,39.978516
84960,8.422802,12.976573,-20.408175,63.018799,53.192139,-43.518066,39.990234
85000,4.060566,8.379706,-15.404294,70.343018,71.258545,-65.246582,39.972656
85040,2.418144,6.291962,-11.827356,71.319580,56.671143,-82.916260,39.978516
85080,1.120486,4.501099,-5.544971,36.437988,70.343018,-28.839111,39.980469
85120,1.072602,4.036624,0.943315,-0.854492,42.144775,-13.214111,39.990234
85160,0.363919,3.294421,3.667917,14.739990,31.677246,-7.415771,39.964844
85200,-1.383849,2.164358,3.303998,-2.990723,-61.065674,31.005859,39.994141
85240,6.665458,2.940080,3.155558,-22.888184,-40.405273,19.927979,40.000000
85280,13.857639,11.654974,-13.838486,-86.853027,-66.162109,65.551758,39.980469
85320,8.001422,11.956643,-19.603724,3.173828,-32.135010,47.302246,39.974609
85360,4.611232,9.466674,-13.809755,-45.623779,-33.630371,60.089111,39.988281
85400,2.561796,7.580042,-12.349293,-52.856445,-62.957764,66.864014,40.000000
85440,1.053449,3.711013,-8.006210,-16.052246,-36.834717,32.440186,39.990234
85480,2.667141,-0.445322,-2.341529,3.540039,-5.065918,15.655518,39.984375
85520,4.414908,-2.197877,0.847547,-3.997803,23.437500,1.556396,39.964844
85560,2.782062,-3.174711,1.005565,18.157959,3.173828,-42.388916,39.974609
85600,7.278373,-0.287304,1.187524,-24.749756,-14.739990,-41.992188,39.953125
85640,14.293385,10.333375,-12.258312,-41.992188,69.030762,-11.993408,39.988281
85680,7.862558,13.225570,-19.541473,60.791016,29.327393,-33.172607,39.988281
85720,5.037400,8.226477,-15.102624,48.278809,75.256348,-52.368164,39.990234
85760,3.696647,6.028600,-12.828133,64.208984,59.570312,-68.420410,39.972656
85800,1.699883,5.257667,-7.498640,52.825928,50.201416,-31.951904,39.984375
85840,0.636858,5.046977,-0.794875,8.850098,34.393311,-14.190674,39.992188
85880,0.809240,4.539406,3.538630,7.263184,35.156250,-18.188477,39.980469
85920,-1.685518,2.437297,2.896984,-11.260986,-55.786133,43.060303,39.982422
85960,2.676718,1.206678,3.433285,-12.481689,-26.428223,40.100098,39.996094
86000,14.121001,7.311892,-7.857770,-58.807373,-63.751221,18.920898,39.970703
86040,11.003751,13.326127,-20.063410,-16.143799,-1.861572,53.192139,39.986328
86080,4.161122,11.990162,-14.690822,-41.198730,-49.774170,71.319580,39.994141
86120,3.007117,8.513782,-12.387600,-58.074951,-61.737061,95.336914,39.980469
86160,2.173935,4.319140,-10.529699,-23.284912,-58.319092,54.840088,39.970703
86200,2.638410,0.081403,-5.310339,9.918213,-14.526367,17.852783,39.984375
86240,3.993528,-1.843535,-0.785298,1.831055,25.329590,17.517090,39.970703
86280,2.834735,-1.810017,1.221043,3.356934,45.898438,-25.054932,39.984375
86320,3.222595,-1.350330,2.250550,-17.211914,33.874512,-26.916504,39.970703
86360,11.597513,3.869030,-3.208230,-49.316406,-115.875244,-53.588867,39.990234
86400,12.559982,11.769896,-19.900604,46.600342,91.430664,-41.992188,39.988281
86440,6.684611,11.477803,-18.655621,55.877686,60.180664,-57.434082,39.980469
86480,3.179500,7.359776,-14.590265,71.716309,71.166992,-90.637207,39.968750
86520,1.819593,6.459556,-10.280702,62.835693,45.104980,-69.396973,39.990234
86560,1.235408,5.506664,-3.509900,9.094238,50.079346,-12.207031,39.958984
86600,1.163582,3.816358,1.776498,-3.448486,45.623779,-2.929688,39.986328
86640,-0.933739,1.556231,2.695871,20.446777,8.300781,5.065918,39.978516
86680,0.555455,1.082179,4.280833,11.199951,-27.252197,13.153076,39.976562
86720,10.036493,6.617573,0.976834,-50.811768,-81.878662,-18.249512,40.000000
86760,13.728353,16.491261,-17.281347,-63.049316,-37.689209,68.054199,39.988281
86800,6.124368,13.029245,-18.775330,-13.000488,-65.155029,68.298340,39.964844
86840,3.730166,9.083601,-12.172121,-68.359375,-41.717529,85.479736,39.970703
86880,2.408567,5.870583,-10.175357,-48.736572,-50.781250,65.551758,39.972656
86920,2.025495,0.986411,-5.937620,3.692627,0.579834,35.125732,39.974609
86960,3.117251,-2.523489,-1.211466,14.404297,40.618896,25.207520,39.980469
87000,2.355895,-2.829947,1.086968,35.552979,8.026123,-35.552979,39.962891
87040,3.059790,-2.260126,2.269703,-2.014160,24.139404,-31.280518,39.958984
87080,13.464991,4.764462,-3.936068,-56.427002,-123.748779,-64.544678,39.970703
87120,12.708423,12.081141,-19.182344,57.495117,98.724365,-51.361084,39.988281
87160,6.478710,11.319786,-17.755400,61.981201,60.699463,-57.373047,39.980469
87200,3.734955,7.331046,-14.331692,74.066162,80.078125,-89.538574,39.986328
87240,1.939303,6.268020,-9.701305,69.274902,65.887451,-59.753418,39.978516
87280,0.220267,5.540183,-2.327164,15.441895,44.921875,-16.021729,39.972656
87320,0.196325,4.917690,3.404555,10.528564,30.548096,-22.247314,39.980469
87360,-1.201889,3.021482,4.266468,19.927979,-27.770996,17.852783,39.964844
87400,2.954445,1.814805,3.758897,-6.317139,-52.398682,41.290283,39.964844
87440,12.497733,8.408437,-8.398860,-82.031250,-97.900391,32.958984,39.978516
87480,10.955867,11.750742,-16.931795,-11.199951,4.455566,28.900146,39.980469
87520,5.846641,10.773908,-14.025233,-46.691895,-31.250000,73.852539,39.980469
87560,4.098873,8.781932,-12.808979,-62.286377,-54.351807,90.789795,39.966797
87600,2.030283,5.391742,-10.314221,-37.719727,-55.938721,60.943604,39.994141
87640,1.613692,0.665588,-5.142745,2.349854,-11.291504,16.204834,39.972656
87680,3.083732,-2.011129,-0.536301,-5.523682,21.331787,15.106201,39.978516
87720,3.236961,-2.667141,1.680730,-1.037598,-10.772705,-16.510010,39.957031
87760,4.084508,-2.183512,2.106898,-8.270264,21.759033,-39.611816,39.974609
87800,12.267890,4.544195,-4.357447,-65.093994,-89.385986,-42.541504,39.984375
87840,12.248735,12.966996,-19.163191,40.008545,70.648193,-28.839111,39.974609
87880,7.240066,11.171345,-17.410635,45.410156,60.241699,-55.664062,39.978516
87920,4.237737,7.168240,-14.288596,59.631348,83.282471,-88.806152,39.986328
87960,2.173935,6.349423,-10.405201,55.816650,46.020508,-65.551758,39.970703
88000,1.335965,5.272032,-3.284845,10.864258,60.943604,-30.792236,39.974609
88040,1.321599,4.582502,2.557007,-6.530762,61.096191,-25.726318,39.970703
88080,-0.890643,2.557007,3.213019,-0.213623,-32.958984,10.406494,39.953125
88120,0.220267,0.560243,3.265691,7.263184,-40.832520,29.754639,39.974609
88160,8.877700,4.098873,0.047884,-22.674561,-55.603027,14.038086,39.992188
88200,13.982138,14.595054,-16.170439,-70.770264,-33.477783,78.674316,39.968750
88240,6.186617,14.365211,-17.731459,-21.759033,-81.176758,68.847656,39.978516
88280,3.356671,9.983821,-12.488156,-65.277100,-75.469971,94.146729,39.958984
88320,2.126051,5.099649,-10.788273,-40.679932,-74.310303,66.406250,39.964844
88360,2.370260,0.632069,-6.133945,0.305176,-25.054932,31.494141,39.982422
88400,3.711013,-1.838747,-1.106121,3.051758,19.866943,31.005859,39.986328
88440,2.796427,-2.336741,1.163582,15.350342,35.278320,-26.184082,40.000000
88480,2.887407,-2.078167,2.284068,-11.413574,15.106201,-13.732910,39.984375
88520,11.037270,2.858677,-1.805228,-30.975342,-146.820068,-66.528320,39.992188
88560,13.766660,10.433931,-19.723434,47.119141,99.609375,-39.794922,39.970703
88600,6.995857,11.832145,-20.733788,70.983887,52.459717,-67.382812,39.972656
88640,3.098097,7.489063,-14.777013,83.892822,76.599121,-94.848633,39.953125
88680,1.608904,6.751649,-10.266336,66.772461,58.319092,-73.913574,39.990234
88720,1.187524,6.502652,-3.438074,-5.096436,59.204102,-11.444092,39.980469
88760,1.034295,5.406107,2.485181,-39.489746,63.873291,-3.112793,39.968750
88800,-1.130063,1.939303,3.883395,16.387939,-8.941650,10.345459,39.982422
88840,-0.660800,0.095768,3.658340,10.437012,-50.964355,37.475586,39.968750
88880,9.294291,3.548207,-0.119710,-17.486572,-112.304688,-2.014160,39.978516
88920,14.738706,13.728353,-18.191145,-57.250977,-20.904541,69.122314,39.978516
88960,6.210559,13.148955,-18.636467,-12.329102,-55.297852,53.253174,39.968750
89000,2.796427,9.639056,-12.684481,-54.565430,-54.992676,74.981689,39.978516
89040,1.742979,5.822699,-10.965444,-40.222168,-67.504883,64.239502,39.980469
89080,1.838747,0.804452,-6.210559,1.037598,-22.216797,28.991699,39.978516
89120,4.290410,-2.509123,-0.967257,3.723145,32.226562,29.418945,39.957031
89160,4.223372,-2.983175,1.455675,30.426025,17.944336,-46.081543,39.990234
89200,3.136404,-2.331953,1.513135,5.859375,53.619385,-50.872803,39.978516
89240,10.572795,4.917690,-3.303998,-59.265137,-128.479004,-48.858643,39.980469
89280,11.755530,13.354857,-18.267759,36.041260,82.641602,-41.442871,39.980469
89320,6.718130,11.631032,-18.449718,50.903320,50.445557,-42.602539,39.974609
89360,3.969586,6.660669,-14.714764,63.537598,87.249756,-77.880859,39.974609
89400,1.618480,5.367800,-10.548853,60.638428,56.213379,-59.204102,39.955078
89440,0.124498,4.836287,-3.514688,9.338379,40.588379,-12.481689,39.968750
89480,0.727837,4.323928,2.284068,3.631592,28.228760,-21.759033,39.955078
89520,-0.158017,2.595315,3.840300,25.238037,-3.936768,-2.746582,39.994141
89560,0.325611,1.915361,3.720589,-7.934570,-39.062500,30.273438,39.974609
89600,9.188946,5.171476,0.445322,-41.046143,-53.375244,4.943848,39.982422
89640,13.795390,13.828909,-17.621325,-60.119629,-26.245117,55.969238,39.951172
89680,6.397307,13.105860,-18.962078,-10.192871,-57.922363,63.507080,39.968750
89720,3.040636,9.696517,-12.526464,-59.539795,-59.509277,88.195801,39.960938
89760,1.891419,6.100426,-11.492168,-34.698486,-74.584961,65.856934,39.974609
89800,1.857901,1.455675,-7.058106,11.749268,-27.832031,19.165039,39.964844
89840,3.394978,-1.551443,-1.546654,14.190674,7.873535,19.134521,39.958984
89880,3.859453,-1.968034,1.264138,2.044678,48.065186,11.352539,39.972656
89920,2.092532,-1.776498,1.628057,11.871338,15.594482,-44.158936,39.974609
89960,8.370130,1.043872,1.316811,-24.658203,-54.046631,-47.607422,39.976562
90000,13.996503,8.892065,-16.021997,10.070801,62.011719,-40.771484,39.976562
90040,7.953538,13.010092,-22.524649,65.734863,61.462402,-53.192139,39.974609
90080,3.371036,8.389283,-16.175226,76.843262,72.174072,-85.784912,39.980469
90120,1.350330,7.091625,-12.009315,67.321777,51.086426,-85.510254,39.984375
90160,1.671153,6.900089,-5.300763,7.965088,63.110352,-25.970459,39.988281
90200,1.723825,5.597643,0.861913,-44.189453,52.520752,4.241943,39.982422
90240,0.105345,2.547431,3.404555,2.502441,43.182373,1.098633,39.988281
90280,-0.660800,0.320823,3.610456,16.754150,-27.923584,21.270752,39.968750
90320,5.947197,2.054225,1.584962,-13.153076,-66.558838,16.174316,39.984375
90360,13.924677,12.291832,-13.891158,-83.557129,-34.606934,80.993652,39.982422
90400,7.513005,13.958196,-19.086576,-13.092041,-54.260254,54.504395,40.000000
90440,3.232172,10.357317,-13.742718,-56.365967,-61.584473,83.557129,39.980469
90480,2.063802,6.651093,-11.784261,-50.872803,-71.197510,72.265625,39.974609
90520,2.389413,1.877054,-7.422025,-13.946533,-21.240234,39.093018,39.947266
90560,4.491522,-1.991976,-1.513135,-0.396729,50.476074,17.120361,39.972656
90600,4.711789,-3.265691,1.508347,25.817871,20.294189,-35.491943,39.988281
90640,1.781286,-3.227384,0.775721,25.604248,41.076660,-47.637939,40.005859
90680,5.497087,2.537854,0.134075,-45.318604,-72.540283,-53.955078,39.988281
90720,14.365211,12.047623,-13.292608,-35.736084,79.650879,-15.167236,39.960938
90760,8.034941,13.120225,-20.365080,67.993164,-1.190186,-34.362793,39.960938
90800,5.722142,7.637504,-15.701175,55.999756,82.611084,-71.563721,39.964844
90840,3.251326,5.707777,-12.559982,70.007324,62.347412,-80.627441,39.962891
90880,1.072602,5.463568,-5.449203,28.259277,56.243896,-35.522461,39.953125
90920,0.833182,5.564125,1.805228,-9.246826,56.060791,-19.012451,39.974609
90960,-0.651223,3.615245,4.323928,16.082764,8.697510,8.819580,39.984375
91000,-1.613692,1.527501,3.394978,-16.845703,-52.917480,51.818848,39.990234
91040,6.402095,2.303222,1.924938,-26.214600,-47.271729,20.172119,39.998047
91080,14.935030,10.998962,-13.436260,-76.141357,-13.275146,69.366455,39.988281
91120,8.173804,14.355634,-19.584570,-11.322021,-54.016113,62.622070,39.994141
91160,3.912126,12.176909,-12.947843,-67.993164,-56.152344,98.663330,39.960938
91200,1.900996,7.589619,-11.626244,-37.109375,-70.709229,65.002441,39.974609
91240,1.565808,2.126051,-7.790732,-3.967285,-33.569336,28.686523,40.000000
91280,3.217807,-1.733402,-2.418144,1.678467,1.678467,26.245117,39.980469
91320,4.501099,-3.117251,0.828394,1.525879,12.329102,12.817383,39.978516
91360,3.303998,-2.858677,1.268927,34.088135,3.967285,-53.558350,39.988281
91400,7.302315,0.641646,0.866701,-15.625000,-9.277344,-61.340332,40.000000
91440,14.106636,9.768343,-14.010868,-26.214600,68.969727,-24.719238,39.953125
91480,8.274361,13.953407,-21.672314,84.442139,42.266846,-58.532715,39.964844
91520,4.357447,8.762778,-15.557523,76.873779,80.749512,-76.416016,39.964844
91560,1.589750,6.670246,-11.736377,77.606201,58.654785,-89.233398,39.964844
91600,1.192312,6.062119,-5.185841,33.905029,52.459717,-36.041260,39.966797
91640,1.848324,5.449203,1.173159,-31.219482,55.603027,-3.387451,39.955078
91680,0.191536,2.930503,3.280056,-6.469727,33.264160,7.812500,39.978516
91720,-1.403002,0.737414,3.155558,11.352539,-58.166504,30.700684,39.998047
91760,6.612785,1.857901,3.481169,-4.699707,-18.432617,17.517090,39.992188
91800,14.877569,13.043611,-13.010092,-86.029053,-48.583984,65.582275,39.984375
91840,7.738060,15.380352,-21.260511,-8.972168,-74.493408,60.974121,40.003906
91880,3.074155,10.170568,-13.426683,-51.116943,-77.636719,74.859619,39.994141
91920,1.695095,5.602432,-10.802638,-51.269531,-83.679199,74.279785,40.011719
91960,2.279280,1.450886,-6.708553,-12.329102,-45.440674,37.780762,39.992188
92000,4.304775,-1.513135,-1.474828,-3.936768,19.744873,32.257080,39.978516
92040,3.734955,-2.389413,1.158794,4.974365,63.018799,-5.981445,40.000000
92080,1.532289,-2.475605,1.484405,11.749268,1.098633,-44.830322,40.009766
92120,10.271125,1.948880,0.153229,-48.645020,-117.584229,-50.109863,40.019531
92160,14.369999,10.443508,-18.411411,19.592285,68.084717,-34.973145,40.000000
92200,7.781156,11.789049,-21.562180,68.176270,60.211182,-64.575195,39.998047
92240,3.184288,6.957550,-15.734694,78.674316,79.071045,-105.651855,39.988281
92280,1.489193,5.789180,-11.458650,75.347900,56.182861,-93.627930,39.951172
92320,0.842759,6.023811,-4.673482,15.655518,53.070068,-33.386230,39.984375
92360,1.455675,6.086061,1.910573,-33.111572,65.765381,-22.583008,40.001953
92400,-0.148441,2.968810,4.199430,13.885498,25.512695,8.270264,39.998047
92440,-1.604115,0.756568,3.323152,0.976562,-71.807861,53.833008,40.007812
92480,7.527370,2.461239,1.431733,1.281738,-89.172363,6.988525,39.990234
92520,13.996503,11.559206,-15.116989,-84.930420,-14.587402,74.066162,39.970703
92560,6.406884,13.407530,-19.517532,-8.148193,-44.647217,53.283691,39.998047
92600,2.820370,10.692505,-13.766660,-51.940918,-62.316895,92.742920,39.994141
92640,1.800440,7.436390,-12.258312,-47.302246,-71.807861,73.486328,39.978516
92680,1.642422,2.485181,-7.881712,-11.016846,-29.357910,28.656006,39.994141
92720,3.624821,-1.675941,-1.867477,2.624512,21.514893,24.841309,39.986328
92760,4.649539,-3.141193,1.441309,5.523682,7.202148,2.899170,39.986328
92800,2.954445,-3.236961,1.446098,18.127441,16.876221,-45.501709,40.000000
92840,8.226477,2.078167,-0.699107,-27.282715,-61.279297,-66.833496,39.988281
92880,12.823344,11.156980,-15.729905,-11.077881,102.966309,-31.707764,39.964844
92920,7.067683,12.828133,-20.274099,69.610596,33.477783,-54.656982,39.988281
92960,3.993528,7.675811,-15.394717,60.607910,90.454102,-64.178467,39.986328
93000,1.900996,6.205771,-11.865664,69.580078,53.588867,-72.998047,39.990234
93040,0.732626,6.148310,-5.324705,29.266357,41.534424,-35.614014,40.003906
93080,1.072602,5.856217,1.541866,-14.007568,41.015625,-21.514893,39.998047
93120,0.162806,3.620033,4.180276,8.880615,11.352539,-2.166748,39.974609
93160,-0.938527,1.335965,3.289633,-17.517090,-59.722900,54.229736,40.000000
