MS,Accel X (m/s²),Accel Y (m/s²),Accel Z (m/s²),Gyro X (°/s),Gyro Y (°/s),Gyro Z (°/s),Temp (°C)
1200,8.983045,-1.192312,0.378284,-1.831055,-12.695312,10.101318,30.998047
1240,8.767567,-1.379060,0.349553,-0.244141,-9.613037,8.636475,30.998047
1280,9.236830,-1.307234,0.330400,1.739502,-11.230469,6.011963,31.005859
1320,9.615114,-1.450886,0.430956,0.976562,-13.366699,6.469727,30.992188
1360,9.548077,-1.584962,0.454898,1.251221,-12.634277,5.218506,30.982422
1400,9.806650,-1.833959,0.258574,1.312256,-7.629395,-0.366211,30.998047
1440,10.975020,-2.169147,0.316035,8.361816,0.274658,-10.162354,31.003906
1480,11.554418,-1.738190,0.636858,6.469727,0.305176,-18.035889,30.988281
1520,11.147403,-0.976834,1.082179,-8.605957,16.906738,-26.855469,31.017578
1560,10.481815,-0.612916,-0.818817,-6.072998,9.277344,-26.519775,31.000000
1600,9.193734,-1.537078,-2.825158,-10.528564,-11.627197,-9.429932,30.992188
1640,9.864111,-0.660800,-3.126827,-23.498535,15.625000,-13.153076,30.986328
1680,10.994174,-0.205901,-3.040636,-23.681641,-7.995605,-9.490967,31.023438
1720,11.214440,-1.221043,-1.781286,-11.047363,0.274658,-4.638672,30.984375
1760,10.012551,-0.632069,-0.895431,-9.277344,-3.967285,1.678467,30.998047
1800,8.039729,0.004788,-0.641646,-13.427734,-6.835938,9.155273,31.017578
1840,6.612785,0.014365,-0.756568,-19.805908,-4.058838,16.601562,31.005859
1880,6.689400,-0.129287,-0.909797,-16.632080,1.739502,17.120361,31.007812
1920,8.044518,-0.043096,-1.005565,-3.570557,1.464844,12.237549,31.019531
1960,9.840169,0.014365,-1.197101,-3.997803,8.911133,10.589600,31.013672
2000,11.942278,-0.656011,-1.149217,1.068115,19.226074,15.350342,31.021484
2040,13.077129,-0.612916,-0.627281,8.300781,14.465332,12.908936,31.023438
2080,12.540829,-0.344765,-0.459687,22.521973,16.326904,4.333496,31.003906
2120,11.080365,-1.771709,-1.130063,28.625488,-7.263184,6.988525,30.998047
2160,8.259995,-3.031059,-1.637634,25.573730,-9.460449,7.110596,31.003906
2200,7.747637,-4.007894,-2.308010,25.756836,5.554199,6.652832,31.013672
2240,9.907207,-2.901772,-1.829170,34.423828,-12.451172,-6.958008,31.021484
2280,9.452309,-1.479617,-1.000776,32.928467,-27.221680,-13.122559,31.031250
2320,7.388506,-1.618480,-0.344765,25.177002,-21.087646,-8.239746,31.003906
2360,6.584054,-1.666364,-0.167594,21.362305,-11.596680,-4.455566,31.017578
2400,7.139510,-1.474828,-0.387861,15.808105,-11.047363,-3.051758,31.035156
2440,8.255207,-1.316811,-0.172383,14.434814,-10.864258,-6.561279,31.033203
2480,9.165004,-1.532289,0.043096,11.871338,-8.758545,-12.268066,31.007812
2520,10.500969,-1.977611,0.201113,6.103516,16.479492,-20.263672,31.023438
2560,12.143391,-1.307234,0.263362,9.155273,11.352539,-27.343750,31.027344
2600,12.339716,-0.287304,0.239420,-10.314941,11.474609,-35.400391,31.033203
2640,11.784261,-0.325611,-1.517924,-13.275146,7.171631,-31.524658,31.019531
2680,10.836157,-1.024718,-3.624821,-25.177002,-3.479004,-8.209229,31.007812
2720,11.798626,-0.622492,-3.701436,-34.362793,4.913330,-2.075195,31.007812
2760,11.923124,-0.248997,-2.801216,-38.574219,-16.510010,5.645752,31.001953
2800,9.854534,-0.565032,-1.474828,-39.581299,-15.106201,14.526367,31.013672
2840,7.163452,-0.177171,-0.876278,-42.694092,-9.368896,19.287109,31.029297
2880,5.276821,0.344765,-0.790087,-42.846680,-4.180908,21.087646,31.015625
2920,5.319916,0.124498,-1.201889,-45.562744,12.145996,21.911621,31.033203
2960,7.129933,-0.272939,-1.470040,-35.919189,10.375977,19.348145,31.011719
3000,10.165780,0.181959,-1.297657,-13.214111,15.014648,10.742188,30.994141
3040,12.885593,0.114922,-1.326388,-0.549316,11.505127,7.781982,31.033203
3080,13.268666,-0.062249,-1.024718,14.129639,5.981445,8.972168,31.027344
3120,12.574347,-0.541090,-0.646434,35.339355,16.540527,1.739502,31.029297
3160,10.017340,-2.312799,-1.699883,42.938232,-22.827148,6.530762,31.062500
3200,8.025364,-3.672705,-2.609680,13.793945,-0.457764,6.408691,31.056641
3240,10.845734,-3.648763,-2.671929,22.216797,-2.716064,4.333496,31.074219
3280,11.099519,-1.192312,-1.647211,15.899658,-34.545898,-2.777100,31.060547
3320,7.431602,-0.047884,-0.517148,5.523682,-31.188965,-1.129150,31.052734
3360,4.711789,-0.354342,-0.100556,5.004883,-18.096924,-0.061035,31.042969
3400,4.903325,-0.928950,-0.636858,-4.455566,-6.622314,6.225586,31.064453
3440,7.393295,-1.355118,-0.766145,-3.417969,0.518799,4.791260,31.076172
3480,10.438720,-1.455675,-0.258574,6.530762,0.518799,-5.218506,31.048828
3520,12.320562,-1.383849,-0.110133,-5.249023,10.101318,-21.423340,31.052734
3560,13.608643,-0.775721,0.335188,-5.401611,8.636475,-34.881592,31.060547
3600,13.148955,-0.363919,-0.541090,-16.113281,5.554199,-40.771484,31.066406
3640,10.702082,-0.497994,-3.102885,-29.235840,-16.937256,-13.092041,31.083984
3680,10.319010,-0.512359,-4.276044,-52.520752,18.066406,4.150391,31.058594
3720,13.196839,0.225055,-4.505888,-38.482666,-14.709473,9.063721,31.060547
3760,12.464214,-0.416591,-2.743755,-61.798096,-46.813965,28.778076,31.074219
3800,8.379706,-0.234632,-0.766145,-59.509277,-38.421631,35.583496,31.050781
3840,3.811569,0.028730,-0.148441,-45.593262,-2.716064,32.501221,31.072266
3880,0.579397,-0.191536,-0.852336,-46.936035,-16.601562,43.212891,31.070312
3920,3.246537,-0.603339,-2.035071,-50.537109,0.976562,53.497314,31.070312
3960,10.553641,0.387861,-2.398990,-34.210205,11.657715,33.264160,31.082031
4000,16.165649,0.761356,-2.006341,-24.810791,-2.502441,23.193359,31.046875
4040,16.208746,-0.708684,-0.718261,23.590088,9.582520,29.174805,31.070312
4080,12.962208,-1.910573,-1.374272,41.046143,-19.165039,38.513184,31.074219
4120,6.397307,-2.628834,-2.978387,69.946289,-37.200928,23.712158,31.068359
4160,1.958457,-2.245761,-4.223372,35.797119,-53.344727,-2.349854,31.076172
4200,5.827487,-4.759673,-2.647987,10.040283,42.175293,2.166748,31.060547
4240,12.914324,-5.382165,-4.405331,62.133789,-10.284424,-2.197266,31.074219
4280,14.915876,-5.238513,-4.165911,77.545166,-48.431396,-23.162842,31.060547
4320,17.319654,-5.832275,-3.050213,66.192627,-20.538330,-27.832031,31.066406
4360,15.174450,-2.954445,-2.509123,95.306396,-18.096924,-59.936523,31.080078
4400,8.633492,0.210690,-0.770933,64.575195,28.442383,-50.903320,31.085938
4440,1.115698,1.948880,0.430956,9.338379,20.172119,-39.337158,31.080078
4480,-2.020706,3.227384,-0.047884,-42.297363,36.865234,-21.606445,31.085938
4520,-0.751779,2.552219,-1.288081,-86.547852,48.767090,1.464844,31.066406
4560,4.960786,0.766145,-2.863465,-93.902588,41.717529,8.819580,31.060547
4600,14.039598,-0.110133,-3.682282,-114.471436,-30.303955,3.997803,31.060547
4640,22.448034,-1.561020,-4.400543,-173.004150,2.441406,16.235352,31.083984
4680,23.975536,-3.447650,-2.571373,-162.689209,57.495117,46.173096,31.076172
4720,19.589357,-1.403002,-2.308010,-120.910645,58.685303,53.802490,31.091797
4760,11.094730,0.636858,-2.978387,-72.601318,42.785645,17.303467,31.089844
4800,2.360683,-1.053449,-3.462016,-5.523682,-10.955811,1.373291,31.052734
4840,-4.189853,-3.840300,-2.968810,30.914307,-98.419189,-14.953613,31.078125
4880,-5.094861,-3.064578,0.028730,46.844482,-2.624512,-28.564453,31.093750
4920,1.086968,-2.667141,0.660800,53.771973,-6.866455,31.280518,31.072266
4960,11.482592,-2.212242,-3.069367,33.691406,77.331543,11.352539,31.085938
5000,20.738575,-6.655881,-6.598420,121.978760,-132.385254,-33.691406,31.089844
5040,21.624430,-7.690176,-4.122815,109.130859,17.242432,-27.954102,31.080078
5080,17.535133,-2.255338,-3.466804,132.232666,-43.487549,-66.040039,31.074219
5120,10.874464,0.282516,-0.531513,79.071045,-10.192871,-57.495117,31.087891
5160,3.198653,2.389413,0.330400,21.575928,12.725830,-51.483154,31.115234
5200,-2.303222,3.869030,-0.100556,-23.834229,33.599854,-24.871826,31.091797
5240,-1.786075,1.431733,-0.234632,-35.369873,37.353516,-5.828857,31.111328
5280,3.122039,-0.426168,-1.187524,-54.504395,8.575439,11.535645,31.119141
5320,13.254301,1.173159,-3.371036,-81.665039,-75.317383,-0.518799,31.085938
5360,23.946806,1.877054,-3.280056,-193.634033,3.356934,29.174805,31.115234
5400,23.625982,-0.387861,-3.222595,-148.986816,42.785645,38.177490,31.109375
5440,17.338808,-1.551443,-3.864242,-123.535156,40.954590,47.241211,31.119141
5480,8.911219,0.373495,-3.318364,-68.359375,67.687988,1.098633,31.121094
5520,0.134075,-1.699883,-2.968810,-42.144775,-23.681641,23.864746,31.125000
5560,-5.200206,-3.864242,-1.465251,10.589600,-15.960693,-98.846436,31.105469
5600,-4.707001,-2.801216,-0.354342,44.494629,3.601074,-10.131836,31.123047
5640,2.523489,-2.111686,-1.134852,6.347656,86.700439,67.871094,31.103516
5680,20.757729,-5.932832,-6.177041,40.222168,-3.173828,5.401611,31.142578
5720,25.574863,-5.214571,-4.314352,153.106689,-41.625977,-22.460938,31.109375
5760,19.934124,-1.053449,-1.565808,134.124756,-56.610107,-42.541504,31.128906
5800,13.532028,1.096544,0.474052,110.137939,7.995605,-59.875488,31.125000
5840,6.066907,1.417367,1.163582,88.958740,39.001465,-53.131104,31.138672
5880,-0.761356,3.174711,0.426168,-6.103516,18.096924,-29.846191,31.107422
5920,-2.868254,2.753332,-0.995988,-21.270752,9.338379,-15.167236,31.109375
5960,0.268151,-0.445322,-1.268927,-13.549805,-6.561279,2.716064,31.123047
6000,8.724471,-2.082955,-2.102109,-69.244385,2.685547,27.008057,31.107422
6040,19.800049,3.236961,-2.236184,-82.000732,-78.125000,-6.378174,31.125000
6080,23.640348,4.209007,-1.053449,-74.523926,24.047852,-5.218506,31.132812
6120,21.495142,0.239420,-1.474828,-60.821533,1.495361,22.613525,31.142578
6160,14.350845,-0.579397,-2.671929,-41.229248,2.349854,27.282715,31.128906
6200,5.736507,0.023942,-2.643199,-32.409668,-10.131836,29.663086,31.130859
6240,-1.948880,-2.719813,-1.680730,4.119873,-14.160156,50.476074,31.128906
6280,-5.070919,-2.978387,-1.599327,55.847168,15.441895,-33.264160,31.132812
6320,-2.964022,-2.226608,-1.273715,60.852051,0.152588,18.005371,31.144531
6360,6.799533,-3.634398,-2.389413,25.115967,105.041504,-33.142090,31.125000
6400,25.201366,-4.012682,-4.821922,94.635010,-43.273926,23.468018,31.146484
6440,24.171860,-1.920150,-2.015918,161.376953,-39.764404,-28.625488,31.154297
6480,19.191921,0.833182,0.430956,132.324219,-16.784668,-52.490234,31.125000
6520,12.617443,1.149217,0.991199,133.697510,1.617432,-46.295166,31.136719
6560,3.763685,1.953669,1.412579,62.133789,32.348633,-30.670166,31.140625
6600,-3.323152,2.935291,-0.110133,-23.773193,2.441406,-13.946533,31.138672
6640,-2.691083,1.268927,-1.125275,-15.472412,1.220703,-1.953125,31.125000
6680,2.466028,-1.862689,-0.751779,-31.616211,-8.941650,23.712158,31.167969
6720,11.463438,0.095768,-2.006341,-84.045410,-26.580811,36.499023,31.130859
6760,22.716187,5.243302,-1.019930,-162.231445,-15.533447,27.099609,31.128906
6800,24.272417,1.757344,-0.718261,-77.331543,35.858154,22.186279,31.138672
6840,19.905394,-0.713472,-0.818817,-64.483643,9.185791,42.907715,31.123047
6880,11.152191,1.029507,-1.733402,-93.719482,56.457520,26.245117,31.134766
6920,2.039860,1.589750,-2.767697,12.237549,22.247314,-15.472412,31.119141
6960,-4.797980,-4.410120,-4.228160,131.011963,-134.674072,-33.294678,31.158203
7000,-4.668694,-5.367800,-0.723049,21.423340,8.483887,5.737305,31.152344
7040,1.723825,-2.341529,0.143652,63.659668,-17.608643,-6.561279,31.148438
7080,15.275007,-2.916138,-2.935291,88.562012,69.610596,13.031006,31.148438
7120,24.052151,-4.922479,-5.137957,178.375244,-101.623535,-24.597168,31.185547
7160,23.582888,-2.906561,-3.107674,119.628906,41.656494,-40.191650,31.183594
7200,17.123331,2.791639,-1.374272,158.477783,-11.901855,-66.772461,31.181641
7240,8.106767,3.021482,1.484405,81.054688,4.821777,-46.630859,31.191406
7280,-0.047884,3.438074,1.197101,3.204346,-8.636475,-28.869629,31.205078
7320,-3.117251,2.671929,-0.646434,-50.964355,16.784668,3.692627,31.187500
7360,0.517148,0.837971,-0.948104,-57.220459,38.452148,24.291992,31.181641
7400,6.110003,0.679953,-1.350330,-76.293945,26.672363,29.022217,31.208984
7440,16.563087,3.854665,-2.580950,-111.022949,-61.248779,4.425049,31.205078
7480,25.321077,3.567361,-2.336741,-175.201416,9.552002,15.533447,31.191406
7520,24.157495,-0.612916,-0.713472,-132.415771,40.649414,61.157227,31.214844
7560,14.604630,1.034295,-1.738190,-141.845703,26.428223,54.779053,31.212891
7600,4.984728,1.407791,-2.552219,-40.496826,2.532959,-3.875732,31.195312
7640,-3.481169,-4.252102,-3.007117,70.465088,-28.350830,11.718750,31.208984
7680,-6.339846,-4.611232,-1.455675,15.808105,-29.083252,6.378174,31.210938
7720,-0.761356,-1.848324,0.052672,52.917480,25.177002,-19.653320,31.189453
7760,10.836157,-3.888184,-0.148441,47.790527,77.331543,31.738281,31.199219
7800,23.080105,-3.260903,-6.651093,131.469727,-102.783203,-5.859375,31.212891
7840,23.496695,-3.835511,-3.198653,128.356934,-8.422852,-34.057617,31.195312
7880,19.062634,0.928950,-1.915361,163.574219,-27.862549,-74.279785,31.212891
7920,11.473015,2.719813,0.397437,118.652344,9.643555,-62.011719,31.195312
7960,2.432509,3.112462,1.819593,39.001465,-6.134033,-46.051025,31.191406
8000,-3.778050,3.691859,0.239420,-44.860840,-2.838135,-0.122070,31.224609
8040,-1.125275,1.833959,-0.900220,-67.016602,24.963379,26.763916,31.205078
8080,4.429273,0.521936,-1.436521,-68.420410,36.041260,40.924072,31.185547
8120,13.958196,2.920926,-2.365471,-76.751709,-11.566162,-0.915527,31.187500
8160,23.166296,4.702212,-3.481169,-182.830811,-37.902832,13.366699,31.222656
8200,25.775976,1.043872,-1.120486,-162.658691,52.917480,41.992188,31.207031
8240,17.190369,1.029507,-2.121263,-123.962402,30.761719,38.055420,31.224609
8280,6.746861,1.460463,-2.925714,-68.756104,4.791260,-7.904053,31.210938
8320,-1.972822,-3.299210,-2.686294,38.543701,-3.448486,-6.225586,31.205078
8360,-6.813898,-5.861006,-1.589750,44.891357,-35.614014,5.798340,31.216797
8400,-1.891419,-2.973598,-0.114922,38.177490,28.808594,-3.936768,31.201172
8440,7.733272,-3.289633,0.196325,50.506592,57.922363,31.646729,31.214844
8480,22.448034,-1.881842,-5.856217,97.229004,-87.646484,21.301270,31.216797
8520,24.138342,-2.489970,-2.743755,131.286621,-15.655518,-36.468506,31.212891
8560,20.269312,-0.158017,-2.193089,151.916504,-46.020508,-67.230225,31.205078
8600,13.172897,2.633622,0.416591,131.286621,-2.380371,-66.314697,31.205078
8640,4.592079,2.734178,1.709460,47.637939,-0.762939,-53.527832,31.226562
8680,-2.624045,3.327940,0.081403,-30.303955,-16.510010,-21.759033,31.228516
8720,-2.298434,1.671153,-0.861913,-73.699951,20.660400,18.249512,31.226562
8760,1.656788,0.076614,0.090980,-49.377441,34.545898,20.935059,31.187500
8800,7.556100,2.059013,-0.905008,-96.374512,53.680420,22.460938,31.177734
8840,19.656397,3.663129,-3.471592,-90.179443,-124.816895,-17.303467,31.234375
8880,25.819071,1.776498,-0.521936,-160.186768,11.077881,24.993896,31.230469
8920,22.668303,0.598550,0.474052,-137.725830,63.079834,50.659180,31.230469
8960,12.449849,0.090980,-2.844312,-90.362549,43.243408,42.449951,31.224609
9000,2.772485,0.191536,-3.241749,16.235352,-20.568848,3.540039,31.208984
9040,-4.582502,-3.366248,-2.580950,100.555420,-112.182617,-16.265869,31.205078
9080,-5.272032,-4.544195,-0.397437,61.279297,-39.642334,-2.593994,31.226562
9120,3.189077,-4.644751,0.057461,60.394287,20.721436,1.464844,31.273438
9160,18.976442,-2.628834,-5.755661,107.818604,8.789062,31.829834,31.265625
9200,23.827095,-1.900996,-4.007894,165.130615,-55.084229,-22.613525,31.255859
9240,22.203827,-1.436521,-2.566584,117.248535,22.216797,-41.656494,31.248047
9280,15.835250,1.685518,-1.565808,141.723633,-2.166748,-60.882568,31.271484
9320,7.565677,2.078167,0.986411,83.404541,6.011963,-46.478271,31.263672
9360,-1.312023,3.375824,1.316811,2.532959,-15.441895,-30.975342,31.257812
9400,-4.060566,2.829947,-0.354342,-58.502197,38.726807,15.716553,31.238281
9440,0.282516,0.895431,-0.876278,-47.546387,21.667480,34.423828,31.246094
9480,7.958326,1.221043,-1.096544,-71.136475,46.813965,39.916992,31.257812
9520,17.860744,2.887407,-2.806004,-110.656738,-60.424805,6.134033,31.275391
9560,24.794353,2.073379,-1.948880,-156.921387,25.390625,25.482178,31.246094
9600,23.511061,-0.186748,-0.612916,-142.456055,69.976807,55.480957,31.259766
9640,13.081918,0.148441,-2.916138,-107.574463,20.751953,49.346924,31.263672
9680,3.385401,0.119710,-2.868254,-6.530762,6.286621,-3.540039,31.283203
9720,-4.161122,-2.949656,-1.977611,69.610596,-24.536133,-17.974854,31.259766
9760,-5.607220,-4.232949,-0.689530,16.662598,-33.477783,12.847900,31.273438
9800,1.244985,-2.801216,0.421380,40.039062,46.569824,2.258301,31.248047
9840,15.303738,-3.883395,-1.441309,51.269531,50.720215,41.595459,31.283203
9880,23.970747,-2.264915,-4.405331,110.290527,-79.132080,-14.190674,31.255859
9920,22.783224,-3.840300,-1.881842,109.527588,20.568848,-20.141602,31.263672
9960,16.735470,0.785298,-1.297657,137.176514,-27.465820,-63.262939,31.259766
10000,8.987833,3.414132,1.206678,75.103760,6.225586,-56.457520,31.263672
10040,0.967257,2.600103,1.465251,1.953125,-7.568359,-19.012451,31.285156
10080,-3.854665,1.996764,0.009577,-57.586670,15.014648,23.132324,31.265625
10120,-1.412579,1.355118,-1.072602,-64.422607,17.578125,34.759521,31.257812
10160,5.741296,2.269703,-1.364695,-85.235596,13.214111,37.567139,31.271484
10200,17.223886,3.112462,-2.303222,-127.624512,-23.834229,1.129150,31.289062
10240,23.190237,2.111686,-1.982399,-161.163330,4.577637,29.968262,31.285156
10280,21.906946,1.163582,-0.881066,-160.217285,46.691895,50.292969,31.279297
10320,14.709975,2.092532,-2.427721,-123.657227,33.142090,24.963379,31.281250
10360,6.205771,0.239420,-3.648763,-55.694580,-7.598877,-9.338379,31.273438
10400,-1.024718,-3.428497,-2.111686,14.312744,20.965576,-9.277344,31.269531
10440,-5.621585,-4.343082,-0.488417,7.995605,-26.580811,3.479004,31.283203
10480,0.593762,-3.983952,0.909797,-5.798340,19.927979,20.812988,31.273438
10520,17.252617,-1.302446,-2.930503,-5.798340,14.739990,41.015625,31.289062
10560,21.973984,0.148441,-2.935291,53.527832,-82.946777,-13.793945,31.291016
10600,19.239805,-1.273715,-0.296881,61.523438,5.187988,-22.369385,31.285156
10640,14.901511,0.756568,-1.465251,49.011230,-57.830811,-33.142090,31.255859
10680,9.342175,2.667141,0.071826,13.732910,-12.298584,-43.640137,31.287109
10720,3.347094,2.202666,0.493206,-48.492432,-14.373779,-18.859863,31.283203
10760,-1.517924,1.905785,-0.330400,-108.367920,30.334473,30.242920,31.277344
10800,-1.513135,2.082955,-1.283292,-125.762939,30.731201,48.095703,31.273438
10840,6.014235,3.830723,-3.040636,-145.477295,6.805420,38.482666,31.312500
10880,18.291700,3.050213,-4.673482,-188.720703,-42.388916,7.019043,31.289062
10920,24.267628,1.312023,-4.012682,-187.316895,-11.108398,42.449951,31.294922
10960,22.730551,2.729390,-1.915361,-161.376953,35.522461,59.051514,31.283203
11000,14.537593,2.729390,-3.442862,-121.978760,7.751465,39.520264,31.283203
11040,6.579266,0.148441,-4.400543,-51.574707,-7.751465,19.195557,31.285156
11080,0.521936,-3.289633,-3.256114,26.245117,-10.314941,2.868652,31.294922
11120,-4.007894,-4.874595,-0.928950,15.106201,-7.263184,17.700195,31.316406
11160,-1.929727,-2.863465,0.536301,7.141113,11.108398,11.779785,31.308594
11200,7.723695,-2.513912,0.804452,-14.984131,143.341064,50.933838,31.308594
11240,18.066647,0.397437,-5.118803,12.237549,-95.855713,19.104004,31.326172
11280,19.254169,-2.164358,-2.106898,90.087891,-18.035889,-18.402100,31.302734
11320,19.642031,-3.423708,-1.307234,84.625244,-14.129639,-13.397217,31.316406
11360,15.720328,-0.474052,-1.556231,92.254639,-36.621094,-42.541504,31.304688
11400,9.921572,1.675941,0.019154,62.500000,-4.302979,-57.067871,31.316406
11440,3.055001,2.250550,0.770933,-11.260986,21.820068,-32.409668,31.335938
11480,-2.327164,2.317587,0.383072,-67.749023,26.519775,6.500244,31.328125
11520,-1.225831,2.662352,-0.972046,-105.590820,17.578125,15.441895,31.332031
11560,5.147533,3.481169,-2.997540,-134.582520,-19.012451,23.101807,31.314453
11600,16.012421,1.982399,-3.988740,-185.455322,-65.338135,7.568359,31.310547
11640,25.550920,0.407014,-4.352659,-215.179443,6.439209,47.790527,31.302734
11680,24.784777,0.976834,-3.007117,-194.671631,55.603027,64.819336,31.312500
11720,16.361975,0.780510,-4.362236,-112.304688,5.584717,53.405762,31.330078
11760,6.646304,-0.593762,-4.328717,-44.433594,12.786865,15.930176,31.337891
11800,-1.240196,-3.069367,-3.227384,52.764893,-24.261475,-6.591797,31.314453
11840,-5.501875,-5.300763,-1.474828,57.617188,-40.313721,3.082275,31.326172
11880,-1.034295,-4.400543,0.881066,4.791260,23.345947,9.918213,31.324219
11920,8.695741,-1.235408,-0.421380,-32.073975,140.991211,38.269043,31.335938
11960,18.420988,-1.532289,-6.047753,61.920166,-119.476318,-10.345459,31.322266
12000,21.102493,-5.530606,-3.117251,54.962158,7.446289,-24.597168,31.333984
12040,19.613300,-3.361459,-3.495534,95.733643,-74.035645,-56.854248,31.322266
12080,13.546393,0.047884,-0.837971,91.125488,-8.514404,-74.859619,31.347656
12120,4.797980,2.049437,0.804452,34.271240,4.150391,-66.406250,31.332031
12160,-2.628834,2.954445,0.541090,-62.835693,32.714844,-20.416260,31.318359
12200,-1.924938,2.719813,-0.402226,-98.937988,21.942139,0.274658,31.341797
12240,1.498770,1.944092,-2.389413,-134.552002,14.801025,23.681641,31.318359
12280,12.033257,2.360683,-4.505888,-127.746582,-27.801514,5.004883,31.335938
12320,25.704149,-0.809240,-6.617573,-184.356689,-35.736084,19.287109,31.337891
12360,26.815060,-1.096544,-2.758120,-184.600830,56.549072,62.164307,31.330078
12400,18.598158,0.952892,-3.327940,-123.779297,31.829834,54.443359,31.351562
12440,7.934384,0.014365,-4.855441,-28.167725,-11.688232,8.270264,31.332031
12480,-0.023942,-3.050213,-3.524265,71.228027,-12.573242,-19.653320,31.351562
12520,-5.224148,-6.033388,-1.292869,58.868408,-10.681152,0.823975,31.314453
12560,-2.619257,-3.682282,0.474052,39.367676,41.870117,-9.948730,31.328125
12600,2.293645,-0.943315,-0.004788,69.915771,39.245605,-28.808594,31.355469
12640,11.228806,-2.035071,-2.011129,48.889160,46.936035,34.454346,31.326172
12680,23.625982,-3.179500,-5.913678,104.095459,-71.533203,-26.062012,31.363281
12720,23.276428,-4.027047,-3.993528,102.905273,-19.500732,-56.976318,31.335938
12760,17.922995,0.162806,-1.106121,147.766113,-7.049561,-82.366943,31.332031
12800,9.337387,2.336741,0.933739,75.042725,-8.758545,-69.702148,31.333984
12840,0.138864,3.366248,1.307234,-8.453369,-31.433105,-43.365479,31.332031
12880,-3.490746,2.758120,-0.239420,-84.533691,9.643555,3.448486,31.339844
12920,-0.660800,1.244985,-0.804452,-83.068848,31.188965,19.348145,31.330078
12960,2.590526,0.541090,-1.671153,-90.759277,13.580322,31.951904,31.347656
13000,11.468226,1.331176,-2.806004,-100.769043,-1.464844,27.465820,31.351562
13040,25.694572,1.288081,-4.103662,-172.027588,-37.231445,22.125244,31.365234
13080,27.528532,0.684742,-1.278504,-169.006348,44.616699,52.307129,31.371094
13120,19.081787,0.809240,-1.848324,-88.500977,53.039551,44.250488,31.347656
13160,7.412448,0.043096,-3.801992,-28.839111,17.242432,15.136719,31.367188
13200,-0.957681,-2.427721,-3.208230,89.752197,-23.925781,-14.099121,31.382812
13240,-5.736507,-5.410896,-1.742979,82.031250,-50.170898,-7.751465,31.355469
13280,-2.614468,-3.658340,0.162806,46.386719,9.185791,2.288818,31.371094
13320,3.854665,-2.054225,0.225055,51.269531,27.008057,13.305664,31.376953
13360,15.988479,-1.527501,-3.921702,54.595947,-19.927979,40.283203,31.367188
13400,23.266851,-4.639963,-4.362236,158.172607,-68.450928,-29.815674,31.367188
13440,23.113623,-4.304775,-2.839523,127.227783,-18.737793,-50.384521,31.386719
13480,16.778566,0.794875,-1.484405,172.088623,-26.763916,-87.615967,31.378906
13520,7.240066,2.882619,1.470040,83.038330,3.662109,-65.521240,31.396484
13560,-1.948880,3.514688,1.211466,-11.169434,1.373291,-28.411865,31.376953
13600,-3.078943,2.207454,-0.660800,-71.289062,13.702393,10.040283,31.357422
13640,0.732626,1.125275,-1.446098,-73.059082,10.589600,20.599365,31.375000
13680,8.135497,1.685518,-1.968034,-90.698242,32.440186,29.052734,31.392578
13720,19.397821,3.002329,-2.537854,-155.578613,-59.143066,1.678467,31.394531
13760,26.360161,1.225831,-1.326388,-179.687500,38.330078,32.318115,31.382812
13800,22.208614,-0.244209,-0.847547,-152.954102,41.168213,59.936523,31.398438
13840,10.697293,-0.191536,-3.643975,-82.092285,-14.739990,41.351318,31.394531
13880,1.335965,-1.173159,-3.529053,42.297363,-18.798828,-1.159668,31.384766
13920,-5.171476,-4.003105,-2.657564,112.823486,-77.484131,-24.078369,31.396484
13960,-4.577713,-5.233725,0.067038,37.750244,-19.805908,1.434326,31.390625
14000,3.773262,-3.715801,0.689530,35.980225,60.424805,13.519287,31.384766
14040,19.412188,-1.699883,-5.181053,92.346191,-1.373291,18.585205,31.375000
14080,23.592464,-4.869806,-4.572925,158.477783,-40.405273,-38.909912,31.394531
14120,21.112070,-2.657564,-3.462016,149.322510,-40.710449,-59.631348,31.382812
14160,14.231135,2.523489,-1.019930,152.191162,-36.224365,-80.474854,31.376953
14200,5.434838,3.246537,1.824382,60.821533,-1.098633,-59.478760,31.404297
14240,-2.801216,3.639187,1.063026,-27.832031,0.701904,-16.815186,31.414062
14280,-2.585738,2.351106,-1.163582,-81.420898,11.016846,17.669678,31.384766
14320,1.154005,0.751779,-1.762132,-81.268311,9.063721,30.761719,31.396484
14360,9.983821,1.355118,-2.944868,-81.268311,33.477783,30.731201,31.369141
14400,22.237345,2.255338,-4.046201,-176.300049,-47.790527,12.420654,31.380859
14440,26.661831,0.914585,-2.106898,-175.201416,28.930664,43.121338,31.406250
14480,21.394587,0.306458,-1.685518,-127.288818,19.073486,60.760498,31.388672
14520,9.911995,1.058237,-3.782839,-65.734863,4.791260,29.724121,31.396484
14560,0.895431,-1.063026,-3.169923,39.276123,-1.068115,-4.455566,31.408203
14600,-5.904101,-5.434838,-1.944092,69.458008,-25.695801,-4.455566,31.404297
14640,-3.811569,-4.812346,-0.579397,37.353516,3.631592,6.774902,31.390625
14680,3.026271,-2.360683,-0.430956,60.180664,7.690430,1.922607,31.406250
14720,15.433024,-1.857901,-3.208230,69.152832,25.970459,33.935547,31.394531
14760,23.697809,-4.079720,-5.295974,142.242432,-66.894531,-34.240723,31.390625
14800,22.788012,-3.715801,-3.715801,137.268066,5.493164,-43.243408,31.417969
14840,16.361975,1.934515,-1.814805,162.292480,-24.047852,-85.754395,31.423828
14880,7.546524,3.524265,1.297657,85.113525,4.058838,-75.469971,31.410156
14920,-2.336741,3.327940,1.259350,-14.678955,-18.005371,-28.350830,31.416016
14960,-3.433285,2.245761,-0.699107,-68.817139,7.446289,11.352539,31.412109
15000,1.000776,0.799663,-1.455675,-68.725586,19.012451,26.763916,31.406250
15040,6.698977,0.402226,-2.379837,-89.538574,23.223877,46.966553,31.431641
15080,15.351622,2.394202,-2.566584,-129.974365,-76.354980,14.373779,31.429688
15120,25.546133,2.389413,-2.164358,-178.771973,32.287598,36.590576,31.435547
15160,24.540567,0.359130,-1.623269,-149.322510,49.499512,60.638428,31.433594
15200,14.820108,1.144428,-3.270479,-87.036133,5.615234,35.980225,31.433594
15240,5.114015,-0.569820,-3.045424,-7.965088,22.033691,4.669189,31.416016
15280,-3.835511,-4.223372,-2.896984,105.682373,-52.093506,-11.596680,31.419922
15320,-6.344635,-4.788404,-0.804452,46.844482,-31.982422,-2.044678,31.437500
15360,-0.105345,-2.418144,-0.033519,55.389404,39.947510,-16.143799,31.457031
15400,10.783484,-3.179500,-1.297657,50.201416,57.220459,35.400391,31.441406
15440,22.462400,-2.671929,-5.999869,122.924805,-101.959229,-9.155273,31.425781
15480,23.841461,-4.180276,-3.658340,139.312744,-0.854492,-40.435791,31.447266
15520,18.986019,-0.330400,-2.667141,161.285400,-42.633057,-69.885254,31.423828
15560,10.630256,3.347094,0.373495,126.068115,-15.411377,-75.439453,31.457031
15600,1.412579,3.658340,2.073379,23.345947,-6.744385,-41.809082,31.437500
15640,-3.667917,2.624045,-0.215478,-57.556152,-9.674072,8.758545,31.423828
15680,-0.493206,1.259350,-1.345541,-75.958252,15.869141,25.329590,31.445312
15720,4.314352,0.603339,-2.169147,-84.167480,34.576416,40.771484,31.468750
15760,13.172897,1.628057,-2.595315,-95.947266,-27.587891,22.186279,31.462891
15800,23.175873,2.446874,-2.446874,-180.969238,-21.331787,22.644043,31.449219
15840,25.843014,0.967257,-0.919373,-179.656982,49.163818,58.258057,31.431641
15880,16.970102,0.493206,-3.074155,-101.684570,7.873535,47.546387,31.443359
15920,5.932832,-0.210690,-3.936068,-30.029297,10.284424,9.796143,31.460938
15960,-1.570596,-2.351106,-3.050213,85.327148,-29.754639,-22.827148,31.447266
16000,-5.463568,-5.319916,-1.450886,69.000244,-36.865234,-8.575439,31.453125
16040,-1.719037,-3.514688,-0.095768,35.583496,4.455566,-0.244141,31.453125
16080,6.761226,-2.920926,-0.167594,50.659180,25.817871,16.387939,31.457031
16120,20.374657,-2.700660,-6.014235,116.027832,-45.318604,7.354736,31.423828
16160,24.751257,-4.730943,-4.405331,151.214600,-21.606445,-36.560059,31.453125
16200,21.389797,-1.642422,-3.184288,156.372070,-8.422852,-55.847168,31.439453
16240,12.296620,3.462016,-0.770933,138.031006,-24.810791,-74.798584,31.457031
16280,2.873042,3.299210,2.221819,32.684326,3.784180,-44.708252,31.462891
16320,-3.849876,2.978387,0.359130,-36.285400,-4.547119,-5.004883,31.449219
16360,-1.599327,1.527501,-1.479617,-73.608398,10.314941,25.115967,31.460938
16400,2.935291,0.871489,-1.211466,-71.441650,14.556885,30.761719,31.468750
16440,12.627020,2.284068,-2.964022,-91.033936,39.459229,22.216797,31.486328
16480,22.376209,1.292869,-3.754108,-169.281006,-51.513672,9.613037,31.486328
16520,25.239674,0.210690,-1.651999,-161.346436,36.285400,47.027588,31.464844
16560,18.823214,-0.014365,-2.149993,-105.010986,19.409180,51.452637,31.482422
16600,8.456321,0.244209,-3.351882,-45.227051,16.998291,15.136719,31.447266
16640,0.253785,-1.666364,-2.834735,68.847656,-13.092041,-19.195557,31.453125
16680,-5.415684,-4.984728,-1.637634,82.916260,-37.902832,-10.375977,31.445312
16720,-3.701436,-4.098873,-0.608127,40.740967,-19.653320,-2.716064,31.457031
16760,4.189853,-2.662352,-0.090980,28.625488,49.194336,16.876221,31.451172
16800,18.804060,-2.078167,-5.549759,96.466064,-24.230957,13.671875,31.455078
16840,24.382549,-4.548983,-4.697424,162.536621,-43.640137,-45.959473,31.458984
16880,23.199814,-2.456451,-3.624821,140.594482,6.927490,-56.030273,31.488281
16920,15.696386,2.930503,-1.651999,164.367676,-35.064697,-96.038818,31.447266
16960,6.378153,3.203442,1.915361,68.359375,17.303467,-64.880371,31.455078
17000,-2.427721,3.505111,1.503559,-11.169434,-20.721436,-24.383545,31.466797
17040,-2.997540,2.178724,-0.612916,-72.357178,15.136719,18.646240,31.486328
17080,0.775721,0.397437,-0.972046,-62.530518,25.451660,26.092529,31.498047
17120,4.405331,0.344765,-2.082955,-87.066650,27.984619,45.867920,31.490234
17160,13.814544,2.226608,-3.122039,-95.947266,-58.410645,20.050049,31.480469
17200,25.843014,2.284068,-2.576161,-158.691406,-4.150391,33.203125,31.492188
17240,25.407269,1.221043,-0.933739,-136.718750,25.848389,51.452637,31.498047
17280,16.098612,0.320823,-2.772485,-83.282471,37.658691,40.954590,31.498047
17320,6.038177,-0.119710,-3.658340,-11.352539,15.106201,-6.011963,31.492188
17360,-2.231396,-3.423708,-3.050213,91.003418,-30.181885,-13.183594,31.521484
17400,-5.597643,-5.228937,-1.446098,68.847656,-42.816162,-1.922607,31.492188
17440,-0.569820,-3.366248,-0.445322,57.952881,14.404297,-6.011963,31.488281
17480,10.855310,-2.810793,-0.861913,31.768799,105.529785,48.828125,31.486328
17520,21.107283,-2.365471,-6.306327,143.676758,-119.873047,-10.955811,31.501953
17560,23.721750,-4.501099,-3.414132,132.263184,-4.028320,-38.513184,31.498047
17600,19.699492,-0.359130,-2.810793,166.961670,-47.912598,-73.120117,31.500000
17640,11.176133,3.112462,-0.004788,130.401611,-20.935059,-80.322266,31.503906
17680,1.953669,2.930503,1.762132,34.027100,-16.448975,-44.342041,31.482422
17720,-3.361459,2.935291,0.277727,-38.452148,1.373291,-0.030518,31.498047
17760,-0.967257,1.302446,-1.221043,-64.331055,15.594482,25.421143,31.521484
17800,2.293645,0.028730,-0.962469,-55.694580,9.765625,33.264160,31.480469
17840,9.255983,1.091756,-2.159570,-96.710205,31.768799,49.591064,31.511719
17880,21.475988,2.485181,-3.888184,-153.442383,-48.431396,18.890381,31.515625
17920,26.135105,0.703895,-2.202666,-163.238525,45.043945,35.217285,31.511719
17960,21.155167,-0.225055,-1.604115,-98.663330,52.154541,39.276123,31.503906
18000,10.156203,0.162806,-3.514688,-61.065674,-0.610352,14.099121,31.505859
18040,0.919373,-0.972046,-2.901772,60.729980,-27.008057,-22.247314,31.511719
18080,-5.281609,-4.529830,-1.790863,95.733643,-55.694580,-15.777588,31.515625
18120,-3.672705,-4.960786,-0.282516,32.806396,-19.805908,3.845215,31.511719
18160,3.035848,-3.294421,-0.272939,56.488037,12.268066,-0.579834,31.505859
18200,17.592594,-3.711013,-3.543418,71.197510,94.268799,50.018311,31.498047
18240,24.023420,-3.476381,-6.521805,153.625488,-95.825195,-35.339355,31.500000
18280,24.478317,-4.376601,-3.696647,143.341064,4.943848,-39.611816,31.511719
18320,16.548721,1.244985,-2.135628,168.243408,-75.408936,-88.287354,31.509766
18360,6.876147,2.504335,1.417367,83.343506,-7.476807,-61.218262,31.527344
18400,-1.498770,3.098097,1.474828,5.004883,0.000000,-35.858154,31.500000
18440,-3.543418,2.829947,-1.221043,-66.131592,12.390137,1.342773,31.505859
18480,0.076614,1.125275,-0.871489,-64.025879,26.428223,14.465332,31.498047
18520,3.902549,-0.004788,-0.790087,-76.049805,43.151855,33.233643,31.492188
18560,14.403518,1.546654,-3.476381,-89.782715,5.889893,24.139404,31.509766
18600,24.387339,0.574608,-2.935291,-158.508301,-16.540527,18.096924,31.501953
18640,25.479094,-0.488417,-0.895431,-126.251221,38.726807,43.945312,31.517578
18680,17.741035,0.081403,-1.790863,-107.849121,25.054932,41.900635,31.519531
18720,8.202535,0.430956,-2.638410,-36.468506,31.341553,5.249023,31.511719
18760,0.354342,-1.599327,-2.566584,76.232910,-11.505127,-23.284912,31.529297
18800,-5.865794,-4.860229,-1.680730,93.536377,-83.465576,-21.881104,31.498047
18840,-3.634398,-4.209007,-0.521936,54.840088,-21.179199,-1.159668,31.500000
18880,6.181829,-3.308787,0.110133,47.149658,82.611084,23.254395,31.521484
18920,19.689915,-3.653552,-6.349423,135.162354,-83.679199,6.591797,31.521484
18960,25.421633,-4.960786,-4.630386,182.617188,-22.735596,-41.687012,31.525391
19000,21.107283,-0.890643,-4.611232,177.612305,-27.801514,-44.860840,31.552734
19040,13.522451,3.821146,-0.914585,156.188965,-31.127930,-71.990967,31.546875
19080,5.525817,2.489970,1.795651,53.375244,25.390625,-38.757324,31.554688
19120,-1.781286,3.203442,0.699107,-7.720947,-6.103516,-25.634766,31.550781
19160,-2.968810,2.470816,-1.268927,-54.870605,29.388428,6.408691,31.527344
19200,1.283292,0.296881,-1.996764,-58.654785,23.498535,37.567139,31.539062
19240,10.496181,0.177171,-1.537078,-45.623779,19.744873,31.158447,31.546875
19280,20.570980,2.825158,-2.676718,-155.487061,-31.127930,31.555176,31.556641
19320,24.564510,2.236184,-1.886631,-181.915283,56.304932,44.128418,31.533203
19360,19.900604,-0.454898,-2.504335,-125.518799,29.357910,57.220459,31.552734
19400,10.893618,-0.995988,-3.399766,-83.801270,39.947510,38.421631,31.558594
19440,2.753332,-0.794875,-2.772485,-24.627686,62.225342,12.634277,31.552734
19480,-3.308787,-3.294421,-3.074155,63.507080,-33.874512,44.494629,31.560547
19520,-4.256891,-4.175488,-1.685518,77.239990,-35.278320,102.630615,31.560547
19560,-1.862689,-3.576937,0.718261,-0.762939,74.737549,-25.665283,31.554688
19600,11.133038,-5.583278,-1.877054,62.377930,98.937988,-117.340088,31.550781
19640,27.940334,-2.442086,-2.288857,104.400635,-91.857910,42.022705,31.556641
19680,23.898922,-0.306458,1.082179,90.301514,13.610840,-13.793945,31.541016
19720,16.994043,0.220267,0.507571,139.343262,-52.581787,-35.430908,31.542969
19760,8.676587,0.976834,2.121263,120.605469,37.292480,-9.124756,31.560547
19800,0.833182,0.962469,2.523489,28.564453,-1.068115,45.806885,31.574219
19840,-2.796427,2.169147,-0.162806,-45.715332,-11.260986,63.140869,31.550781
19880,-1.388637,0.641646,-0.804452,-56.335449,17.913818,35.003662,31.580078
19920,4.285621,-2.753332,-0.622492,-76.538086,49.926758,-10.559082,31.564453
19960,17.075447,0.746991,0.852336,-181.762695,22.857666,18.737793,31.546875
20000,23.831884,0.775721,0.464475,-91.369629,22.247314,5.432129,31.570312
20040,20.896593,-3.098097,0.306458,-25.756836,8.148193,-15.380859,31.558594
20080,15.600618,-2.312799,1.110910,-76.416016,73.486328,0.335693,31.560547
20120,8.250419,0.110133,-0.785298,-5.432129,63.690186,-9.582520,31.578125
20160,0.737414,-1.192312,-3.323152,43.121338,-105.590820,101.898193,31.552734
20200,-2.916138,-4.726154,-2.159570,34.088135,-56.030273,264.495850,31.562500
20240,-4.424485,-3.438074,-1.264138,10.223389,15.441895,135.314941,31.583984
20280,-1.877054,-3.213019,-1.709460,-2.807617,241.271973,-186.462402,31.556641
20320,24.210167,-5.142745,-2.039860,185.058594,-147.766113,-253.509521,31.560547
20360,27.662607,-1.517924,4.596867,64.025879,26.458740,2.441406,31.562500
20400,18.119318,-0.392649,2.308010,134.490967,-44.036865,-70.556641,31.572266
20440,12.694057,1.240196,1.752556,166.168213,-97.778320,-88.012695,31.570312
20480,5.659893,1.177947,3.246537,82.153320,-31.616211,-59.539795,31.546875
20520,-1.359907,0.330400,0.885855,-18.249512,32.440186,-16.326904,31.558594
20560,-3.232172,0.435745,-1.546654,-20.080566,26.489258,-15.350342,31.546875
20600,0.239420,0.004788,-0.943315,-10.345459,-16.204834,7.293701,31.558594
20640,6.378153,1.953669,-1.019930,-114.990234,-86.059570,-9.307861,31.560547
20680,23.831884,1.838747,-2.748544,-70.831299,-71.807861,22.644043,31.566406
20720,24.219744,3.629610,-0.181959,-143.493652,4.730225,33.813477,31.589844
20760,21.681890,3.591303,0.023942,-114.379883,14.282227,16.876221,31.576172
20800,16.007633,1.680730,-0.675165,-121.459961,108.032227,39.916992,31.570312
20840,5.386954,1.019930,-3.562572,-21.575928,27.282715,17.608643,31.591797
20880,-1.747767,-2.705448,-3.294421,99.487305,17.578125,26.184082,31.556641
20920,-4.951209,-4.783615,-0.751779,42.907715,18.615723,1.892090,31.574219
20960,-3.763685,-2.365471,1.374272,-0.122070,-92.376709,-22.888184,31.570312
21000,2.815581,-2.130840,-0.004788,36.651611,-175.781250,-22.949219,31.619141
21040,19.062634,-0.014365,-5.300763,75.988770,-52.825928,19.836426,31.617188
21080,25.752033,0.703895,-3.529053,80.993652,-7.904053,-20.996094,31.613281
21120,23.578098,-0.330400,-2.681506,129.730225,-7.873535,-40.588379,31.613281
21160,16.376339,1.972822,-1.690306,86.761475,-23.071289,-38.055420,31.628906
21200,8.820239,2.916138,0.699107,60.852051,26.214600,-44.830322,31.609375
21240,1.096544,2.303222,0.373495,-1.495361,7.232666,-17.639160,31.615234
21280,-3.155558,1.766921,-0.517148,-62.591553,20.812988,14.678955,31.609375
21320,-1.158794,1.537078,-1.757344,-73.425293,15.625000,28.015137,31.601562
21360,5.755661,1.766921,-2.159570,-87.615967,-63.690186,48.400879,31.615234
21400,14.733917,3.102885,-2.710236,-153.778076,-60.302734,33.142090,31.628906
21440,23.041798,5.023035,-3.830723,-208.404541,7.812500,35.888672,31.626953
21480,23.693020,1.781286,-3.720589,-162.933350,9.948730,56.762695,31.599609
21520,16.649279,1.244985,-3.035848,-137.054443,55.908203,60.913086,31.617188
21560,7.345411,1.632846,-3.897760,-54.931641,27.679443,8.148193,31.613281
21600,-0.608127,-2.245761,-3.083732,27.008057,35.095215,-8.087158,31.628906
21640,-5.995081,-5.846641,-1.651999,37.994385,-26.550293,5.523682,31.613281
21680,-2.466028,-3.342306,0.617704,15.563965,15.319824,3.509521,31.603516
21720,3.222595,-1.537078,-0.043096,45.898438,-36.743164,-6.652832,31.623047
21760,15.313314,-1.666364,-3.342306,49.896240,21.423340,23.010254,31.623047
21800,23.903709,-0.833182,-4.338294,102.416992,-41.992188,-34.667969,31.607422
21840,22.448034,-1.968034,-2.355895,107.940674,21.942139,-38.696289,31.597656
21880,16.500837,1.302446,-1.249773,129.730225,9.399414,-73.455811,31.613281
21920,8.183381,2.600103,1.503559,81.756592,45.867920,-69.854736,31.603516
21960,-1.651999,3.394978,1.110910,-11.840820,5.523682,-33.813477,31.601562
22000,-4.299986,2.327164,-1.067814,-74.218750,1.068115,21.301270,31.638672
22040,-0.354342,1.680730,-1.015141,-73.944092,-16.448975,25.054932,31.615234
22080,7.115568,2.853889,-2.949656,-111.877441,-22.338867,34.759521,31.603516
22120,21.681890,3.055001,-3.883395,-145.080566,-57.098389,7.385254,31.626953
22160,26.355371,2.748544,-2.370260,-157.867432,1.861572,26.245117,31.626953
22200,22.989124,1.369483,-0.847547,-134.765625,43.548584,51.483154,31.617188
22240,13.484144,1.436521,-3.016694,-97.473145,46.234131,36.346436,31.617188
22280,4.405331,-0.651223,-3.754108,27.038574,28.564453,2.105713,31.628906
22320,-5.252879,-5.248090,-3.251326,117.523193,-17.272949,-15.594482,31.625000
22360,-5.530606,-5.492299,-0.354342,42.510986,-48.828125,-0.579834,31.628906
22400,4.922479,-2.997540,0.186748,52.490234,-6.286621,2.929688,31.632812
22440,21.696257,-0.521936,-7.431602,117.218018,-66.040039,-9.155273,31.642578
22480,24.420856,-1.422156,-4.630386,128.997803,20.416260,-56.701660,31.617188
22520,20.250158,0.004788,-3.926491,142.150879,-40.740967,-60.241699,31.630859
22560,13.144167,2.777274,-0.928950,122.711182,4.577637,-74.035645,31.605469
22600,4.314352,3.131616,1.561020,35.491943,9.674072,-50.598145,31.621094
22640,-3.667917,3.280056,0.761356,-36.346436,2.899170,-18.829346,31.636719
22680,-3.102885,1.905785,-0.948104,-78.338623,11.932373,20.812988,31.642578
22720,1.537078,0.794875,-0.948104,-62.866211,18.768311,26.611328,31.640625
22760,7.862558,2.102109,-2.633622,-99.090576,10.650635,49.957275,31.619141
22800,20.858286,4.204218,-3.648763,-162.078857,-49.865723,18.310547,31.644531
22840,26.001030,2.236184,-2.585738,-161.590576,23.468018,45.288086,31.638672
22880,20.618866,0.790087,-2.173935,-140.838623,8.087158,73.944092,31.628906
22920,10.998962,1.527501,-2.451663,-74.005127,39.398193,40.313721,31.628906
22960,2.226608,-0.555455,-2.815581,39.001465,20.568848,-7.141113,31.656250
23000,-5.046977,-5.185841,-2.470816,98.236084,-47.576904,-15.899658,31.638672
23040,-3.447650,-5.109226,-1.043872,42.999268,-10.894775,6.072998,31.662109
23080,4.975151,-3.275268,0.086191,36.651611,33.935547,15.258789,31.671875
23120,17.468096,-1.000776,-5.262455,93.627930,-46.020508,18.646240,31.648438
23160,22.725763,-2.408567,-3.351882,139.465332,-22.674561,-47.302246,31.666016
23200,22.596476,-2.566584,-3.308787,129.364014,-34.332275,-54.840088,31.671875
23240,15.667656,1.498770,-1.862689,159.149170,-26.855469,-81.542969,31.675781
23280,6.277597,3.026271,1.623269,79.345703,16.448975,-59.814453,31.636719
23320,-2.695871,3.912126,1.039083,-10.559082,3.631592,-26.489258,31.664062
23360,-3.270479,2.193089,-1.302446,-68.664551,-3.143311,7.934570,31.666016
23400,0.407014,1.082179,-1.604115,-60.577393,-9.979248,15.350342,31.656250
23440,7.005434,1.728614,-1.891419,-79.742432,7.507324,28.533936,31.689453
23480,17.798496,4.060566,-2.992752,-140.686035,-32.531738,1.708984,31.669922
23520,24.894909,3.256114,-3.428497,-152.343750,-10.620117,21.667480,31.662109
23560,23.396139,1.699883,-1.517924,-149.536133,39.794922,63.079834,31.669922
23600,13.053187,1.307234,-3.596091,-100.494385,3.112793,50.781250,31.673828
23640,4.486734,-0.478840,-3.270479,14.160156,20.507812,12.054443,31.681641
23680,-2.724602,-3.572149,-2.336741,94.635010,-31.158447,-10.467529,31.677734
23720,-4.908113,-5.343858,-1.067814,62.042236,-38.482666,6.591797,31.666016
23760,-0.229843,-3.088520,0.167594,63.659668,22.949219,0.244141,31.683594
23800,9.916783,-2.628834,-0.756568,61.950684,62.774658,33.599854,31.699219
23840,21.586123,-0.545878,-6.512228,128.723145,-94.421387,-8.392334,31.695312
23880,24.281994,-2.528277,-4.007894,127.136230,9.399414,-38.238525,31.648438
23920,20.480001,0.076614,-3.184288,155.242920,-69.305420,-75.836182,31.675781
23960,12.148179,2.849100,-0.248997,117.645264,-6.195068,-70.922852,31.691406
24000,3.016694,2.834735,1.977611,40.710449,-7.995605,-43.518066,31.685547
24040,-3.552995,3.069367,0.363919,-32.501221,-5.645752,-9.857178,31.662109
24080,-2.173935,1.733402,-1.632846,-80.780029,10.894775,26.336670,31.677734
24120,1.541866,1.441309,-1.197101,-72.875977,6.896973,26.123047,31.677734
24160,10.247183,2.585738,-2.379837,-106.262207,40.618896,31.707764,31.691406
24200,22.055386,2.566584,-3.543418,-134.826660,-32.531738,9.979248,31.695312
24240,25.507826,1.675941,-2.446874,-155.853271,19.958496,49.346924,31.683594
24280,19.651608,0.780510,-2.188300,-127.838135,10.009766,67.901611,31.681641
24320,8.805874,0.565032,-3.399766,-52.947998,24.322510,38.391113,31.693359
24360,0.493206,-0.565032,-2.480393,62.713623,22.888184,-17.272949,31.695312
24400,-4.845864,-4.448427,-1.824382,89.630127,-38.818359,-19.165039,31.697266
24440,-3.136404,-5.319916,-0.909797,46.203613,-9.338379,20.690918,31.707031
24480,2.978387,-2.791639,-0.081403,60.638428,-1.586914,10.253906,31.701172
24520,17.693151,-1.446098,-4.094085,74.859619,5.065918,21.728516,31.683594
24560,25.268404,-3.098097,-4.371812,146.240234,-26.885986,-37.231445,31.675781
24600,23.410503,-2.255338,-3.327940,128.692627,-11.138916,-42.694092,31.683594
24640,15.485697,1.891419,-1.920150,150.695801,-38.787842,-75.286865,31.708984
24680,6.287174,3.371036,1.130063,71.655273,-0.885010,-59.478760,31.691406
24720,-2.226608,3.145981,1.460463,-4.241943,-4.974365,-36.773682,31.691406
24760,-3.840300,2.159570,-0.794875,-61.889648,20.355225,3.051758,31.679688
24800,0.177171,1.776498,-1.235408,-68.206787,0.244141,15.655518,31.681641
24840,6.483498,1.944092,-1.594538,-102.874756,50.567627,34.698486,31.677734
24880,18.799273,2.873042,-3.289633,-120.269775,-27.313232,0.122070,31.687500
24920,24.454376,2.197877,-3.021482,-175.903320,12.115479,30.853271,31.701172
24960,23.683443,1.503559,-1.254562,-159.332275,30.578613,62.622070,31.673828
25000,14.499286,1.048660,-2.509123,-102.416992,7.751465,50.567627,31.695312
25040,5.583278,0.430956,-2.111686,-23.986816,56.182861,4.333496,31.701172
25080,-2.920926,-2.997540,-1.996764,54.656982,-1.770020,-22.766113,31.705078
25120,-6.081272,-5.463568,-2.015918,48.095703,-32.165527,-2.166748,31.697266
25160,-0.981623,-3.232172,-0.914585,53.924561,0.610352,-4.882812,31.722656
25200,10.352529,-2.111686,-0.493206,45.715332,47.302246,19.134521,31.699219
25240,21.337126,-1.072602,-4.865018,125.091553,-86.669922,-3.845215,31.714844
25280,23.453600,-3.040636,-2.489970,132.263184,3.234863,-28.167725,31.699219
25320,20.345926,0.517148,-2.557007,169.830322,-44.677734,-72.082520,31.708984
25360,12.665327,3.064578,-0.770933,144.317627,-6.927490,-69.854736,31.707031
25400,4.424485,2.954445,1.450886,76.965332,2.288818,-45.928955,31.710938
25440,-2.595315,3.591303,1.096544,-12.359619,-6.652832,-21.453857,31.695312
25480,-2.695871,2.102109,-1.005565,-59.143066,5.432129,15.838623,31.693359
25520,1.168370,1.249773,-1.637634,-60.302734,7.690430,23.620605,31.712891
25560,9.303867,2.106898,-1.996764,-75.592041,42.083740,29.998779,31.699219
25600,18.804060,2.983175,-3.026271,-123.657227,-46.875000,-3.692627,31.705078
25640,24.368185,3.299210,-1.364695,-149.291992,8.453369,22.247314,31.744141
25680,22.261288,2.408567,0.167594,-159.393311,46.813965,59.204102,31.730469
25720,12.856863,1.431733,-1.695095,-90.270996,18.218994,31.433105,31.742188
25760,3.691859,-0.584185,-2.106898,-4.699707,18.951416,-1.892090,31.730469
25800,-3.950433,-3.739743,-2.422932,66.375732,-26.489258,-14.282227,31.708984
25840,-4.050989,-4.879383,-1.503559,44.372559,-3.967285,4.333496,31.724609
25880,1.130063,-2.145205,-0.368707,75.805664,16.296387,-17.303467,31.712891
25920,10.419566,-2.059013,-0.957681,83.038330,28.106689,16.601562,31.722656
25960,22.189461,-0.268151,-4.410120,126.861572,-81.268311,-13.977051,31.744141
26000,24.305935,-1.254562,-2.432509,129.486084,8.728027,-26.641846,31.738281
26040,19.718645,2.078167,-1.029507,148.468018,-18.890381,-53.863525,31.736328
26080,11.391612,3.064578,0.895431,100.769043,-4.486084,-49.682617,31.744141
26120,2.288857,3.332729,1.613692,36.865234,-22.094727,-43.365479,31.757812
26160,-4.060566,2.968810,0.335188,-46.813965,-10.314941,-17.761230,31.742188
26200,-1.513135,1.125275,-1.403002,-64.880371,29.968262,17.456055,31.748047
26240,3.514688,0.071826,-1.910573,-46.905518,25.756836,32.073975,31.730469
26280,12.741941,1.288081,-1.948880,-45.837402,-1.403809,29.266357,31.750000
26320,20.910957,5.501875,-1.379060,-147.033691,-23.223877,2.288818,31.751953
26360,23.506271,3.433285,-0.023942,-141.693115,14.404297,41.961670,31.757812
26400,19.072210,1.144428,-1.101333,-127.593994,3.234863,68.115234,31.761719
26440,10.180145,1.297657,-2.078167,-54.809570,28.778076,28.930664,31.750000
26480,1.699883,-0.665588,-2.102109,48.309326,7.995605,-9.765625,31.777344
26520,-4.821922,-4.697424,-1.867477,87.463379,-37.384033,-14.007568,31.753906
26560,-2.777274,-4.276044,-1.048660,53.314209,-5.279541,-2.014160,31.748047
26600,4.472369,-2.896984,-0.301669,63.232422,-1.739502,-5.706787,31.769531
26640,18.837580,-1.005565,-4.175488,95.489502,-32.470703,23.193359,31.748047
26680,23.803154,-1.403002,-3.490746,142.822266,-4.028320,-40.191650,31.740234
26720,22.328325,-1.067814,-2.743755,139.404297,23.620605,-31.768799,31.767578
26760,15.016433,4.017470,-0.316035,132.965088,-7.110596,-72.998047,31.767578
26800,6.727707,4.127604,2.360683,53.405762,-0.549316,-40.191650,31.750000
26840,-2.403779,4.094085,1.637634,-30.914307,-41.595459,-5.035400,31.748047
26880,-2.935291,3.251326,-0.641646,-101.684570,-5.065918,34.271240,31.734375
26920,1.201889,2.480393,-1.695095,-97.412109,-6.530762,17.120361,31.732422
26960,6.560112,3.825934,-3.701436,-146.179199,-23.468018,19.287109,31.746094
27000,17.166426,3.002329,-4.481946,-183.166504,-39.306641,31.951904,31.740234
27040,22.385786,1.364695,-4.462792,-163.818359,-0.549316,34.423828,31.773438
27080,20.207062,0.928950,-2.849100,-132.873535,10.131836,35.766602,31.744141
27120,13.867216,-0.349553,-1.968034,-93.841553,25.878906,41.229248,31.757812
27160,5.070919,-1.326388,-1.996764,-41.625977,20.660400,28.900146,31.767578
27200,-3.758897,-2.892196,-2.226608,27.526855,-22.094727,11.199951,31.757812
27240,-3.260903,-2.413355,-2.011129,55.541992,22.247314,3.601074,31.769531
27280,3.706224,-2.480393,-2.566584,87.249756,6.774902,8.239746,31.748047
27320,15.433024,-1.680730,-3.916914,80.780029,-0.854492,24.749756,31.757812
27360,22.510284,-2.466028,-3.782839,159.149170,-5.126953,-21.636963,31.773438
27400,22.333113,-2.398990,-3.107674,176.727295,-6.896973,-30.761719,31.773438
27440,16.553511,1.450886,-2.327164,164.520264,-55.114746,-57.952881,31.783203
27480,8.872911,3.552995,0.407014,146.453857,5.340576,-81.817627,31.759766
27520,-0.770933,3.160346,1.096544,58.013916,-32.806396,-57.708740,31.779297
27560,-4.180276,2.145205,0.158017,-26.885986,40.802002,-2.044678,31.769531
27600,-0.852336,1.125275,-0.804452,-26.611328,22.979736,14.373779,31.773438
27640,3.155558,1.738190,-0.521936,-39.337158,13.702393,28.198242,31.820312
27680,13.704411,3.916914,-1.982399,-79.559326,-35.888672,24.078369,31.789062
27720,23.487118,3.380613,-2.068590,-150.299072,-10.589600,25.451660,31.794922
27760,25.464729,2.786851,-0.665588,-154.632568,44.525146,36.865234,31.779297
27800,18.176779,2.030283,-1.412579,-115.692139,53.558350,31.768799,31.800781
27840,7.603985,0.172383,-3.050213,-42.358398,9.399414,-0.976562,31.783203
27880,-0.900220,-2.571373,-2.547431,51.849365,-7.965088,-20.996094,31.783203
27920,-5.865794,-4.448427,-1.723825,36.346436,-38.238525,-3.753662,31.802734
27960,-2.039860,-2.308010,0.172383,40.252686,4.882812,-13.092041,31.785156
28000,6.517017,-3.438074,-0.483629,80.352783,-59.509277,7.751465,31.785156
28040,22.213404,-2.092532,-5.276821,114.685059,-14.831543,29.235840,31.804688
28080,26.446352,-1.484405,-3.983952,163.604736,9.002686,-31.433105,31.796875
28120,21.523872,0.689530,-3.347094,148.895264,-38.879395,-39.703369,31.789062
28160,12.646173,4.074931,-0.335188,131.439209,12.145996,-64.849854,31.804688
28200,4.434062,2.858677,1.517924,59.387207,9.307861,-43.182373,31.800781
28240,-3.825934,2.853889,0.952892,-17.730713,3.906250,-8.422852,31.794922
28280,-3.251326,1.843535,-0.842759,-59.844971,25.756836,25.207520,31.812500
28320,1.187524,1.163582,-0.588974,-49.102783,-7.141113,26.611328,31.806641
28360,9.232041,2.662352,-1.455675,-98.388672,25.207520,41.717529,31.783203
28400,23.013067,3.706224,-3.275268,-145.141602,-27.130127,12.695312,31.820312
28440,26.005819,2.887407,-1.393425,-152.832031,36.407471,39.886475,31.806641
28480,18.971655,2.044648,-0.952892,-121.154785,29.815674,41.992188,31.812500
28520,8.513782,0.713472,-2.920926,-55.877686,9.521484,8.941650,31.785156
28560,0.756568,-2.580950,-2.863465,50.079346,-0.885010,-9.613037,31.800781
28600,-5.161899,-4.601655,-2.145205,70.068359,-57.312012,-8.300781,31.816406
28640,-2.671929,-3.567361,-0.258574,57.952881,-6.347656,-2.288818,31.824219
28680,5.300763,-3.797204,0.186748,60.882568,-12.268066,21.026611,31.816406
28720,18.904617,-1.288081,-4.529830,96.252441,-25.573730,33.111572,31.810547
28760,25.134329,-1.364695,-3.117251,152.893066,-6.042480,-44.555664,31.816406
28800,21.964407,-0.210690,-2.667141,134.246826,-56.579590,-63.354492,31.818359
28840,13.742718,2.954445,-0.110133,136.260986,10.192871,-79.284668,31.816406
28880,4.309563,2.849100,1.623269,53.710938,6.561279,-50.262451,31.806641
28920,-3.658340,2.834735,0.689530,-29.815674,-6.622314,-8.544922,31.808594
28960,-3.308787,1.508347,-0.799663,-63.598633,32.684326,22.674561,31.804688
29000,2.173935,1.091756,-1.283292,-57.586670,4.608154,41.625977,31.808594
29040,13.139379,2.092532,-2.212242,-76.934814,-30.700684,26.916504,31.830078
29080,21.590912,4.266468,-1.426944,-169.921875,7.293701,23.345947,31.810547
29120,24.626759,2.327164,-0.584185,-131.744385,9.277344,36.804199,31.828125
29160,18.114531,1.446098,-0.723049,-124.877930,56.274414,50.933838,31.816406
29200,7.216124,0.967257,-3.758897,-39.367676,4.302979,8.270264,31.824219
29240,-1.316811,-3.093309,-3.955221,98.999023,-33.660889,-35.461426,31.810547
29280,-5.401319,-5.540183,-1.594538,68.878174,-35.552979,-15.747070,31.835938
29320,-0.866701,-3.366248,0.991199,63.018799,28.656006,-12.054443,31.820312
29360,7.105990,-3.672705,0.344765,73.059082,-35.125732,25.909424,31.830078
29400,20.781672,0.464475,-5.736507,80.291748,-75.347900,21.881104,31.820312
29440,24.775200,-0.339977,-3.610456,129.455566,-5.493164,-35.003662,31.832031
29480,20.671537,0.512359,-3.045424,137.420654,-68.176270,-69.091797,31.822266
29520,12.785037,2.552219,0.474052,101.013184,-7.751465,-80.749512,31.845703
29560,3.787627,2.930503,1.561020,18.341064,0.091553,-55.999756,31.835938
29600,-4.596867,2.643199,0.076614,-64.086914,30.761719,4.272461,31.855469
29640,-2.662352,1.896208,-1.345541,-82.489014,13.916016,26.489258,31.845703
29680,4.563348,1.647211,-3.174711,-108.062744,-24.047852,57.128906,31.839844
29720,17.568651,1.747767,-3.979163,-130.249023,-34.606934,23.010254,31.845703
29760,27.887661,1.565808,-3.921702,-145.965576,-25.512695,29.479980,31.849609
29800,27.265169,2.049437,-0.866701,-117.187500,59.143066,55.206299,31.861328
29840,14.360422,3.299210,-4.410120,-126.708984,8.697510,37.536621,31.847656
29880,4.529830,0.952892,-4.046201,-5.920410,56.701660,-13.549805,31.841797
29920,-2.226608,-3.792415,-4.213795,166.168213,-71.655273,-48.095703,31.849609
29960,-5.128380,-7.091625,-0.167594,72.631836,15.747070,10.559082,31.830078
30000,-1.460463,-2.892196,1.766921,50.720215,2.349854,-12.969971,31.859375
30040,3.481169,-1.843535,-0.833182,90.270996,-80.108643,-9.887695,31.878906
30080,18.669985,-0.019154,-5.243302,64.636230,66.558838,23.040771,31.849609
30120,27.064056,-2.106898,-5.851429,180.999756,-19.409180,-43.823242,31.865234
30160,22.448034,-0.507571,-4.764462,172.119141,-27.557373,-53.588867,31.869141
30200,12.401965,4.414908,-1.000776,146.759033,-19.378662,-85.174561,31.847656
30240,4.074931,3.567361,2.149993,42.297363,36.834717,-47.210693,31.857422
30280,-4.639963,2.657564,0.373495,-39.611816,29.449463,-1.098633,31.857422
30320,-2.992752,1.704672,-1.350330,-50.964355,17.486572,23.498535,31.861328
30360,3.567361,1.618480,-1.924938,-69.610596,19.622803,41.503906,31.851562
30400,14.025233,1.292869,-2.844312,-77.301025,-30.944824,31.463623,31.861328
30440,22.471977,3.591303,-3.078943,-185.607910,-23.620605,33.203125,31.861328
30480,25.517403,2.719813,-1.915361,-168.609619,28.991699,53.405762,31.859375
30520,17.889475,1.163582,-3.213019,-109.710693,32.623291,41.748047,31.841797
30560,8.422802,-0.244209,-4.041412,-33.691406,36.499023,3.448486,31.855469
30600,0.134075,-2.964022,-3.265691,68.359375,35.552979,-16.021729,31.888672
30640,-6.373365,-5.449203,-1.977611,90.606689,-51.116943,-21.636963,31.863281
30680,-2.240973,-4.405331,0.086191,52.215576,-12.847900,-4.180908,31.865234
30720,9.050082,-1.618480,-0.703895,23.193359,57.891846,32.592773,31.878906
30760,20.858286,-1.800440,-5.430049,145.812988,-122.161865,-12.512207,31.884766
30800,22.294806,-2.911349,-2.595315,107.025146,15.136719,-31.036377,31.898438
30840,18.540697,0.335188,-3.208230,161.376953,-68.847656,-80.383301,31.876953
30880,12.114660,2.121263,-0.684742,137.298584,-8.544922,-85.906982,31.861328
30920,4.074931,2.236184,1.498770,48.034668,21.179199,-44.281006,31.882812
30960,-3.045424,3.873818,0.330400,-33.050537,-3.662109,-12.939453,31.869141
31000,-2.485181,2.327164,-1.158794,-81.390381,1.861572,20.416260,31.853516
31040,1.029507,0.316035,-1.537078,-62.683105,3.753662,30.517578,31.849609
31080,8.757990,0.598550,-2.126051,-76.721191,50.781250,39.611816,31.880859
31120,20.360291,2.705448,-3.720589,-104.644775,-68.603516,18.218994,31.876953
31160,25.105598,3.126827,-0.866701,-152.496338,14.251709,47.821045,31.871094
31200,20.623653,2.193089,-0.445322,-119.781494,33.264160,53.588867,31.873047
31240,11.238382,0.545878,-3.145981,-55.389404,13.397217,30.273438,31.882812
31280,2.422932,-1.489193,-3.208230,43.579102,37.780762,0.457764,31.880859
31320,-4.960786,-4.299986,-2.638410,116.699219,-66.864014,-19.714355,31.878906
31360,-3.663129,-4.194642,-0.823605,77.606201,-9.429932,-2.410889,31.863281
31400,3.351882,-3.045424,-0.387861,55.816650,-19.256592,7.812500,31.878906
31440,17.712305,-1.053449,-5.166687,67.993164,-1.220703,34.790039,31.880859
31480,23.611618,-2.183512,-4.544195,157.379150,-39.398193,-35.369873,31.910156
31520,22.855049,-2.044648,-3.112462,135.955811,-7.385254,-39.978027,31.884766
31560,16.050728,2.102109,-2.049437,162.322998,-32.989502,-85.876465,31.861328
31600,7.436390,2.806004,1.077391,92.315674,10.192871,-73.913574,31.906250
31640,-1.719037,3.303998,1.230620,3.814697,26.641846,-36.468506,31.896484
31680,-3.811569,2.274492,-0.924162,-59.051514,12.390137,7.537842,31.910156
31720,0.651223,0.761356,-0.881066,-38.909912,9.033203,13.519287,31.900391
31760,8.283937,0.277727,-1.977611,-70.434570,35.034180,52.124023,31.894531
31800,16.529568,3.849876,-3.007117,-144.592285,-66.253662,30.120850,31.898438
31840,24.267628,3.189077,-2.585738,-156.280518,32.318115,23.834229,31.908203
31880,23.084892,0.378284,-1.570596,-122.467041,26.367188,53.680420,31.929688
31920,13.508086,0.268151,-2.533065,-97.991943,22.003174,48.492432,31.904297
31960,4.323928,-0.186748,-2.537854,15.869141,35.095215,1.037598,31.898438
32000,-3.232172,-2.959233,-2.451663,122.924805,-53.497314,-35.552979,31.884766
32040,-4.434062,-5.190629,-0.890643,71.960449,-18.920898,1.800537,31.908203
32080,0.100556,-3.059790,-0.493206,80.352783,6.958008,-3.143311,31.910156
32120,11.927913,-2.437297,-1.752556,42.633057,63.262939,41.473389,31.912109
32160,22.807165,-1.968034,-4.994305,144.470215,-86.334229,-8.087158,31.908203
32200,24.894909,-3.605668,-3.126827,140.472412,-0.549316,-43.121338,31.910156
32240,18.741812,0.493206,-2.777274,170.928955,-67.321777,-76.446533,31.919922
32280,9.251195,3.442862,0.727837,120.239258,-7.110596,-74.523926,31.914062
32320,0.713472,3.596091,1.872266,27.313232,13.214111,-44.708252,31.900391
32360,-3.720589,3.045424,-0.368707,-48.400879,3.845215,-7.629395,31.927734
32400,-0.799663,1.115698,-1.206678,-69.976807,2.227783,15.991211,31.910156
32440,2.475605,-0.129287,-0.761356,-60.424805,15.808105,28.961182,31.929688
32480,11.429919,2.753332,-2.523489,-110.076904,36.926270,29.968262,31.923828
32520,23.132776,3.457227,-3.725378,-145.935059,-56.640625,2.227783,31.896484
32560,26.288334,1.139640,-1.292869,-150.756836,19.531250,50.079346,31.935547
32600,19.287689,1.010353,-1.513135,-117.431641,7.202148,54.840088,31.914062
32640,9.241618,0.881066,-2.585738,-61.279297,57.403564,28.686523,31.906250
32680,0.478840,-0.392649,-2.829947,46.997070,-3.112793,0.488281,31.927734
32720,-5.880159,-4.936844,-1.738190,78.765869,-36.499023,-33.294678,31.931641
32760,-3.016694,-4.922479,-1.115698,62.561035,0.579834,8.026123,31.933594
32800,5.070919,-2.250550,-1.628057,65.216064,-65.185547,-3.265381,31.914062
32840,20.623653,-0.890643,-5.698200,94.726562,-27.435303,10.406494,31.910156
32880,24.933216,-2.633622,-4.280833,136.352539,14.648438,-35.339355,31.921875
32920,21.906946,-0.292093,-3.284845,122.802734,6.500244,-42.877197,31.931641
32960,13.484144,4.271256,-0.751779,152.954102,-3.479004,-92.041016,31.917969
33000,4.295198,2.499547,1.934515,48.706055,3.082275,-52.124023,31.931641
33040,-3.462016,2.882619,1.168370,-17.578125,-7.507324,-17.913818,31.927734
33080,-3.145981,1.958457,-1.570596,-73.181152,-2.502441,17.883301,31.933594
33120,1.273715,0.287304,-1.106121,-54.504395,8.300781,29.022217,31.912109
33160,7.134721,1.608904,-2.284068,-91.125488,23.376465,46.508789,31.923828
33200,19.345150,4.046201,-3.495534,-130.920410,-62.530518,23.681641,31.941406
33240,26.283546,3.380613,-1.786075,-167.907715,36.468506,44.921875,31.916016
33280,22.539015,1.982399,-0.938527,-147.155762,14.038086,74.249268,31.927734
33320,11.611878,1.862689,-2.633622,-96.252441,23.406982,44.158936,31.906250
33360,2.753332,-0.531513,-2.983175,8.026123,31.158447,18.768311,31.923828
33400,-4.960786,-4.400543,-3.026271,81.085205,-58.013916,-21.118164,31.931641
33440,-4.381389,-5.252879,-1.403002,74.310303,12.451172,-0.854492,31.933594
33480,2.116474,-2.978387,-0.565032,71.960449,25.939941,2.380371,31.933594
33520,16.242264,0.330400,-3.835511,54.168701,1.953125,15.655518,31.917969
33560,24.832661,-3.031059,-4.170700,154.815674,-35.156250,-26.489258,31.953125
33600,23.434446,-2.432509,-3.399766,151.947021,-36.865234,-34.271240,31.962891
33640,15.677233,4.228160,-1.431733,170.257568,-36.132812,-87.585449,31.972656
33680,6.584054,3.600879,1.675941,83.068848,18.890381,-64.788818,31.941406
33720,-1.987187,2.643199,1.513135,9.185791,-15.960693,-27.984619,31.957031
33760,-3.337517,1.872266,-1.158794,-59.295654,-1.007080,21.820068,31.953125
33800,0.823605,0.952892,-1.326388,-66.558838,8.728027,40.435791,31.949219
33840,5.291186,1.872266,-1.810017,-100.372314,21.667480,51.666260,31.958984
33880,15.777789,4.343082,-3.117251,-141.204834,-29.602051,9.643555,31.953125
33920,24.770411,3.351882,-3.878607,-177.185059,-1.251221,23.529053,31.943359
33960,24.981100,2.116474,-0.948104,-158.233643,31.066895,56.152344,31.955078
34000,14.623784,1.877054,-2.370260,-130.371094,32.165527,44.006348,31.960938
34040,4.515464,0.287304,-3.031059,-13.702393,32.287598,3.051758,31.962891
34080,-3.519476,-3.529053,-2.920926,99.853516,-55.145264,-26.702881,31.972656
34120,-5.056554,-5.865794,-1.350330,47.821045,-15.289307,4.882812,31.955078
34160,0.895431,-3.505111,-0.454898,39.184570,-13.031006,5.279541,31.960938
34200,16.290148,-0.814029,-2.815581,10.467529,103.393555,39.306641,31.958984
34240,23.578098,-1.369483,-5.056554,161.224365,-68.603516,-33.081055,31.986328
34280,23.180660,-2.614468,-3.016694,142.089844,12.329102,-44.281006,31.970703
34320,15.763424,1.948880,-2.082955,164.672852,-33.660889,-75.317383,31.957031
34360,6.646304,4.046201,1.359907,109.375000,4.058838,-75.317383,31.976562
34400,-1.733402,3.189077,1.680730,14.282227,-11.047363,-30.761719,31.957031
34440,-3.476381,2.264915,-0.603339,-50.872803,0.549316,12.451172,31.943359
34480,0.435745,1.350330,-0.924162,-67.718506,5.493164,32.867432,31.966797
34520,4.357447,1.867477,-1.503559,-105.346680,22.003174,51.910400,31.970703
34560,16.457743,5.243302,-3.687071,-162.536621,-40.008545,7.019043,31.972656
34600,25.637112,2.657564,-3.682282,-165.557861,-17.730713,11.352539,31.962891
34640,25.225309,1.043872,-0.373495,-156.982422,14.343262,69.641113,31.947266
34680,15.150508,2.317587,-1.929727,-135.498047,21.240234,60.607910,31.966797
34720,5.319916,1.666364,-2.724602,-31.677246,45.593262,8.514404,31.962891
34760,-2.729390,-2.844312,-3.289633,77.117920,-52.459717,-25.390625,31.968750
34800,-5.434838,-6.550536,-2.202666,67.199707,-21.026611,-2.532959,31.966797
34840,-0.248997,-3.897760,-0.517148,63.232422,19.165039,-4.058838,31.962891
34880,13.072341,-1.733402,-0.852336,35.675049,77.392578,36.621094,31.972656
34920,22.773647,-0.363919,-5.219360,125.213623,-75.103760,-21.728516,31.984375
34960,23.333889,-3.270479,-3.433285,152.008057,-1.495361,-42.816162,31.966797
35000,17.324444,2.097321,-2.518700,170.318604,-34.179688,-81.207275,31.982422
35040,8.451532,3.782839,0.502782,112.884521,-11.352539,-70.373535,31.966797
35080,0.823605,2.466028,2.001553,36.010742,-9.246826,-24.230957,31.970703
35120,-3.663129,3.011906,-0.071826,-42.785645,-15.899658,7.019043,31.960938
35160,-0.617704,1.604115,-1.426944,-63.079834,11.413574,28.350830,31.986328
35200,4.165911,1.201889,-2.111686,-88.867188,19.287109,42.816162,31.990234
35240,15.543158,3.567361,-3.299210,-124.969482,-6.896973,24.627686,31.964844
35280,24.219744,4.237737,-3.112462,-172.973633,-11.169434,9.826660,32.001953
35320,25.311501,1.738190,-0.402226,-157.257080,10.559082,63.568115,31.974609
35360,16.361975,1.910573,-1.177947,-148.498535,64.544678,71.411133,31.980469
35400,5.588067,1.053449,-3.050213,-22.766113,63.781738,21.453857,31.955078
35440,-3.519476,-3.131616,-3.711013,50.964355,8.605957,-7.232666,31.970703
35480,-5.463568,-6.124368,-2.719813,74.737549,-14.312744,-13.458252,31.980469
35520,0.019154,-3.682282,-0.823605,80.200195,19.104004,-12.634277,31.974609
35560,11.166556,-0.234632,-1.551443,39.154053,-4.577637,25.939941,32.003906
35600,22.586899,-0.732626,-3.145981,115.936279,-67.565918,1.739502,31.996094
35640,23.602041,-2.595315,-2.293645,125.610352,-24.536133,-43.395996,32.013672
35680,19.144037,0.809240,-2.097321,179.870605,-29.144287,-84.930420,31.984375
35720,9.907207,3.078943,0.560243,127.502441,-13.000488,-78.887939,32.000000
35760,0.890643,3.366248,1.991976,41.107178,-9.979248,-37.994385,32.015625
35800,-3.557784,2.849100,0.028730,-47.393799,-9.094238,9.124756,32.003906
35840,-0.636858,1.297657,-1.422156,-67.657471,11.138916,32.653809,32.021484
35880,3.557784,0.866701,-1.594538,-79.071045,4.943848,43.579102,32.017578
35920,13.752295,2.930503,-2.217031,-128.814697,14.404297,29.998779,31.990234
35960,21.983561,4.721366,-2.715025,-176.696777,8.728027,10.437012,32.011719
36000,24.435223,2.485181,-0.531513,-169.464111,9.460449,43.579102,32.019531
36040,17.041927,2.073379,-1.240196,-147.552490,27.648926,45.745850,32.009766
36080,7.321469,1.541866,-2.284068,-45.989990,2.502441,-5.554199,32.005859
36120,-0.464475,-3.505111,-3.423708,76.416016,-50.933838,-6.072998,32.009766
36160,-4.879383,-6.311116,-2.667141,81.420898,-32.867432,-5.584717,32.021484
36200,-0.833182,-3.979163,-0.823605,45.837402,-2.655029,-4.821777,32.005859
36240,11.659762,-3.423708,-0.268151,19.805908,143.310547,39.581299,32.007812
36280,22.768858,-0.785298,-6.842628,137.329102,-89.172363,-7.751465,32.015625
36320,23.286005,-1.929727,-3.313575,167.144775,-1.373291,-61.462402,32.019531
36360,18.602947,1.106121,-2.260126,185.882568,-49.987793,-79.345703,32.011719
36400,9.892841,4.027047,1.034295,122.283936,7.324219,-73.303223,32.001953
36440,1.101333,3.907337,2.039860,29.266357,6.439209,-43.731689,32.021484
36480,-4.189853,2.954445,-0.497994,-54.229736,-14.465332,1.739502,32.013672
36520,-1.221043,1.225831,-1.125275,-80.139160,12.084961,34.820557,32.005859
36560,2.662352,0.991199,-0.555455,-73.120117,13.244629,29.205322,32.011719
36600,11.784261,4.079720,-2.466028,-149.047852,24.963379,30.700684,32.027344
36640,23.156719,4.156334,-3.615245,-182.312012,-38.879395,-0.244141,32.027344
36680,26.087221,2.303222,-0.258574,-161.376953,26.702881,46.295166,32.015625
36720,18.655621,2.331953,-0.842759,-141.052246,10.467529,62.957764,32.035156
36760,7.326257,1.134852,-2.494758,-58.319092,38.482666,37.139893,32.015625
36800,-0.622492,-1.776498,-2.796427,53.466797,-35.766602,16.937256,32.011719
36840,-5.262455,-5.118803,-2.489970,99.822998,-81.329346,-13.916016,32.035156
36880,-2.351106,-4.299986,-0.742203,66.711426,-8.148193,-9.887695,32.011719
36920,8.963891,-4.017470,-0.215478,21.209717,66.406250,30.029297,32.029297
36960,23.774424,-1.063026,-8.063671,129.394531,-72.998047,-17.791748,32.021484
37000,24.823084,-3.045424,-4.639963,138.122559,18.127441,-40.802002,32.011719
37040,19.321207,0.378284,-2.523489,186.401367,-3.143311,-83.068848,32.015625
37080,10.366894,3.725378,0.397437,136.688232,8.117676,-86.242676,32.007812
37120,0.651223,4.046201,2.221819,52.886963,12.695312,-49.041748,31.996094
37160,-4.884171,3.227384,0.517148,-46.051025,-13.366699,-2.471924,31.990234
37200,-1.187524,1.857901,-1.537078,-71.807861,-6.958008,22.247314,32.021484
37240,2.638410,0.536301,-1.532289,-70.800781,12.329102,28.808594,32.013672
37280,11.755530,2.734178,-2.226608,-101.928711,24.261475,24.505615,32.015625
37320,22.242134,4.036624,-2.920926,-145.141602,-35.858154,4.760742,32.017578
37360,25.704149,2.389413,-0.679953,-151.214600,-8.148193,55.114746,32.035156
37400,19.388245,2.935291,-0.349553,-143.249512,39.459229,57.403564,32.021484
37440,9.145850,1.958457,-2.240973,-64.300537,42.907715,22.979736,32.001953
37480,-0.311246,-2.106898,-3.007117,16.418457,23.864746,6.622314,32.009766
37560,-2.145205,-3.993528,-1.455675,70.800781,-3.112793,-13.183594,32.042969
37600,9.773131,-2.303222,-0.397437,31.066895,75.836182,23.498535,32.042969
37640,22.677879,-1.690306,-5.463568,143.737793,-91.156006,2.441406,32.076172
37680,24.028208,-2.753332,-2.791639,162.231445,10.345459,-35.034180,32.027344
37720,18.741812,2.135628,-2.791639,201.965332,-57.464600,-77.239990,32.039062
37760,10.050858,4.836287,0.397437,143.829346,0.091553,-76.782227,32.050781
37800,1.848324,3.155558,1.948880,46.661377,8.209229,-34.667969,32.044922
37840,-3.495534,3.050213,-0.186748,-41.076660,-20.202637,-2.471924,32.037109
37880,-1.493982,1.699883,-1.331176,-80.841064,6.988525,28.045654,32.037109
37920,1.877054,1.067814,-0.957681,-71.472168,4.760742,29.205322,32.056641
37960,10.778696,2.815581,-2.097321,-128.662109,46.295166,36.529541,32.052734
38000,22.122423,4.721366,-3.126827,-167.358398,-39.459229,-6.134033,32.048828
38040,26.743233,2.983175,-0.852336,-149.047852,5.798340,45.196533,32.052734
38080,20.360291,3.160346,-0.186748,-165.496826,36.560059,62.744141,32.050781
38120,8.293514,1.589750,-3.208230,-67.352295,16.235352,26.214600,32.064453
38160,-0.143652,-2.317587,-3.198653,51.055908,-15.167236,7.202148,32.044922
38200,-5.430049,-5.473145,-2.389413,94.604492,-52.490234,-17.364502,32.042969
38240,-2.777274,-3.773262,-0.454898,48.980713,-8.331299,-0.244141,32.054688
38280,7.412448,-2.853889,0.086191,49.438477,74.859619,11.474609,32.074219
38320,21.873426,-0.828394,-6.325481,117.553711,-56.854248,7.629395,32.048828
38360,24.123976,-1.699883,-3.356671,173.126221,-0.732422,-45.074463,32.054688
38400,20.925323,0.167594,-2.604892,169.250488,-39.947510,-52.398682,32.070312
38440,11.932701,3.940856,0.316035,149.078369,6.561279,-68.695068,32.066406
38480,2.834735,4.036624,2.159570,60.760498,18.981934,-47.393799,32.072266
38520,-4.304775,3.165135,0.507571,-26.519775,-20.812988,-10.528564,32.066406
38560,-1.977611,1.661576,-1.379060,-71.044922,9.643555,28.228760,32.062500
38600,2.308010,1.149217,-1.240196,-68.420410,2.655029,31.372070,32.060547
38640,11.051635,3.442862,-2.475605,-123.931885,22.735596,26.489258,32.058594
38680,21.648373,4.831499,-3.241749,-181.732178,-11.627197,1.586914,32.093750
38720,25.929205,1.685518,-1.010353,-126.434326,-13.610840,40.618896,32.058594
38760,20.738575,2.173935,-0.047884,-154.785156,19.775391,71.197510,32.064453
38800,8.676587,2.896984,-2.475605,-104.248047,32.531738,30.883789,32.072266
38840,0.770933,-0.234632,-2.925714,41.442871,5.249023,22.369385,32.068359
38880,-4.874595,-4.975151,-3.059790,110.504150,-71.502686,-4.180908,32.085938
38920,-3.442862,-6.057330,-0.952892,46.813965,-0.946045,5.828857,32.064453
38960,4.046201,-3.318364,-0.081403,45.135498,28.320312,10.711670,32.072266
39000,19.148825,0.497994,-4.841076,90.881348,-42.388916,-25.939941,32.066406
39040,24.674643,-2.442086,-3.466804,158.782959,-13.702393,-37.017822,32.083984
39080,22.136789,-0.201113,-3.299210,140.197754,-40.222168,-44.677734,32.080078
39120,14.417883,4.750096,-0.598550,148.712158,-11.230469,-89.813232,32.054688
39160,5.817910,2.944868,1.848324,75.836182,-3.051758,-56.091309,32.064453
39200,-2.839523,2.801216,1.345541,-13.275146,-17.028809,-15.502930,32.072266
39240,-3.074155,1.982399,-1.216254,-78.002930,15.472412,23.040771,32.058594
39280,1.053449,0.842759,-1.944092,-60.333252,6.622314,29.418945,32.076172
39320,9.074024,2.121263,-2.078167,-102.233887,19.287109,45.654297,32.083984
39360,18.746599,4.510676,-2.566584,-164.001465,-39.306641,-4.058838,32.085938
39400,25.435999,3.998317,-1.302446,-158.782959,5.096436,33.050537,32.082031
39440,21.648373,1.877054,-0.316035,-154.968262,15.045166,72.601318,32.058594
39480,10.098742,1.972822,-2.657564,-83.923340,19.592285,39.825439,32.093750
39520,1.857901,-0.445322,-2.920926,-1.464844,33.203125,10.772705,32.097656
39560,-4.472369,-4.376601,-3.280056,66.101074,-39.367676,-23.498535,32.078125
39600,-3.208230,-5.118803,-1.723825,66.589355,13.610840,-4.821777,32.091797
39640,3.529053,-2.858677,-0.220267,57.434082,29.815674,1.251221,32.095703
39680,16.376339,0.272939,-3.931279,65.216064,-47.485352,14.373779,32.078125
39720,24.186226,-3.026271,-3.016694,148.040771,-11.535645,-32.836914,32.097656
39760,22.874203,-0.890643,-2.341529,148.590088,-21.484375,-47.668457,32.115234
39800,15.547946,3.739743,-0.584185,170.196533,-9.826660,-86.151123,32.099609
39840,5.985504,3.572149,1.790863,89.294434,4.089355,-60.028076,32.070312
39880,-2.557007,3.696647,0.995988,-12.481689,-21.301270,-17.059326,32.076172
39920,-2.609680,2.159570,-0.986411,-77.392578,0.183105,24.932861,32.082031
39960,1.235408,1.058237,-1.086968,-77.697754,6.530762,33.081055,32.097656
40000,7.125144,1.996764,-1.690306,-127.258301,34.271240,47.576904,32.068359
40040,17.180792,4.295198,-2.552219,-154.876709,-40.466309,-2.899170,32.074219
40080,24.526203,3.380613,-2.145205,-140.808105,-15.777588,24.658203,32.101562
40120,23.027431,2.422932,0.612916,-150.695801,22.827148,61.126709,32.093750
40160,11.975797,2.853889,-1.709460,-134.185791,30.883789,42.327881,32.076172
40200,2.403779,0.541090,-2.911349,-3.662109,-6.713867,10.406494,32.080078
40240,-3.667917,-4.414908,-3.074155,124.145508,-80.535889,-9.490967,32.107422
40280,-3.548207,-5.880159,-1.896208,49.163818,-10.040283,3.112793,32.103516
40320,2.154782,-3.270479,-0.282516,62.591553,9.307861,-9.124756,32.080078
40360,16.725893,-2.049437,-2.351106,38.879395,89.263916,24.536133,32.076172
40400,24.214956,-0.483629,-5.128380,157.897949,-72.570801,-34.515381,32.070312
40440,23.242910,-1.470040,-3.136404,146.209717,14.099121,-36.071777,32.140625
40480,15.902287,3.462016,-1.647211,170.623779,-46.112061,-88.195801,32.132812
40520,7.053318,4.108450,2.135628,90.301514,24.475098,-71.929932,32.117188
40560,-2.284068,3.476381,1.470040,-2.258301,-12.786865,-31.768799,32.119141
40600,-3.423708,2.073379,-1.268927,-70.526123,1.068115,19.317627,32.125000
40640,1.168370,0.981623,-1.527501,-74.279785,17.303467,35.491943,32.107422
40680,8.408437,2.073379,-2.001553,-114.440918,25.238037,44.097900,32.121094
40720,18.061857,4.649539,-2.360683,-168.670654,-31.402588,-0.762939,32.115234
40760,24.617182,4.108450,-2.059013,-147.491455,-23.773193,24.261475,32.123047
40800,22.668303,2.499547,0.028730,-158.538818,19.348145,65.216064,32.123047
40840,11.324574,2.782062,-2.025495,-130.371094,13.732910,46.081543,32.119141
40880,2.269703,-0.062249,-2.992752,-4.028320,8.178711,17.333984,32.115234
40920,-4.156334,-4.975151,-3.414132,92.681885,-59.570312,-2.197266,32.126953
40960,-3.782839,-5.377377,-2.015918,58.715820,2.838135,0.244141,32.117188
41000,2.743755,-3.533842,0.162806,64.575195,40.191650,-3.448486,32.121094
41040,16.519991,-1.527501,-3.552995,62.927246,16.326904,19.989014,32.136719
41080,22.706610,-0.627281,-3.596091,165.527344,-40.985107,-41.503906,32.121094
41120,22.347479,-1.656788,-2.829947,141.632080,-36.804199,-42.480469,32.117188
41160,16.754623,3.677494,-0.823605,172.454834,-18.249512,-85.906982,32.136719
41200,7.723695,3.117251,1.517924,95.153809,12.908936,-59.234619,32.119141
41240,-1.225831,3.217807,1.374272,12.390137,-14.404297,-23.468018,32.132812
41280,-3.830723,2.604892,-1.115698,-60.821533,-0.976562,12.847900,32.121094
41320,0.474052,1.096544,-1.642422,-62.500000,10.284424,25.085449,32.142578
41360,8.561666,1.417367,-1.374272,-94.238281,32.714844,47.363281,32.123047
41400,17.836803,4.659117,-2.269703,-143.005371,-52.276611,12.237549,32.107422
41440,24.291571,5.640739,-1.201889,-180.725098,3.662109,33.111572,32.136719
41480,21.653160,2.097321,-0.861913,-157.958984,8.483887,63.781738,32.130859
41520,11.765107,1.158794,-2.810793,-88.775635,22.888184,34.698486,32.142578
41560,2.547431,-0.679953,-3.002329,-4.180908,25.177002,2.624512,32.142578
41600,-5.070919,-4.841076,-3.174711,86.486816,-49.896240,-25.451660,32.130859
41640,-3.576937,-5.315128,-1.407791,60.455322,4.089355,0.671387,32.134766
41680,4.137180,-3.122039,0.023942,48.217773,46.417236,15.075684,32.144531
41720,19.139248,-0.071826,-4.687847,83.892822,-46.081543,14.678955,32.123047
41760,24.368185,-2.408567,-3.452439,148.345947,7.965088,-39.550781,32.146484
41800,21.394587,-0.359130,-2.705448,157.165527,-21.972656,-60.241699,32.134766
41840,14.518439,3.639187,-0.311246,156.738281,9.185791,-82.824707,32.132812
41880,5.152322,3.591303,1.886631,86.334229,4.760742,-66.528320,32.150391
41920,-3.117251,3.213019,1.460463,-15.533447,-23.193359,-18.249512,32.150391
41960,-2.801216,2.116474,-0.837971,-72.204590,-5.004883,24.414062,32.126953
42000,1.307234,0.775721,-1.082179,-63.354492,15.899658,27.832031,32.144531
42040,7.010222,1.757344,-1.905785,-118.530273,32.775879,56.793213,32.150391
42080,17.391481,4.999093,-3.423708,-160.034180,-79.833984,0.366211,32.123047
42120,25.431210,3.869030,-2.236184,-149.322510,-7.843018,22.338867,32.142578
42160,23.357832,1.197101,0.277727,-166.351318,21.331787,76.416016,32.156250
42200,12.890382,2.130840,-1.838747,-113.952637,6.103516,54.077148,32.134766
42240,4.381389,0.660800,-2.504335,-35.186768,64.514160,18.829346,32.140625
42280,-3.136404,-3.907337,-3.418920,89.782715,-37.048340,-12.481689,32.130859
42320,-5.037400,-5.511452,-1.618480,82.366943,-8.666992,-19.409180,32.144531
42360,0.043096,-2.887407,-0.143652,84.960938,35.980225,-17.242432,32.136719
42400,12.358870,-1.498770,-1.647211,49.499512,12.451172,21.972656,32.156250
42440,23.908499,-0.047884,-4.146757,121.520996,-45.135498,-13.488770,32.169922
42480,23.688232,-1.441309,-3.088520,143.951416,-26.702881,-44.982910,32.181641
42520,18.602947,2.173935,-1.556231,164.215088,-14.495850,-77.087402,32.169922
42560,10.050858,3.543418,1.034295,120.544434,2.990723,-77.148438,32.146484
42600,1.221043,3.409343,2.020706,36.437988,-6.011963,-39.398193,32.181641
42640,-3.902549,2.834735,0.047884,-53.863525,-20.568848,9.124756,32.175781
42680,-0.766145,1.240196,-0.905008,-67.108154,15.686035,33.905029,32.177734
42720,3.840300,1.125275,-1.637634,-84.472656,14.312744,42.358398,32.156250
42760,14.001291,3.509900,-2.868254,-145.416260,-18.554688,24.261475,32.169922
42800,22.045809,4.472369,-3.035848,-134.246826,-30.761719,4.547119,32.189453
42840,24.473530,2.394202,-0.737414,-152.526855,9.399414,57.342529,32.175781
42880,16.563087,2.092532,-1.355118,-152.069092,-0.701904,65.795898,32.148438
42920,7.340622,2.355895,-2.082955,-85.052490,55.725098,17.578125,32.171875
42960,-0.359130,-1.982399,-3.222595,50.323486,-28.259277,7.415771,32.166016
43000,-4.975151,-5.975927,-2.231396,82.061768,-36.071777,-17.517090,32.175781
43040,-1.177947,-4.094085,-0.656011,61.035156,20.385742,-6.042480,32.140625
43080,8.556877,-2.954445,-1.230620,35.888672,34.881592,18.524170,32.175781
43120,20.058622,-0.229843,-5.128380,115.631104,-90.026855,-5.004883,32.150391
43160,23.870192,-2.446874,-3.500323,177.764893,5.950928,-49.865723,32.175781
43200,20.068199,1.144428,-3.155558,147.949219,-23.529053,-60.302734,32.167969
43240,12.603078,4.596867,0.129287,152.618408,12.542725,-90.759277,32.179688
43280,4.568137,3.026271,1.924938,59.417725,26.214600,-50.323486,32.181641
43320,-3.562572,3.011906,0.474052,-31.829834,-6.561279,-0.030518,32.169922
43360,-2.624045,1.733402,-1.168370,-72.967529,7.232666,33.874512,32.167969
43400,1.766921,1.446098,-1.268927,-80.322266,2.441406,43.487549,32.185547
43440,11.865664,3.150769,-2.293645,-147.277832,29.632568,43.762207,32.173828
43480,20.652384,4.213795,-2.719813,-146.484375,-24.108887,0.000000,32.175781
43520,25.239674,2.456451,-0.905008,-137.084961,-0.457764,48.583984,32.197266
43560,19.412188,2.102109,-0.531513,-163.818359,12.084961,77.331543,32.185547
43600,8.987833,2.523489,-1.623269,-99.456787,55.114746,29.968262,32.179688
43640,-0.004788,-1.292869,-2.997540,1.892090,3.234863,8.453369,32.183594
43680,-5.329493,-5.118803,-3.715801,113.830566,-103.881836,-32.379150,32.187500
43720,-3.160346,-4.721366,-1.034295,68.847656,-1.495361,-14.495850,32.195312
43760,7.144298,-3.112462,0.272939,11.230469,84.808350,5.523682,32.189453
43800,21.993137,-0.454898,-5.961562,126.373291,-84.564209,-9.277344,32.171875
43840,24.976313,-3.169923,-3.107674,165.313721,19.866943,-46.051025,32.173828
43880,20.532673,0.857124,-3.189077,172.332764,-28.778076,-66.192627,32.193359
43920,11.865664,4.357447,-0.086191,150.024414,-0.976562,-81.359863,32.205078
43960,2.868254,3.529053,1.987187,61.981201,9.643555,-46.936035,32.212891
44000,-4.237737,3.495534,0.339977,-35.034180,-11.779785,-6.713867,32.199219
44040,-2.126051,1.766921,-1.316811,-80.200195,8.575439,28.503418,32.183594
44080,2.173935,1.039083,-0.905008,-68.908691,0.274658,28.259277,32.193359
44120,11.161768,2.533065,-2.073379,-140.228271,47.210693,43.395996,32.185547
44160,20.570980,4.836287,-3.102885,-146.697998,-55.328369,-14.587402,32.179688
44200,25.412056,2.796427,-0.890643,-135.711670,-4.821777,37.841797,32.210938
44240,20.044256,2.552219,0.129287,-153.259277,30.120850,63.201904,32.195312
44280,8.221688,2.853889,-1.948880,-108.886719,24.719238,32.135010,32.191406
44320,0.665588,-0.536301,-2.638410,1.251221,1.098633,19.348145,32.203125
44360,-4.098873,-4.999093,-3.208230,107.818604,-70.007324,13.519287,32.193359
44400,-3.289633,-4.606444,-1.460463,40.740967,-16.204834,-10.040283,32.203125
44440,7.680599,-3.940856,-0.440533,-0.030518,72.723389,-3.387451,32.220703
44480,21.997925,0.124498,-6.119579,112.548828,-66.284180,-7.568359,32.210938
44520,24.291571,-3.040636,-3.471592,166.625977,15.838623,-44.158936,32.224609
44560,20.288465,-0.517148,-2.940080,159.942627,19.592285,-44.342041,32.226562
44600,11.458650,4.544195,-0.454898,171.417236,-15.655518,-85.601807,32.216797
44640,3.600879,3.189077,2.217031,70.678711,14.709473,-52.978516,32.199219
44680,-3.414132,3.126827,0.713472,-13.336182,2.258301,-5.889893,32.210938
44720,-2.044648,2.207454,-1.441309,-67.016602,-0.030518,27.984619,32.212891
44760,2.351106,1.532289,-1.680730,-84.564209,1.586914,37.994385,32.201172
44800,12.962208,3.418920,-2.379837,-121.734619,20.446777,20.935059,32.224609
44840,20.867863,3.907337,-2.868254,-141.418457,-1.495361,-12.298584,32.193359
44880,24.621971,1.628057,-0.502782,-128.753662,-17.028809,50.933838,32.203125
44920,18.406622,2.264915,0.062249,-153.228760,19.592285,72.753906,32.214844
44960,7.953538,3.141193,-1.546654,-93.353271,54.504395,21.087646,32.222656
45000,-0.172383,-0.943315,-2.906561,17.730713,-10.925293,4.974365,32.224609
45040,-5.013458,-5.525817,-3.217807,91.888428,-79.559326,-27.557373,32.208984
45080,-2.427721,-4.644751,-1.130063,66.406250,14.556885,-17.578125,32.212891
45120,7.249643,-3.241749,0.493206,7.537842,67.199707,21.240234,32.210938
45160,21.562180,0.751779,-5.458780,108.398438,-71.075439,-3.540039,32.212891
45200,23.994690,-2.149993,-2.523489,150.787354,14.190674,-34.210205,32.220703
45240,20.954054,1.149217,-2.178724,170.867920,-10.406494,-68.115234,32.230469
45280,12.698846,4.367024,-0.268151,155.731201,6.561279,-82.275391,32.210938
45320,4.620809,2.691083,1.910573,71.044922,15.808105,-44.219971,32.226562
45360,-3.615245,3.380613,0.895431,-22.277832,-19.805908,-8.605957,32.222656
45400,-2.552219,2.178724,-1.125275,-72.906494,3.479004,23.406982,32.218750
45440,2.408567,0.847547,-1.762132,-69.915771,1.434326,36.193848,32.222656
45480,12.191275,2.758120,-2.039860,-97.839355,1.098633,31.463623,32.228516
45520,20.264523,5.597643,-2.255338,-158.782959,-14.282227,5.859375,32.228516
45560,24.736893,4.041412,-0.114922,-162.841797,-17.791748,46.783447,32.224609
45600,19.139248,3.213019,0.531513,-155.090332,32.836914,65.582275,32.208984
45640,7.790732,2.255338,-2.844312,-75.195312,13.977051,21.331787,32.216797
45680,-0.416591,-1.944092,-3.371036,20.507812,13.580322,5.676270,32.212891
45720,-4.769250,-5.477933,-2.844312,71.716309,-32.684326,-16.510010,32.222656
45760,-1.781286,-3.888184,-1.110910,54.229736,20.599365,-3.021240,32.234375
45800,4.410120,-2.341529,-0.244209,49.438477,0.396729,6.927490,32.236328
45840,18.746599,0.201113,-3.739743,68.847656,-25.299072,27.679443,32.224609
45880,24.262840,-1.426944,-3.040636,146.881104,-17.730713,-31.829834,32.222656
45920,22.816742,-0.023942,-2.571373,141.967773,-36.041260,-44.891357,32.222656
45960,16.395493,3.538630,-0.675165,146.514893,8.300781,-73.944092,32.224609
46000,7.240066,3.509900,1.623269,91.918945,14.984131,-69.244385,32.234375
46040,-2.389413,3.643975,1.168370,-2.655029,-20.294189,-30.700684,32.210938
46080,-3.414132,1.944092,-0.507571,-68.756104,6.958008,19.439697,32.228516
46120,0.593762,0.675165,-0.967257,-70.526123,8.270264,34.576416,32.222656
46160,5.817910,2.025495,-2.078167,-114.135742,11.077881,50.354004,32.240234
46200,15.514427,4.242526,-2.044648,-147.277832,-37.017822,-7.476807,32.228516
46240,23.793577,4.328717,-2.159570,-135.864258,-27.984619,8.728027,32.214844
46280,24.473530,2.715025,0.732626,-152.862549,13.275146,58.532715,32.230469
46320,14.614207,3.112462,-0.885855,-152.191162,23.132324,52.551270,32.201172
46360,4.855441,1.134852,-2.308010,-38.024902,28.778076,19.042969,32.269531
46400,-2.379837,-3.256114,-3.390190,98.236084,-60.333252,0.946045,32.267578
46440,-4.716578,-5.588067,-2.130840,71.105957,-24.475098,-10.070801,32.251953
46480,0.287304,-3.883395,-0.450110,42.053223,-7.690430,1.770020,32.259766
46520,13.872005,-0.895431,-1.168370,5.584717,108.001709,27.893066,32.257812
46560,22.850262,-0.114922,-4.616021,136.108398,-88.775635,-13.092041,32.255859
46600,23.262064,-2.145205,-2.590526,146.484375,21.362305,-29.052734,32.248047
46640,17.104177,3.236961,-1.934515,162.322998,-25.268555,-71.563721,32.232422
46680,9.040505,4.237737,1.177947,114.379883,12.603760,-77.972412,32.257812
46720,1.225831,2.489970,2.284068,21.820068,19.927979,-26.489258,32.257812
46760,-3.720589,2.528277,-0.488417,-50.964355,-7.537842,9.613037,32.244141
46800,-0.799663,1.489193,-1.273715,-76.843262,16.326904,31.341553,32.283203
46840,4.577713,1.953669,-1.853112,-99.273682,9.948730,42.388916,32.273438
46880,16.323668,3.931279,-2.475605,-133.056641,-43.823242,5.859375,32.242188
46920,23.089682,3.897760,-1.824382,-150.054932,14.953613,6.286621,32.283203
46960,23.697809,2.049437,-0.201113,-140.930176,-20.019531,65.460205,32.253906
47000,15.164873,2.825158,-0.890643,-146.240234,40.008545,57.647705,32.263672
47040,5.233725,1.460463,-2.647987,-25.573730,21.392822,4.821777,32.261719
47080,-2.987964,-3.749320,-2.561796,63.659668,-30.883789,-25.512695,32.248047
47120,-4.515464,-5.353435,-2.082955,46.783447,-6.530762,-1.708984,32.259766
47160,2.279280,-3.150769,-0.196325,33.691406,48.645020,4.882812,32.234375
47200,15.428236,0.857124,-2.853889,48.095703,-17.547607,10.406494,32.263672
47240,22.448034,-1.915361,-2.418144,135.559082,-19.439697,-16.113281,32.259766
47280,21.006725,-1.359907,-2.236184,116.394043,-8.148193,-13.000488,32.277344
47320,15.672444,3.557784,-1.000776,157.470703,-5.065918,-73.394775,32.279297
47360,7.910442,3.260903,1.675941,105.316162,16.479492,-63.354492,32.281250
47400,-0.507571,2.767697,1.570596,19.317627,-8.056641,-15.655518,32.257812
47440,-4.132392,2.284068,-0.799663,-64.971924,-2.471924,27.770996,32.273438
47480,0.100556,1.824382,-0.770933,-76.477051,-9.979248,37.963867,32.261719
47520,7.790732,3.873818,-2.039860,-130.645752,-2.197266,48.767090,32.281250
47560,20.283676,5.161899,-3.270479,-164.978027,-24.230957,8.117676,32.261719
47600,24.645912,3.605668,-2.820370,-169.281006,-14.190674,35.095215,32.269531
47640,20.733788,3.102885,-0.316035,-169.433594,28.442383,58.074951,32.265625
47680,10.433931,2.001553,-2.944868,-113.159180,9.399414,35.827637,32.271484
47720,1.714248,-0.296881,-3.787627,31.921387,-5.279541,-9.429932,32.281250
47760,-4.395754,-4.668694,-2.193089,66.253662,-9.552002,-15.106201,32.269531
47800,-3.169923,-5.535394,-0.651223,0.244141,-16.448975,19.531250,32.267578
47840,6.660669,-3.227384,0.842759,1.037598,53.680420,25.665283,32.275391
47880,21.116859,1.024718,-5.238513,68.237305,-74.920654,9.155273,32.261719
47920,23.099258,-0.531513,-2.624045,105.804443,7.446289,-26.916504,32.269531
47960,19.982008,0.612916,-2.331953,108.917236,2.807617,-31.768799,32.271484
48000,12.100295,3.936068,-0.584185,95.764160,-21.331787,-69.763184,32.255859
48040,4.879383,2.772485,1.771709,38.665771,6.805420,-48.339844,32.283203
48080,-3.088520,2.442086,0.411803,-38.879395,-26.062012,-6.683350,32.283203
48120,-2.954445,1.527501,-0.900220,-102.691650,38.970947,39.794922,32.281250
48160,1.450886,2.102109,-1.714248,-100.250244,-18.676758,40.954590,32.277344
48200,11.702858,4.917690,-2.547431,-170.135498,-23.468018,29.327393,32.289062
48240,21.787235,4.955997,-2.825158,-194.763184,18.951416,-0.823975,32.273438
48280,25.661055,3.763685,-1.996764,-166.748047,-11.871338,44.250488,32.283203
48320,19.718645,4.247314,-0.905008,-189.971924,45.379639,50.323486,32.281250
48360,9.208099,2.183512,-3.385401,-111.999512,10.589600,30.334473,32.289062
48400,1.766921,-1.618480,-3.701436,41.015625,-29.754639,12.359619,32.320312
48440,-4.462792,-5.128380,-1.843535,59.722900,-24.597168,9.918213,32.310547
48480,-3.241749,-4.031836,-0.383072,-32.745361,-56.182861,4.394531,32.294922
48520,8.063671,-0.885855,-0.378284,-33.813477,105.743408,8.026123,32.314453
48560,20.743364,-0.689530,-5.248090,90.240479,-89.172363,0.976562,32.330078
48600,21.337126,-1.877054,-2.834735,98.785400,14.099121,-18.890381,32.291016
48640,18.938135,0.770933,-2.485181,104.064941,3.570557,-22.766113,32.316406
48680,12.066776,3.280056,-0.636858,109.191895,-9.948730,-69.458008,32.310547
48720,5.386954,3.011906,1.580173,37.109375,4.730225,-45.288086,32.306641
48760,-2.365471,3.088520,0.287304,-56.427002,2.288818,3.387451,32.306641
48800,-2.681506,2.336741,-1.446098,-105.224609,7.995605,39.337158,32.316406
48840,2.264915,2.906561,-2.221819,-112.518311,-15.289307,29.693604,32.326172
48880,13.163321,3.672705,-3.308787,-139.831543,-43.945312,11.230469,32.306641
48920,20.690691,3.624821,-2.997540,-189.971924,0.762939,6.439209,32.320312
48960,24.459164,3.912126,-1.292869,-188.171387,18.096924,66.955566,32.304688
49000,17.539921,4.414908,-2.068590,-195.007324,6.439209,61.553955,32.308594
49040,8.078036,1.939303,-3.629610,-99.670410,23.834229,27.465820,32.318359
49080,1.527501,-2.384625,-3.232172,-6.439209,32.409668,29.998779,32.300781
49120,-4.884171,-5.032612,-2.868254,39.428711,-42.907715,9.246826,32.312500
49160,-3.557784,-2.638410,-0.277727,27.648926,20.355225,-10.589600,32.304688
49200,6.081272,-1.699883,0.114922,-28.167725,57.617188,-0.396729,32.304688
49240,19.900604,0.469264,-5.473145,61.889648,-81.054688,-5.279541,32.322266
49280,22.778435,-2.317587,-1.991976,99.914551,7.141113,-12.451172,32.330078
49320,20.887016,-0.301669,-2.011129,104.614258,-5.279541,-23.071289,32.318359
49360,14.154520,3.394978,-0.799663,128.021240,11.932373,-73.699951,32.335938
49400,6.612785,2.159570,1.651999,68.634033,15.533447,-59.844971,32.304688
49440,-2.217031,2.638410,0.474052,-32.806396,0.091553,-14.617920,32.318359
49480,-3.792415,2.418144,-1.422156,-90.332031,11.413574,27.465820,32.312500
49520,0.646434,2.097321,-1.948880,-103.851318,-17.028809,30.609131,32.312500
49560,11.089942,3.256114,-3.021482,-125.793457,-16.326904,13.549805,32.320312
49600,22.366632,3.663129,-3.064578,-171.691895,-4.119873,-4.760742,32.322266
49640,26.053703,2.604892,-0.603339,-168.762207,-8.972168,50.689697,32.326172
49680,19.632454,3.126827,-0.134075,-169.860840,13.183594,61.920166,32.333984
49720,8.485051,1.455675,-3.485958,-71.990967,20.141602,30.303955,32.320312
49760,0.718261,-1.575385,-3.936068,54.656982,9.979248,16.113281,32.322266
49800,-4.927267,-4.989516,-2.652776,98.358154,-52.001953,-9.887695,32.312500
49840,-2.523489,-4.687847,-0.483629,31.127930,4.364014,-5.249023,32.349609
49880,8.604761,-0.785298,-0.675165,-30.426025,117.980957,-7.598877,32.343750
49920,22.428881,-0.052672,-5.181053,99.304199,-81.207275,-6.958008,32.322266
49960,22.582111,-2.284068,-2.207454,116.973877,14.190674,-31.646729,32.324219
50000,18.679562,0.512359,-2.212242,137.908936,-47.424316,-48.309326,32.339844
50040,11.161768,3.299210,-0.119710,125.030518,-12.237549,-75.744629,32.324219
50080,3.519476,2.667141,1.924938,47.454834,12.512207,-54.412842,32.318359
50120,-3.371036,2.676718,0.119710,-35.736084,1.708984,-11.474609,32.332031
50160,-2.020706,1.719037,-1.503559,-80.169678,16.693115,31.982422,32.316406
50200,2.710236,1.781286,-1.800440,-82.916260,-9.521484,39.703369,32.345703
50240,11.789049,3.706224,-2.164358,-133.972168,-20.446777,21.636963,32.347656
50280,21.394587,4.932055,-2.825158,-203.399658,-6.927490,1.953125,32.333984
50320,26.187778,3.102885,-1.556231,-169.769287,2.593994,46.386719,32.335938
50360,19.393034,2.762909,-1.398214,-155.059814,5.737305,53.588867,32.357422
50400,8.264784,1.417367,-3.337517,-89.050293,13.580322,15.502930,32.355469
50440,0.933739,-2.159570,-3.174711,43.060303,-0.518799,8.575439,32.359375
50480,-4.707001,-5.430049,-2.633622,74.859619,-38.970947,-18.554688,32.332031
50520,-2.097321,-4.261679,-0.861913,20.599365,2.624512,1.922607,32.345703
50560,7.144298,-2.753332,0.000000,11.840820,81.939697,18.646240,32.355469
50600,20.101717,0.737414,-5.564125,85.388184,-55.236816,-13.702393,32.345703
50640,23.937229,-2.949656,-3.533842,127.899170,12.908936,-30.914307,32.333984
50680,19.038692,0.699107,-2.418144,142.944336,-39.245605,-63.812256,32.355469
50720,10.979809,4.151546,0.588974,115.447998,-1.129150,-80.780029,32.345703
50760,3.179500,3.342306,2.173935,35.461426,-2.502441,-56.793213,32.359375
50800,-3.500323,2.513912,-0.019154,-50.842285,-5.828857,-3.173828,32.339844
50840,-2.140416,1.608904,-1.704672,-82.366943,9.246826,23.742676,32.367188
50880,2.633622,1.335965,-2.102109,-97.564697,11.535645,38.787842,32.373047
50920,14.317327,3.950433,-2.015918,-126.556396,-5.920410,-1.831055,32.353516
50960,23.740904,4.486734,-3.016694,-160.278320,-2.258301,-13.946533,32.373047
51000,25.905262,2.509123,-0.258574,-160.247803,-14.129639,52.520752,32.347656
51040,17.281347,2.422932,-0.828394,-155.426025,43.731689,57.098389,32.359375
51080,6.349423,1.896208,-3.083732,-46.936035,23.315430,10.742188,32.355469
51120,-2.341529,-2.686294,-2.767697,51.818848,-21.423340,12.908936,32.376953
51160,-5.793968,-5.525817,-2.149993,55.969238,-31.402588,-3.143311,32.351562
51200,-0.569820,-3.600879,-0.948104,61.828613,37.506104,-5.279541,32.363281
51240,10.290278,-2.288857,-0.991199,43.762207,29.998779,18.524170,32.359375
51280,21.605276,-0.775721,-4.639963,131.744385,-49.591064,-16.754150,32.365234
51320,23.870192,-2.456451,-2.442086,144.866943,-3.753662,-27.130127,32.353516
51360,19.536686,2.116474,-1.412579,180.725098,-21.850586,-74.157715,32.347656
51400,10.960655,3.691859,0.952892,136.749268,-0.518799,-72.906494,32.343750
51440,1.838747,3.126827,2.116474,49.316406,2.136230,-41.961670,32.373047
51480,-4.544195,2.849100,-0.474052,-39.794922,-13.183594,6.835938,32.361328
51520,-1.264138,1.082179,-1.522712,-56.152344,-2.258301,25.634766,32.373047
51560,4.740520,1.221043,-1.460463,-87.554932,26.641846,46.295166,32.367188
51600,15.500062,3.859453,-2.217031,-121.124268,-33.142090,13.854980,32.375000
51640,22.826319,4.625597,-2.403779,-175.781250,-21.240234,24.658203,32.369141
51680,23.884556,2.489970,-0.225055,-157.867432,8.209229,55.297852,32.392578
51720,15.648502,1.881842,-1.115698,-136.627197,33.294678,54.718018,32.369141
51760,5.171476,0.766145,-2.987964,-44.647217,45.043945,10.162354,32.384766
51800,-3.351882,-3.605668,-3.653552,77.331543,-47.485352,-12.298584,32.365234
51840,-4.726154,-5.899313,-2.365471,55.541992,-17.059326,-4.699707,32.359375
51880,1.043872,-3.687071,-0.536301,63.903809,16.204834,-9.246826,32.353516
51920,14.322115,-1.067814,-1.862689,35.858154,77.575684,27.587891,32.365234
51960,23.333889,-1.728614,-4.242526,153.167725,-70.404053,-23.681641,32.376953
52000,23.539791,-2.269703,-2.614468,152.404785,-17.242432,-46.722412,32.375000
52040,17.032351,2.715025,-1.412579,169.677734,-30.731201,-76.507568,32.394531
52080,7.977480,3.677494,1.584962,100.189209,13.275146,-68.756104,32.373047
52120,-1.484405,3.538630,1.699883,14.007568,-16.235352,-40.405273,32.378906
52160,-3.706224,2.461239,-0.938527,-67.749023,-0.518799,14.282227,32.375000
52200,0.512359,0.962469,-1.886631,-67.108154,2.197266,28.961182,32.384766
52240,7.709330,1.924938,-1.776498,-93.322754,32.867432,45.501709,32.384766
52280,16.941372,4.869806,-2.092532,-161.407471,-34.332275,5.401611,32.369141
52320,24.406492,4.932055,-2.279280,-158.691406,-23.193359,13.183594,32.404297
52360,22.735340,1.604115,-0.153229,-157.012939,17.028809,61.004639,32.396484
52400,11.583148,1.039083,-1.982399,-118.560791,16.113281,49.560547,32.386719
52440,2.609680,0.277727,-2.806004,-6.744385,2.014160,23.803711,32.402344
52480,-3.519476,-3.624821,-3.122039,108.337402,-86.303711,-12.023926,32.416016
52520,-3.801992,-5.679047,-1.661576,56.488037,9.002686,-9.155273,32.390625
52560,3.126827,-3.926491,-0.464475,31.616211,20.080566,-1.861572,32.425781
52600,19.656397,-0.201113,-5.228937,50.079346,6.835938,4.364014,32.429688
52640,24.645912,-1.838747,-4.089296,167.999268,-10.467529,-44.799805,32.388672
52680,21.605276,-0.407014,-3.184288,142.120361,-37.689209,-42.144775,32.384766
52720,13.857639,4.252102,-0.550666,159.698486,-19.042969,-87.249756,32.386719
52760,5.908890,3.093309,2.312799,66.314697,21.545410,-62.896729,32.390625
52800,-3.241749,3.246537,1.039083,-11.901855,-22.369385,-23.437500,32.388672
52840,-3.050213,2.102109,-1.197101,-73.150635,11.779785,24.597168,32.412109
52880,1.417367,0.651223,-1.656788,-67.779541,-3.570557,31.188965,32.408203
52920,7.575254,2.264915,-1.786075,-106.781006,22.247314,43.365479,32.408203
52960,17.673998,5.142745,-2.695871,-154.479980,-30.761719,-2.746582,32.390625
53000,25.263617,3.318364,-2.260126,-143.005371,-22.155762,37.170410,32.414062
53040,22.199038,2.375048,-0.474052,-140.502930,10.589600,61.126709,32.406250
53080,12.138602,2.772485,-1.321599,-116.882324,51.208496,35.156250,32.398438
53120,3.275268,0.181959,-2.389413,-14.617920,36.865234,15.625000,32.421875
53160,-4.041412,-4.242526,-3.356671,62.194824,-62.896729,2.349854,32.402344
53200,-4.003105,-4.596867,-2.456451,50.262451,-9.216309,-2.655029,32.416016
53240,2.997540,-3.117251,-0.311246,46.691895,29.266357,-5.920410,32.417969
53280,16.768990,-0.679953,-4.074931,55.450439,-32.531738,16.571045,32.414062
53320,24.162283,-1.977611,-3.126827,153.289795,-13.153076,-28.564453,32.392578
53360,22.960394,-1.259350,-2.729390,163.513184,-19.195557,-39.581299,32.402344
53400,14.829685,4.175488,-1.125275,183.990479,-31.127930,-93.322754,32.408203
53440,6.220136,2.853889,2.188300,83.312988,23.712158,-61.737061,32.417969
53480,-2.796427,2.911349,1.115698,5.889893,-17.059326,-24.780273,32.417969
53520,-3.744531,2.437297,-1.058237,-56.518555,-7.843018,14.434814,32.414062
53560,1.134852,0.785298,-1.134852,-59.600830,-1.129150,24.597168,32.416016
53600,7.805098,1.968034,-2.140416,-96.557617,17.486572,36.315918,32.417969
53640,17.736246,4.778827,-2.375048,-153.594971,-34.515381,9.857178,32.421875
53680,24.042574,4.496311,-2.518700,-137.084961,-32.104492,28.747559,32.421875
53720,22.701820,3.069367,0.335188,-144.866943,13.214111,61.859131,32.421875
53760,12.612655,2.987964,-1.532289,-124.603271,25.238037,44.372559,32.386719
53800,3.342306,-0.162806,-2.494758,-19.714355,46.661377,27.130127,32.417969
53840,-4.256891,-4.572925,-3.342306,86.364746,-60.699463,-7.476807,32.425781
53880,-4.084508,-4.185065,-2.231396,65.582275,-14.739990,-15.838623,32.421875
53920,3.931279,-3.284845,-0.962469,34.545898,3.845215,-1.403809,32.412109
53960,18.770542,-0.967257,-5.295974,71.441650,-7.659912,15.991211,32.412109
54000,24.344242,-2.145205,-3.667917,178.558350,-18.615723,-38.391113,32.408203
54040,22.428881,-0.751779,-3.294421,153.930664,-24.017334,-28.900146,32.433594
54080,13.555970,4.611232,-1.364695,170.227051,-28.442383,-83.160400,32.425781
54120,5.592855,2.877831,1.829170,82.397461,38.482666,-56.488037,32.416016
54160,-2.901772,3.045424,0.823605,7.537842,-6.195068,-26.550293,32.414062
54200,-3.557784,2.351106,-1.369483,-56.518555,7.232666,21.331787,32.396484
54240,1.273715,1.005565,-1.426944,-59.997559,-1.159668,32.989502,32.429688
54280,9.217676,1.824382,-1.810017,-93.048096,8.880615,39.520264,32.412109
54320,18.128895,5.501875,-1.838747,-183.868408,1.190186,1.525879,32.421875
54360,24.483107,4.654328,-2.188300,-128.906250,-21.057129,17.181396,32.431641
54400,21.945253,2.513912,0.081403,-147.033691,36.224365,55.480957,32.447266
54440,10.998962,2.312799,-1.857901,-101.867676,22.705078,34.973145,32.449219
54480,1.403002,-0.742203,-2.801216,20.416260,2.899170,20.660400,32.474609
54520,-4.754885,-4.754885,-3.280056,132.080078,-78.948975,-20.080566,32.455078
54560,-2.987964,-4.888960,-1.254562,53.039551,-19.378662,-1.983643,32.429688
54600,6.378153,-4.122815,0.129287,6.195068,55.023193,22.583008,32.427734
54640,20.853497,0.220267,-5.793968,108.917236,-17.547607,3.845215,32.447266
54680,24.066515,-2.006341,-3.596091,162.475586,5.462646,-39.794922,32.455078
54720,20.594923,0.656011,-2.686294,164.337158,-34.423828,-63.598633,32.427734
54760,12.047623,4.764462,-0.047884,166.687012,-9.368896,-86.761475,32.451172
54800,3.141193,3.950433,3.145981,56.304932,6.164551,-57.525635,32.441406
54840,-4.003105,3.165135,0.919373,-29.876709,-12.054443,-6.408691,32.439453
54880,-1.364695,1.604115,-1.489193,-62.408447,3.051758,21.301270,32.445312
54920,2.949656,0.866701,-1.474828,-69.854736,9.033203,29.907227,32.458984
54960,11.573571,3.500323,-2.207454,-102.416992,4.302979,23.590088,32.449219
55000,21.662737,5.066131,-3.007117,-168.395996,-27.648926,22.277832,32.453125
55040,24.396915,4.247314,-0.766145,-190.490723,-3.479004,58.258057,32.447266
55080,17.927782,2.159570,-1.187524,-146.942139,19.348145,63.415527,32.425781
55120,8.844181,1.201889,-2.542642,-60.760498,56.182861,18.920898,32.433594
55160,0.076614,-2.106898,-2.944868,1.556396,26.306152,8.666992,32.443359
55200,-5.932832,-4.836287,-3.208230,62.622070,-43.334961,-11.108398,32.445312
55240,-2.274492,-3.696647,-1.187524,60.180664,22.216797,-10.009766,32.451172
55280,8.288726,-2.882619,0.359130,37.109375,44.250488,28.625488,32.457031
55320,22.069752,0.067038,-4.529830,114.593506,-71.105957,-3.448486,32.466797
55360,24.698586,-2.806004,-2.485181,143.005371,-1.037598,-26.885986,32.449219
55400,20.092140,2.063802,-1.800440,186.218262,-30.670166,-80.078125,32.462891
55440,11.343728,4.539406,0.579397,134.948730,-7.019043,-82.031250,32.455078
55480,3.045424,2.734178,2.523489,49.468994,-0.732422,-45.074463,32.443359
55520,-3.921702,3.136404,-0.181959,-30.151367,-25.756836,-0.640869,32.451172
55560,-1.503559,1.695095,-1.623269,-61.523438,15.808105,30.303955,32.431641
55600,3.912126,1.015141,-2.197877,-80.688477,11.444092,46.600342,32.460938
55640,12.334928,3.481169,-2.082955,-116.271973,-12.847900,27.893066,32.464844
55680,20.594923,5.674258,-1.833959,-176.727295,0.213623,23.010254,32.462891
55720,24.588451,3.481169,-0.593762,-157.348633,-18.127441,57.617188,32.431641
55760,17.750612,3.189077,-0.665588,-148.681641,42.999268,50.872803,32.451172
55800,7.460332,1.465251,-2.944868,-61.553955,38.421631,13.793945,32.474609
55840,-1.350330,-3.514688,-3.696647,36.407471,-15.167236,2.227783,32.439453
55880,-5.080496,-5.928043,-2.896984,66.375732,-35.858154,-8.422852,32.443359
55920,-0.612916,-3.184288,-0.670376,79.772949,42.907715,-17.395020,32.435547
55960,8.762778,-3.275268,0.143652,51.757812,34.881592,29.144287,32.455078
56000,21.691467,0.742203,-5.157111,111.968994,-81.909180,8.270264,32.447266
56040,23.616405,-0.737414,-2.758120,140.655518,-5.645752,-32.592773,32.476562
56080,19.747375,1.848324,-1.939303,167.755127,-51.452637,-70.129395,32.453125
56120,12.004527,3.811569,1.058237,131.835938,2.502441,-76.843262,32.437500
56160,2.475605,3.155558,2.193089,42.755127,14.343262,-52.947998,32.460938
56200,-4.180276,3.308787,-0.215478,-49.194336,-16.326904,-5.615234,32.484375
56240,-1.302446,1.637634,-1.364695,-88.043213,15.106201,28.991699,32.460938
56280,3.385401,1.268927,-1.814805,-93.597412,19.470215,41.290283,32.474609
56320,13.038822,3.045424,-1.752556,-135.070801,23.864746,30.731201,32.490234
56360,21.911734,5.228937,-2.255338,-152.374268,-25.085449,-5.767822,32.470703
56400,25.153482,3.643975,0.014365,-155.944824,-1.312256,39.703369,32.470703
56440,17.937359,3.040636,-0.248997,-144.378662,35.278320,46.173096,32.490234
56480,7.383718,1.915361,-1.862689,-80.627441,43.548584,17.395020,32.476562
56520,-0.617704,-2.312799,-3.208230,51.422119,-30.578613,13.214111,32.464844
56560,-5.339070,-5.568913,-2.643199,87.402344,-43.762207,-1.770020,32.480469
56600,-2.044648,-3.643975,-1.154005,36.499023,-30.364990,-4.699707,32.474609
56640,8.259995,-3.284845,0.143652,19.470215,68.969727,12.542725,32.468750
56680,22.304382,0.579397,-5.142745,121.551514,-71.685791,-3.295898,32.476562
56720,25.579651,-1.359907,-2.705448,163.726807,8.056641,-34.393311,32.474609
56760,19.828779,1.623269,-2.130840,157.440186,-31.402588,-58.044434,32.486328
56800,10.821792,4.994305,0.895431,137.054443,-6.011963,-80.932617,32.494141
56840,2.738967,3.265691,2.437297,36.346436,-2.014160,-40.771484,32.476562
56880,-3.519476,2.997540,0.248997,-40.924072,-17.700195,2.777100,32.519531
56920,-1.991976,1.637634,-1.580173,-72.143555,16.357422,27.557373,32.494141
56960,2.547431,0.727837,-2.427721,-75.012207,12.573242,44.433594,32.470703
57000,13.144167,2.667141,-1.843535,-102.905273,8.026123,17.150879,32.480469
57040,23.027431,5.152322,-1.915361,-138.031006,-3.509521,-1.403809,32.505859
57080,25.282770,2.882619,-0.129287,-139.099121,-32.287598,58.502197,32.496094
57120,17.429789,2.580950,-0.196325,-145.690918,41.564941,57.098389,32.480469
57160,7.441179,1.719037,-2.078167,-48.034668,50.659180,16.052246,32.470703
57200,-1.139640,-2.389413,-3.078943,42.358398,-4.547119,12.695312,32.500000
57240,-6.167464,-5.425261,-2.834735,73.120117,-51.239014,-6.591797,32.478516
57280,-1.551443,-3.835511,-0.679953,65.124512,34.454346,-4.669189,32.490234
57320,7.943961,-2.365471,0.153229,41.473389,31.188965,19.470215,32.470703
57360,21.480778,-0.387861,-4.836287,132.568359,-79.223633,-11.077881,32.509766
57400,25.167849,-2.193089,-2.284068,146.728516,-1.464844,-33.264160,32.474609
57440,20.298042,2.552219,-1.623269,179.107666,-32.440186,-78.643799,32.490234
57480,11.405977,4.548983,0.742203,142.089844,-10.833740,-76.995850,32.500000
57520,2.327164,3.524265,2.331953,46.508789,-3.570557,-48.645020,32.500000
57560,-4.204218,2.691083,0.095768,-42.266846,-10.772705,0.244141,32.496094
57600,-1.355118,1.680730,-1.192312,-64.361572,-0.762939,22.521973,32.494141
57640,3.380613,1.063026,-0.957681,-78.857422,12.634277,37.750244,32.505859
57680,13.594277,3.490746,-2.226608,-112.915039,15.838623,33.233643,32.480469
57720,23.286005,5.434838,-3.136404,-163.116455,-41.412354,16.326904,32.476562
57760,24.449587,3.801992,-0.148441,-169.616699,18.096924,52.124023,32.484375
57800,16.112978,2.240973,-0.842759,-146.606445,43.243408,53.802490,32.486328
57840,5.928043,1.292869,-2.925714,-39.062500,21.575928,6.439209,32.494141
57880,-1.316811,-2.944868,-2.758120,60.394287,-14.648438,13.275146,32.498047
57920,-5.233725,-5.784391,-2.365471,68.206787,-29.205322,-1.525879,32.494141
57960,-0.986411,-3.476381,-1.096544,52.185059,-9.246826,-9.674072,32.484375
58000,12.483368,-2.576161,-0.292093,12.695312,119.781494,21.850586,32.494141
58040,23.865402,0.272939,-5.238513,138.092041,-81.481934,-11.260986,32.492188
58080,24.540567,-1.565808,-2.456451,143.280029,14.007568,-28.533936,32.500000
58120,18.167202,2.834735,-1.671153,170.166016,-28.839111,-70.678711,32.492188
58160,9.260772,4.060566,1.254562,122.009277,-0.396729,-70.190430,32.494141
58200,0.445322,3.256114,2.159570,37.384033,-6.042480,-43.518066,32.507812
58240,-4.060566,2.614468,-0.301669,-56.457520,0.183105,12.298584,32.496094
58280,-0.330400,1.393425,-1.417367,-80.596924,11.047363,35.797119,32.515625
58320,3.845088,1.556231,-1.551443,-92.956543,13.488770,49.987793,32.503906
58360,13.062764,4.299986,-1.723825,-135.498047,-1.403809,17.364502,32.511719
58400,22.821531,4.965574,-2.523489,-150.177002,-41.748047,2.655029,32.488281
58440,25.440786,2.647987,-0.244209,-155.609131,8.819580,51.452637,32.513672
58480,16.749836,2.312799,-1.019930,-154.602051,18.127441,53.039551,32.500000
58520,6.813898,1.206678,-1.905785,-45.349121,38.543701,14.587402,32.525391
58560,-0.933739,-2.992752,-2.901772,52.825928,-21.942139,20.233154,32.519531
58600,-5.789180,-5.248090,-2.911349,78.186035,-47.790527,-11.535645,32.505859
58640,-1.072602,-3.878607,-0.914585,57.342529,9.582520,-14.068604,32.523438
58680,13.067553,-1.446098,-0.890643,13.580322,104.949951,16.815186,32.505859
58720,23.319525,-0.818817,-4.654328,163.665771,-66.497803,-26.855469,32.525391
58760,23.740904,-2.169147,-2.533065,129.058838,6.011963,-23.559570,32.515625
58800,17.032351,3.691859,-1.326388,195.312500,-18.463135,-89.813232,32.501953
58840,8.135497,4.630386,1.742979,120.544434,6.347656,-76.873779,32.515625
58880,-0.129287,3.256114,1.972822,21.636963,-23.071289,-33.203125,32.527344
58920,-3.711013,2.336741,-0.483629,-51.330566,-13.854980,13.732910,32.527344
58960,-0.229843,1.115698,-1.450886,-63.964844,14.739990,28.137207,32.513672
59000,4.299986,1.206678,-1.805228,-88.714600,18.493652,50.476074,32.515625
59040,15.030798,4.505888,-2.274492,-120.025635,-32.226562,14.434814,32.515625
59080,23.774424,5.181053,-1.824382,-149.261475,-6.652832,18.920898,32.503906
59120,24.291571,3.011906,0.430956,-152.740479,-25.421143,66.101074,32.521484
59160,15.854403,2.940080,-0.311246,-134.155273,53.894043,52.337646,32.513672
59200,6.076484,1.331176,-2.475605,-47.332764,46.569824,18.829346,32.507812
59240,-2.193089,-3.184288,-3.179500,25.604248,11.444092,15.350342,32.525391
59280,-5.396531,-5.377377,-3.055001,63.415527,-32.653809,-10.528564,32.537109
59320,0.656011,-3.873818,-1.043872,66.314697,5.096436,-7.476807,32.519531
59360,14.882358,-0.900220,-2.331953,53.100586,4.150391,25.756836,32.511719
59400,23.257275,-1.733402,-2.657564,147.583008,-25.115967,-20.111084,32.539062
59440,22.203827,-1.599327,-2.006341,148.529053,-34.973145,-38.482666,32.517578
59480,16.338032,2.940080,-1.010353,184.661865,-19.012451,-76.324463,32.542969
59520,7.896077,4.266468,1.393425,117.950439,7.659912,-79.345703,32.523438
59560,-0.924162,3.342306,1.139640,20.843506,-24.383545,-39.154053,32.509766
59600,-3.773262,2.226608,-0.517148,-56.335449,9.948730,13.153076,32.500000
59640,0.464475,0.986411,-1.254562,-56.610107,6.744385,28.015137,32.509766
59680,6.981492,1.599327,-1.101333,-92.559814,24.047852,48.797607,32.541016
59720,16.472107,4.932055,-2.020706,-146.392822,-31.036377,9.216309,32.511719
59760,23.836672,4.874595,-1.867477,-142.181396,-7.659912,15.258789,32.511719
59800,22.974760,2.820370,0.651223,-158.752441,18.188477,51.727295,32.527344
59840,12.971785,2.365471,-1.039083,-136.993408,37.353516,42.907715,32.533203
59880,3.409343,0.215478,-2.839523,-21.118164,20.385742,9.277344,32.515625
59920,-3.371036,-4.400543,-3.519476,118.499756,-64.697266,-10.070801,32.521484
59960,-4.209007,-5.583278,-1.666364,63.323975,-24.871826,-6.317139,32.533203
60000,1.738190,-3.457227,-0.363919,61.737061,-9.307861,-4.516602,32.511719
60040,16.424223,-0.526724,-2.408567,49.530029,64.971924,28.594971,32.554688
60080,23.602041,-0.258574,-3.294421,160.644531,-56.365967,-35.003662,32.525391
60120,24.325089,-0.689530,-2.130840,136.779785,-11.566162,-38.513184,32.523438
60160,15.806520,3.572149,-0.967257,157.318115,-21.270752,-73.699951,32.535156
60200,7.153875,3.926491,2.183512,86.242676,8.758545,-63.629150,32.521484
60240,-0.967257,3.629610,1.417367,-1.770020,-16.052246,-30.334473,32.541016
60280,-3.007117,1.896208,-0.943315,-67.840576,15.197754,24.688721,32.542969
60320,0.593762,0.751779,-1.058237,-72.418213,8.544922,39.978027,32.554688
60360,6.976704,2.178724,-1.379060,-124.053955,42.968750,57.983398,32.531250
60400,17.439365,4.769250,-2.355895,-139.526367,-59.997559,3.112793,32.558594
60440,24.818295,4.094085,-1.752556,-159.545898,-1.861572,29.174805,32.542969
60480,22.309172,2.398990,0.172383,-169.281006,15.960693,57.495117,32.535156
60520,12.023681,1.642422,-1.608904,-121.520996,35.705566,36.346436,32.552734
60560,2.782062,-0.440533,-2.920926,5.554199,-0.122070,-1.464844,32.560547
60600,-4.558560,-4.625597,-3.026271,76.232910,-52.825928,-8.728027,32.556641
60640,-3.878607,-4.357447,-1.326388,42.144775,3.570557,-8.789062,32.556641
60680,3.706224,-3.313575,0.646434,40.435791,34.729004,-3.845215,32.566406
60720,18.497602,-0.885855,-4.256891,77.819824,-31.921387,15.594482,32.550781
60760,24.909275,-1.532289,-3.414132,156.097412,2.410889,-35.461426,32.546875
60800,22.108059,-0.067038,-2.566584,145.202637,-14.831543,-45.013428,32.554688
60840,13.895947,4.185065,-0.114922,168.334961,6.866455,-79.711914,32.552734
60880,5.185841,3.093309,2.020706,88.439941,39.154053,-45.257568,32.550781
60920,-3.265691,3.969586,1.043872,-13.397217,-3.906250,-10.406494,32.568359
60960,-2.734178,3.155558,-1.101333,-80.261230,-3.631592,24.169922,32.546875
61000,1.532289,0.732626,-0.828394,-76.782227,7.965088,29.785156,32.552734
61040,8.571242,2.121263,-1.752556,-127.899170,9.368896,49.743652,32.554688
61080,20.633230,5.324705,-1.872266,-130.096436,-31.005859,5.157471,32.537109
61120,25.177425,4.376601,-0.474052,-173.889160,-28.076172,35.034180,32.568359
61160,20.915747,2.140416,1.130063,-155.731201,63.293457,58.502197,32.539062
61200,10.012551,2.082955,-2.030283,-77.301025,30.120850,23.193359,32.572266
61240,0.588974,-1.551443,-3.260903,11.596680,9.521484,20.416260,32.566406
61280,-5.334281,-5.018247,-3.442862,63.415527,-46.173096,1.098633,32.556641
61320,-2.475605,-3.725378,-1.393425,61.462402,3.601074,-7.354736,32.541016
61360,6.555324,-3.174711,0.818817,36.193848,31.402588,27.038574,32.562500
61400,19.613300,1.096544,-4.261679,85.632324,-94.299316,-1.495361,32.566406
61440,25.091234,-1.556231,-1.666364,125.549316,5.157471,-22.796631,32.556641
61480,21.150377,1.268927,-1.201889,171.234131,-3.814697,-77.728271,32.541016
61520,12.109872,4.194642,0.469264,144.165039,20.141602,-80.444336,32.558594
61560,3.591303,2.786851,1.953669,70.892334,3.173828,-56.457520,32.578125
61600,-3.442862,2.327164,0.167594,-29.174805,-42.266846,-8.941650,32.558594
61640,-1.661576,1.115698,-0.756568,-61.279297,8.300781,28.228760,32.546875
61680,3.265691,1.158794,-1.881842,-76.782227,-2.288818,44.158936,32.566406
61720,11.161768,4.118027,-1.651999,-125.091553,-48.248291,30.883789,32.556641
61760,20.135237,6.392519,-0.703895,-192.810059,41.900635,32.043457,32.564453
61800,24.554934,4.242526,-0.670376,-169.158936,-28.991699,40.618896,32.550781
61840,18.665197,2.518700,0.186748,-166.839600,54.809570,54.687500,32.570312
61880,8.130709,1.561020,-2.470816,-69.580078,12.023926,8.789062,32.550781
61920,-0.679953,-2.973598,-3.869030,24.475098,-20.996094,7.415771,32.548828
61960,-5.334281,-5.406107,-3.299210,80.932617,-59.814453,-26.611328,32.556641
62000,-0.387861,-4.041412,-0.713472,52.368164,23.895264,-9.857178,32.574219
62040,11.803414,-2.475605,-0.071826,3.845215,80.627441,50.537109,32.558594
62080,20.542250,0.177171,-4.587290,137.176514,-79.895020,-17.944336,32.550781
62120,23.180660,-2.149993,-2.547431,116.912842,-21.789551,-28.198242,32.558594
62160,19.038692,2.341529,-1.077391,158.264160,-0.488281,-78.857422,32.558594
62200,11.434708,3.572149,0.622492,129.791260,-5.065918,-90.270996,32.580078
62240,2.197877,2.873042,1.771709,46.417236,11.566162,-63.385010,32.589844
62280,-4.347870,2.810793,-0.071826,-51.635742,3.570557,0.396729,32.597656
62320,-0.962469,1.278504,-1.187524,-67.352295,6.469727,28.656006,32.578125
62360,4.410120,0.905008,-1.110910,-88.470459,8.361816,52.001953,32.611328
62400,13.163321,3.069367,-1.575385,-131.103516,4.699707,31.677246,32.578125
62440,21.255722,5.971139,-1.948880,-155.700684,-36.773682,3.723145,32.585938
62480,24.301147,3.624821,0.277727,-169.738770,-13.763428,39.978027,32.597656
62520,17.276560,1.417367,-0.555455,-138.000488,18.615723,44.158936,32.587891
62560,7.455544,0.919373,-2.159570,-75.622559,48.492432,9.704590,32.589844
62600,-0.545878,-2.346318,-3.552995,67.565918,-47.576904,7.049561,32.591797
62640,-5.276821,-5.817910,-2.829947,101.104736,-47.882080,-24.597168,32.609375
62680,-1.197101,-4.841076,-1.163582,55.328369,-33.020020,-26.275635,32.601562
62720,11.496957,-2.231396,-1.340753,26.611328,138.305664,5.584717,32.580078
62760,21.806389,0.421380,-5.851429,185.119629,-103.179932,-35.308838,32.601562
62800,24.339455,-1.388637,-3.117251,161.132812,10.070801,-41.076660,32.597656
62840,19.383457,2.734178,-1.723825,153.839111,-15.838623,-52.642822,32.574219
62880,10.539276,5.018247,1.326388,125.488281,15.380859,-72.418213,32.593750
62920,0.713472,3.940856,2.681506,24.597168,11.627197,-47.821045,32.587891
62960,-4.572925,3.007117,-0.191536,-51.757812,2.685547,-2.593994,32.568359
63000,-0.780510,0.359130,-1.589750,-58.410645,3.204346,25.512695,32.601562
63040,4.036624,0.751779,-1.379060,-85.845947,7.507324,37.933350,32.585938
63080,13.484144,4.544195,-2.212242,-90.728760,-3.845215,12.756348,32.607422
63120,22.682667,5.061342,-2.140416,-130.279541,-35.003662,11.230469,32.599609
63160,24.502260,2.853889,0.335188,-144.470215,25.329590,52.093506,32.599609
63200,16.558298,2.197877,-0.770933,-117.889404,4.730225,58.593750,32.615234
63240,6.526594,2.044648,-1.910573,-52.368164,32.287598,21.575928,32.599609
63280,-0.857124,-1.479617,-2.815581,55.816650,-38.818359,19.653320,32.593750
63320,-5.046977,-5.396531,-2.523489,97.167969,-49.285889,-11.322021,32.601562
63360,-1.221043,-4.587290,-0.895431,68.511963,12.542725,-2.868652,32.603516
63400,11.592725,-2.336741,-0.062249,8.575439,142.272949,32.318115,32.582031
63440,22.831108,0.158017,-5.228937,165.679932,-81.359863,-22.613525,32.601562
63480,23.999477,-2.217031,-2.662352,130.645752,-1.617432,-14.526367,32.562500
63520,18.775330,3.203442,-1.225831,178.833008,-7.537842,-77.056885,32.595703
63560,10.199299,3.648763,0.737414,128.906250,-7.812500,-72.967529,32.599609
63600,1.326388,2.801216,2.197877,44.433594,9.948730,-42.602539,32.595703
63640,-4.639963,3.078943,0.100556,-38.177490,4.302979,2.807617,32.587891
63680,-0.411803,1.618480,-1.039083,-61.065674,14.190674,25.695801,32.576172
63720,3.864242,1.173159,-0.895431,-80.902100,18.768311,38.330078,32.578125
63760,12.650962,4.687847,-2.504335,-121.368408,-6.164551,22.521973,32.587891
63800,22.773647,4.165911,-2.896984,-144.683838,-34.759521,10.650635,32.587891
63840,23.918076,2.485181,0.119710,-156.616211,-8.209229,58.410645,32.587891
63880,16.893488,2.925714,0.517148,-169.464111,49.011230,59.265137,32.605469
63920,7.393295,2.279280,-2.346318,-72.662354,51.513672,11.810303,32.591797
63960,-0.124498,-2.571373,-3.452439,32.379150,2.319336,12.237549,32.587891
64000,-4.707001,-5.956774,-2.949656,82.183838,-42.358398,-10.925293,32.587891
64040,-1.168370,-3.902549,-1.063026,55.725098,-22.705078,-10.467529,32.597656
64080,11.999739,-1.958457,-0.723049,35.522461,74.096680,29.937744,32.585938
64120,23.448811,-1.139640,-4.022259,157.196045,-67.169189,-8.270264,32.597656
64160,24.056938,-1.833959,-2.331953,146.301270,1.617432,-31.005859,32.611328
64200,17.745823,2.782062,-1.776498,178.405762,-46.813965,-69.732666,32.621094
