MS,Accel X (m/s²),Accel Y (m/s²),Accel Z (m/s²),Gyro X (°/s),Gyro Y (°/s),Gyro Z (°/s),Temp (°C)
2520,16.548721,3.921702,1.714248,124.542236,15.380859,-43.518066,41.093750
2560,8.212111,2.724602,1.594538,109.100342,-30.761719,-34.240723,41.117188
2600,1.450886,1.762132,2.059013,5.432129,73.974609,-3.051758,41.095703
2640,-3.026271,1.359907,-0.751779,1.770020,-83.160400,30.944824,41.093750
2680,-2.351106,-0.090980,-0.986411,-83.923340,37.445068,61.950684,41.095703
2720,4.357447,-0.244209,-1.283292,-143.951416,196.868896,-154.388428,41.107422
2760,21.744141,6.478710,3.016694,-173.980713,-112.243652,16.021729,41.093750
2800,25.234886,5.458780,3.390190,-141.998291,74.432373,11.322021,41.099609
2840,19.943701,3.002329,1.431733,-57.464600,-34.301758,6.683350,41.093750
2880,11.674128,2.068590,1.201889,-81.512451,-15.167236,4.089355,41.107422
2920,3.011906,0.339977,-0.785298,-67.413330,66.375732,48.492432,41.083984
2960,-1.292869,-2.973598,-3.749320,32.806396,-76.202393,189.178467,41.093750
3000,-2.240973,-3.634398,-4.156334,111.419678,-65.765381,250.823975,41.099609
3040,-1.647211,-3.576937,-1.747767,59.661865,135.925293,-64.575195,41.109375
3080,6.033388,-1.872266,0.158017,-101.379395,-200.805664,-466.857910,41.103516
3120,32.302570,0.608127,-0.411803,262.390137,8.087158,6.530762,41.095703
3160,25.373749,3.155558,2.193089,80.139160,16.937256,-16.448975,41.105469
3200,15.342045,3.591303,0.402226,146.942139,-51.940918,-31.799316,41.103516
3240,8.772355,2.796427,3.347094,54.107666,23.315430,-24.993896,41.123047
3280,1.719037,1.288081,1.929727,-33.538818,71.563721,32.379150,41.109375
3320,-3.035848,1.316811,-1.522712,3.875732,-82.214355,73.028564,41.119141
3360,-2.317587,0.852336,-1.450886,-91.827393,42.175293,39.855957,41.134766
3400,4.544195,0.627281,-1.345541,-190.917969,173.156738,-189.422607,41.119141
3440,23.185450,5.837064,3.122039,-125.274658,-69.793701,0.793457,41.123047
3480,24.291571,4.869806,3.624821,-116.302490,55.725098,9.643555,41.126953
3520,17.721882,1.814805,1.594538,-61.767578,-49.530029,17.700195,41.126953
3560,10.036493,1.604115,1.015141,-38.970947,40.069580,8.972168,41.119141
3600,3.117251,0.124498,-1.968034,0.030518,-23.712158,34.790039,41.117188
3640,-0.746991,-2.485181,-3.361459,68.969727,-59.448242,138.427734,41.103516
3680,-1.048660,-3.241749,-2.015918,65.765381,-13.885498,232.818604,41.103516
3720,0.454898,-2.815581,-1.134852,-38.177490,164.184570,-29.479980,41.115234
3760,13.168109,-4.094085,-0.574608,-22.888184,-65.948486,-354.248047,41.103516
3800,28.170177,-0.732626,-0.100556,165.405273,-59.356689,-1.708984,41.138672
3840,21.423317,2.954445,1.580173,110.626221,22.674561,-29.785156,41.115234
3880,13.321339,4.860229,0.344765,214.385986,-142.913818,-70.251465,41.109375
3920,6.938396,2.221819,5.406107,5.096436,144.836426,-11.505127,41.117188
3960,-1.264138,0.660800,-0.957681,-3.448486,-26.580811,23.864746,41.119141
4000,-3.883395,0.493206,-1.829170,-20.446777,-47.271729,1.892090,41.121094
4040,0.335188,-0.378284,-0.378284,-64.208984,76.080322,-4.272461,41.136719
4080,11.449073,2.044648,-1.417367,-51.971436,-73.150635,-45.532227,41.132812
4120,22.567745,7.493851,0.881066,-85.266113,-8.666992,6.500244,41.097656
4160,22.859838,5.908890,1.426944,-139.587402,3.540039,10.955811,41.119141
4200,18.722658,2.111686,1.426944,-94.207764,2.319336,32.623291,41.119141
4240,9.868899,1.604115,-0.919373,-88.989258,21.423340,30.578613,41.109375
4280,2.154782,0.957681,-2.461239,2.593994,43.365479,23.681641,41.138672
4320,-1.599327,-2.236184,-4.141969,157.958984,-74.096680,106.933594,41.123047
4360,-1.924938,-5.176264,-2.001553,125.946045,-12.451172,169.891357,41.119141
4400,0.339977,-5.056554,1.086968,-44.799805,-13.671875,-37.475586,41.117188
4440,16.788143,-3.667917,-3.375824,95.916748,-101.928711,-316.253662,41.123047
4480,26.680984,2.159570,-1.584962,138.641357,-18.646240,-29.876709,41.150391
4520,21.581335,2.082955,-1.704672,86.486816,-6.408691,-18.768311,41.134766
4560,14.350845,3.179500,-0.876278,177.001953,8.026123,-70.434570,41.130859
4600,5.817910,3.442862,1.790863,64.270020,40.802002,-53.588867,41.126953
4640,-3.380613,3.126827,-0.550666,-22.735596,15.014648,-30.975342,41.130859
4680,-3.629610,1.474828,-1.699883,-78.155518,24.993896,16.479492,41.138672
4720,3.222595,2.437297,-1.048660,-106.536865,28.228760,33.752441,41.134766
4760,12.899959,5.061342,-1.235408,-106.353760,-10.101318,10.528564,41.123047
4800,21.418528,4.438850,-1.244985,-134.216309,-28.564453,-2.075195,41.148438
4840,22.500708,2.106898,0.277727,-134.094238,-0.061035,29.296875,41.123047
4880,17.492037,1.335965,1.417367,-140.319824,41.107178,75.164795,41.150391
4920,7.479486,3.232172,-0.995988,-31.860352,28.961182,23.254395,41.128906
4960,1.058237,1.355118,-1.106121,7.354736,92.620850,49.163818,41.132812
5000,-1.120486,-3.423708,-2.657564,136.260986,-3.143311,182.708740,41.138672
5040,-2.566584,-5.961562,-5.085284,225.341797,-62.316895,93.597412,41.146484
5080,1.838747,-4.156334,1.312023,-180.938721,-102.874756,-99.822998,41.136719
5120,21.504719,-0.320823,-2.825158,136.016846,-95.733643,-188.049316,41.138672
5160,27.451916,-1.450886,0.378284,114.105225,41.351318,-13.061523,41.128906
5200,20.001162,2.456451,-1.695095,139.831543,-52.368164,-71.502686,41.146484
5240,11.415554,3.888184,0.622492,123.809814,0.061035,-76.873779,41.138672
5280,3.557784,3.160346,1.149217,35.919189,21.179199,-53.833008,41.132812
5320,-3.409343,2.030283,-0.909797,-49.652100,-6.469727,-6.683350,41.123047
5360,-2.178724,0.981623,-0.727837,-76.507568,15.136719,19.256592,41.148438
5400,2.485181,1.197101,-1.268927,-82.824707,15.747070,28.961182,41.138672
5440,11.635820,3.213019,-1.929727,-93.475342,5.187988,29.815674,41.134766
5480,21.370644,3.031059,-2.236184,-95.520020,-50.506592,7.019043,41.128906
5520,22.697033,2.719813,0.148441,-111.694336,-1.129150,21.301270,41.156250
5560,19.134460,1.776498,1.599327,-106.384277,48.004150,46.478271,41.136719
5600,11.008539,2.571373,-0.028730,-74.249268,40.954590,29.296875,41.150391
5640,2.849100,1.680730,-1.589750,-38.330078,61.309814,38.238525,41.128906
5680,-2.221819,-2.011129,-2.202666,34.118652,28.594971,94.512939,41.140625
5720,-2.671929,-3.576937,-3.165135,127.197266,-66.406250,105.651855,41.123047
5760,-0.469264,-3.327940,-2.322376,30.212402,-123.321533,-87.554932,41.109375
5800,15.409082,-3.514688,-1.120486,26.489258,28.381348,-135.620117,41.138672
5840,27.365725,1.019930,-2.001553,159.515381,-47.119141,-39.031982,41.125000
5880,23.515848,1.426944,-1.877054,102.172852,4.760742,-31.616211,41.140625
5920,15.643714,2.671929,-2.226608,155.059814,-18.768311,-57.250977,41.128906
5960,7.513005,3.572149,1.618480,78.094482,59.173584,-63.842773,41.144531
6000,-1.757344,3.500323,-0.143652,-7.873535,-0.946045,-41.717529,41.156250
6040,-4.003105,2.250550,-1.182736,-67.016602,12.298584,10.467529,41.146484
6080,0.445322,1.685518,-1.498770,-83.251953,11.688232,27.770996,41.128906
6120,7.958326,2.193089,-2.240973,-92.712402,-15.991211,23.437500,41.146484
6160,18.310854,3.936068,-2.298434,-51.177979,-45.410156,-19.897461,41.132812
6200,23.171083,4.218584,-0.497994,-92.987061,-28.808594,15.136719,41.136719
6240,20.958841,3.567361,1.211466,-123.596191,30.364990,57.891846,41.125000
6280,13.335704,3.720589,0.277727,-146.362305,93.200684,65.795898,41.144531
6320,4.659117,3.318364,-1.991976,-71.929932,67.932129,28.381348,41.123047
6360,-0.502782,-1.417367,-3.059790,74.523926,-1.831055,103.668213,41.119141
6400,-2.355895,-5.142745,-4.127604,238.952637,-99.151611,165.191650,41.136719
6440,-2.686294,-4.759673,-1.307234,66.589355,-27.923584,13.458252,41.148438
6480,6.507440,-2.375048,0.952892,-105.377197,7.781982,-246.368408,41.144531
6520,27.638664,2.964022,-4.127604,175.567627,-83.343506,-68.267822,41.138672
6560,26.570850,1.144428,-0.756568,73.242188,75.531006,0.274658,41.128906
6600,16.917429,4.252102,-2.183512,166.137695,-30.792236,-69.000244,41.132812
6640,8.446744,4.845864,1.082179,97.198486,34.759521,-66.589355,41.144531
6680,0.751779,3.141193,0.790087,-1.464844,21.209717,-40.802002,41.113281
6720,-4.343082,1.063026,-1.067814,-49.102783,-2.593994,9.094238,41.142578
6760,-1.388637,1.067814,-0.311246,-70.098877,8.666992,28.137207,41.128906
6800,3.524265,2.877831,-0.895431,-104.034424,2.624512,36.041260,41.126953
6840,14.829685,4.764462,-2.652776,-73.791504,-55.328369,12.268066,41.142578
6880,23.716963,4.616021,-1.699883,-124.603271,-21.820068,10.559082,41.142578
6920,23.123199,3.447650,0.622492,-141.021729,-5.279541,48.980713,41.128906
6960,16.587029,3.150769,0.799663,-146.209717,17.181396,63.110352,41.142578
7000,7.704541,3.409343,-0.770933,-89.508057,65.185547,21.423340,41.146484
7040,0.387861,-0.474052,-2.930503,-21.514893,45.349121,26.519775,41.175781
7080,-3.830723,-5.051765,-4.505888,122.100830,-35.614014,88.439941,41.152344
7120,-3.873818,-4.165911,-1.302446,120.147705,-51.696777,31.372070,41.130859
7160,3.275268,-3.050213,1.345541,-25.085449,-59.204102,-89.538574,41.150391
7200,20.451271,0.837971,-5.793968,121.673584,-115.203857,-31.097412,41.150391
7240,26.451139,0.330400,-1.359907,103.027344,18.524170,-15.991211,41.138672
7280,21.696257,2.264915,-2.173935,138.763428,-52.703857,-63.476562,41.162109
7320,13.177686,3.849876,-0.857124,141.967773,-11.047363,-76.263428,41.160156
7360,5.918467,2.580950,1.383849,56.854248,61.859131,-56.457520,41.138672
7400,-1.958457,2.437297,-0.603339,-11.169434,-6.713867,-31.494141,41.138672
7440,-3.442862,1.307234,-1.134852,-80.688477,10.772705,20.904541,41.167969
7480,1.417367,1.977611,-1.795651,-80.535889,-7.659912,27.435303,41.132812
7520,11.449073,2.676718,-1.877054,-85.113525,-28.137207,13.519287,41.126953
7560,21.121647,5.152322,-3.385401,-91.979980,-34.118652,2.593994,41.138672
7600,22.989124,4.807557,-1.651999,-131.896973,-12.664795,27.923584,41.130859
7640,19.665974,2.825158,0.751779,-148.071289,58.563232,66.711426,41.162109
7680,10.304645,2.877831,-1.517924,-134.857178,65.551758,55.603027,41.136719
7720,2.341529,1.130063,-2.585738,-19.470215,86.456299,24.047852,41.138672
7760,-2.240973,-3.854665,-4.438850,182.312012,-56.030273,118.408203,41.140625
7800,-3.658340,-5.252879,-2.772485,158.569336,-16.815186,109.466553,41.130859
7840,-1.225831,-2.920926,1.058237,-72.570801,-84.625244,-79.284668,41.140625
7880,13.359646,-1.192312,-2.576161,51.696777,-15.319824,-184.051514,41.125000
7920,27.480648,1.101333,-3.260903,142.761230,-32.775879,-35.369873,41.142578
7960,24.540567,1.651999,-2.159570,104.766846,52.124023,-20.629883,41.138672
8000,15.682021,4.180276,-1.929727,168.914795,-43.518066,-74.218750,41.156250
8040,7.594408,3.869030,1.575385,84.899902,53.466797,-58.685303,41.140625
8080,-0.670376,4.094085,0.861913,-5.432129,15.075684,-47.943115,41.150391
8120,-3.672705,2.451663,-1.010353,-76.965332,9.735107,1.739502,41.134766
8160,-0.354342,1.489193,-1.359907,-110.443115,17.517090,29.937744,41.154297
8200,6.488286,2.978387,-2.461239,-96.679688,-23.590088,27.343750,41.148438
8240,17.731459,4.745308,-2.116474,-75.012207,-36.254883,-12.023926,41.136719
8280,22.539015,5.209783,-1.350330,-110.626221,-68.634033,8.605957,41.150391
8320,22.663513,3.797204,1.254562,-141.998291,32.562256,66.070557,41.138672
8360,14.595054,4.596867,0.392649,-191.284180,85.449219,69.244385,41.140625
8400,4.707001,3.222595,-2.762909,-103.088379,29.754639,30.670166,41.138672
8440,-0.814029,-2.633622,-3.418920,66.741943,6.683350,82.092285,41.132812
8480,-3.069367,-4.797980,-4.299986,187.744141,-45.074463,126.739502,41.158203
8520,-3.323152,-3.107674,0.239420,21.697998,-67.779541,-4.882812,41.132812
8560,6.397307,-2.557007,0.928950,-40.405273,6.805420,-94.299316,41.169922
8600,22.788012,1.091756,-4.908113,163.360596,-96.496582,-82.061768,41.142578
8640,26.522966,-0.057461,-1.086968,80.139160,51.696777,9.460449,41.152344
8680,20.140024,3.979163,-1.738190,147.125244,-21.118164,-73.547363,41.160156
8720,12.224793,4.209007,0.354342,124.053955,36.865234,-74.157715,41.130859
8760,3.974375,3.318364,1.403002,34.851074,47.363281,-54.809570,41.160156
8800,-4.419696,2.087744,-0.071826,-49.377441,4.821777,-8.666992,41.136719
8840,-2.834735,1.154005,-1.058237,-66.314697,2.471924,20.751953,41.140625
8880,3.064578,1.968034,-1.565808,-88.409424,-21.118164,35.461426,41.134766
8920,13.441049,3.117251,-1.584962,-73.089600,-22.125244,12.939453,41.138672
8960,20.149601,5.798757,-2.207454,-95.428467,-77.209473,3.509521,41.121094
9000,22.912510,5.137957,0.349553,-135.711670,-21.209717,34.912109,41.154297
9040,18.363527,3.332729,1.173159,-180.480957,64.208984,65.307617,41.123047
9080,8.561666,2.887407,-1.877054,-116.088867,53.649902,31.829834,41.164062
9120,0.890643,-0.723049,-3.433285,20.843506,28.289795,21.575928,41.132812
9160,-2.901772,-5.209783,-4.036624,178.253174,-27.160645,93.963623,41.123047
9200,-3.677494,-4.199430,-1.077391,52.429199,-33.020020,27.404785,41.148438
9240,3.117251,-2.303222,0.737414,-46.173096,-53.649902,-123.687744,41.150391
9280,21.246145,0.062249,-4.936844,142.517090,-76.324463,-44.433594,41.152344
9320,25.440786,1.446098,-1.412579,128.631592,25.421143,-24.658203,41.136719
9360,21.452047,2.370260,-2.298434,132.171631,-17.089844,-31.921387,41.136719
9400,12.938266,4.726154,-1.063026,152.404785,-3.936768,-77.453613,41.126953
9440,5.918467,3.490746,1.953669,55.633545,74.188232,-55.450439,41.169922
9480,-2.619257,3.002329,0.129287,-13.610840,-1.251221,-30.761719,41.125000
9520,-3.509900,1.628057,-1.240196,-76.660156,-2.624512,23.651123,41.158203
9560,1.450886,1.790863,-1.335965,-93.414307,-5.432129,35.736084,41.138672
9600,10.845734,3.428497,-2.030283,-90.606689,-20.568848,12.145996,41.121094
9640,19.646820,4.917690,-3.035848,-92.254639,-34.271240,-0.976562,41.167969
9680,23.060951,5.655105,-1.130063,-139.953613,-30.364990,18.707275,41.144531
9720,20.628443,3.572149,1.058237,-168.090820,59.600830,66.650391,41.156250
9760,10.893618,2.834735,-0.684742,-147.979736,114.807129,50.140381,41.125000
9800,1.254562,0.861913,-2.882619,0.335693,38.970947,39.184570,41.113281
9840,-3.390190,-4.218584,-4.797980,242.340088,-77.911377,91.735840,41.132812
9880,-3.672705,-5.157111,-1.584962,61.492920,-22.430420,60.119629,41.132812
9920,2.489970,-4.299986,0.512359,-93.597412,-121.124268,-108.947754,41.126953
9960,21.121647,-0.014365,-4.319140,128.753662,-2.319336,-49.346924,41.126953
10000,25.239674,2.240973,-1.671153,118.652344,14.617920,-23.071289,41.130859
10040,21.634007,2.145205,-2.767697,119.964600,0.488281,-32.409668,41.146484
10080,12.617443,4.841076,-0.660800,149.414062,14.831543,-77.941895,41.142578
10120,5.822699,3.476381,1.910573,62.774658,71.838379,-57.617188,41.134766
10160,-2.892196,2.600103,0.023942,-20.935059,-7.232666,-21.759033,41.134766
10200,-3.533842,1.115698,-0.991199,-69.732666,8.911133,23.162842,41.156250
10240,1.316811,2.097321,-1.130063,-80.383301,-9.429932,27.496338,41.148438
10280,10.204087,4.481946,-1.637634,-98.602295,-47.332764,22.918701,41.138672
10320,19.761742,4.778827,-2.595315,-70.861816,-39.184570,2.227783,41.138672
10360,23.669079,5.051765,0.009577,-156.585693,-11.291504,35.430908,41.132812
10400,20.489578,3.011906,1.359907,-185.729980,59.844971,79.711914,41.162109
10440,10.151415,3.361459,-1.278504,-125.701904,42.968750,45.410156,41.138672
10480,1.929727,0.435745,-2.964022,-11.260986,33.477783,11.047363,41.148438
10520,-3.270479,-4.673482,-3.907337,123.718262,-7.232666,40.283203,41.144531
10560,-4.151546,-4.845864,-2.078167,86.029053,-48.828125,-4.425049,41.142578
10600,3.586514,-3.361459,0.766145,3.631592,-36.285400,-24.810791,41.140625
10640,18.837580,-0.038307,-4.381389,128.509521,-64.178467,-0.976562,41.132812
10680,23.697809,0.995988,-1.752556,131.378174,-7.659912,-30.639648,41.130859
10720,21.954830,1.417367,-2.054225,125.671387,-15.258789,-37.445068,41.164062
10760,14.465767,3.754108,-0.742203,166.748047,26.489258,-82.855225,41.162109
10800,6.488286,3.409343,1.604115,94.940186,70.343018,-67.565918,41.148438
10840,-2.298434,3.083732,0.277727,-2.136230,-3.509521,-38.085938,41.169922
10880,-3.758897,1.508347,-0.833182,-68.603516,6.408691,16.448975,41.148438
10920,0.521936,1.944092,-1.359907,-63.476562,-12.298584,23.010254,41.169922
10960,8.485051,3.332729,-1.752556,-88.043213,-53.771973,23.284912,41.146484
11000,17.717093,4.424485,-2.403779,-82.763672,-62.133789,5.981445,41.146484
11040,22.471977,6.124368,-0.234632,-135.253906,-27.404785,19.531250,41.158203
11080,21.480778,4.759673,1.058237,-173.767090,22.064209,63.201904,41.154297
11120,13.445837,4.204218,-0.445322,-180.969238,102.905273,55.541992,41.146484
11160,4.242526,1.991976,-3.093309,-58.898926,51.818848,17.761230,41.148438
11200,-1.738190,-3.687071,-4.587290,156.463623,-34.332275,46.813965,41.160156
11240,-3.509900,-5.865794,-2.987964,144.592285,-32.287598,23.315430,41.148438
11280,1.158794,-5.286397,-0.263362,-75.317383,-116.455078,-58.929443,41.158203
11320,19.809626,-0.359130,-3.308787,59.906006,33.691406,14.892578,41.150391
11360,23.415293,3.366248,-2.724602,123.107910,-60.119629,-30.822754,41.152344
11400,23.736116,0.866701,-2.633622,96.557617,31.463623,-16.693115,41.150391
11440,15.811308,3.476381,-1.412579,166.412354,12.023926,-81.024170,41.136719
11480,7.398083,3.452439,1.537078,92.468262,62.866211,-62.683105,41.136719
11520,-2.916138,3.342306,0.895431,-9.460449,-9.460449,-38.940430,41.152344
11560,-4.362236,1.647211,-1.144428,-79.345703,12.298584,14.678955,41.144531
11600,0.636858,1.369483,-1.316811,-78.857422,1.892090,26.184082,41.150391
11640,6.957550,2.303222,-1.489193,-103.912354,-0.732422,36.865234,41.150391
11680,16.874334,4.137180,-2.547431,-47.332764,-45.379639,0.335693,41.164062
11720,22.534225,5.032612,-0.703895,-142.272949,-63.232422,20.141602,41.166016
11760,23.209391,3.303998,1.345541,-155.517578,29.876709,70.556641,41.171875
11800,15.231912,3.275268,-0.110133,-170.135498,48.370361,71.533203,41.154297
11840,6.315904,2.566584,-2.212242,-66.711426,55.419922,23.468018,41.142578
11880,-0.828394,-2.489970,-3.648763,34.484863,32.562256,40.252686,41.132812
11920,-5.410896,-4.209007,-3.711013,133.087158,-38.085938,26.855469,41.152344
11960,-2.082955,-3.265691,-0.158017,46.600342,-98.999023,-43.853760,41.150391
12000,13.412318,-3.251326,-1.522712,13.885498,16.998291,1.434326,41.160156
12040,22.304382,2.413355,-4.960786,140.045166,-95.428467,-36.254883,41.160156
12080,24.602818,-0.014365,-2.734178,114.807129,27.374268,-18.493652,41.162109
12120,18.042704,3.701436,-2.245761,164.306641,3.814697,-82.519531,41.154297
12160,10.936713,4.304775,0.612916,116.455078,61.950684,-80.841064,41.142578
12200,3.447650,3.107674,1.067814,21.911621,64.819336,-47.210693,41.160156
12240,-4.841076,2.006341,-0.440533,-53.771973,-16.815186,-4.150391,41.138672
12280,-2.633622,0.775721,0.205901,-70.495605,4.180908,29.266357,41.152344
12320,2.691083,1.637634,-0.885855,-80.505371,-18.249512,40.039062,41.132812
12360,10.568007,3.476381,-2.217031,-104.003906,-52.490234,35.186768,41.146484
12400,20.748152,4.223372,-2.097321,-97.106934,-43.182373,15.930176,41.132812
12440,23.530214,4.505888,0.090980,-149.139404,2.563477,53.070068,41.138672
12480,18.933348,3.816358,0.828394,-159.240723,32.196045,64.270020,41.142578
12520,10.007763,1.920150,-1.244985,-95.672607,62.744141,35.491943,41.142578
12560,1.249773,-1.723825,-3.462016,-16.174316,47.637939,21.179199,41.136719
12600,-4.443638,-4.367024,-4.007894,44.799805,-7.720947,-0.640869,41.140625
12640,-2.806004,-3.222595,-1.489193,46.386719,-48.126221,-30.975342,41.148438
12680,8.432379,-2.489970,-0.407014,52.246094,-35.583496,-17.883301,41.148438
12720,20.077776,-0.694318,-3.366248,155.334473,-82.214355,-10.894775,41.152344
12760,22.716187,-0.756568,-1.182736,109.375000,12.054443,-11.718750,41.144531
12800,19.828779,2.398990,-1.829170,167.510986,-13.031006,-61.767578,41.146484
12840,12.038046,4.357447,-0.646434,151.702881,13.763428,-82.122803,41.158203
12880,3.730166,3.256114,1.369483,84.136963,54.260254,-64.849854,41.148438
12920,-3.438074,2.327164,0.378284,-18.554688,-1.098633,-15.686035,41.138672
12960,-1.752556,1.441309,-1.580173,-68.328857,-28.106689,29.235840,41.152344
13000,5.415684,2.715025,-1.297657,-108.276367,-25.268555,35.919189,41.136719
13040,15.758636,4.630386,-1.824382,-98.022461,-20.507812,12.115479,41.150391
13080,21.179108,5.439626,-2.729390,-119.995117,-36.437988,17.272949,41.156250
13120,22.515072,3.883395,0.071826,-179.382324,18.157959,59.326172,41.128906
13160,16.093824,2.815581,0.220267,-197.204590,65.917969,77.178955,41.136719
13200,5.319916,1.474828,-3.160346,-71.929932,23.529053,19.897461,41.162109
13240,-1.379060,-2.236184,-3.768473,132.141113,5.493164,19.348145,41.138672
13280,-4.137180,-5.736507,-3.251326,162.261963,-35.766602,51.940918,41.144531
13320,-1.479617,-5.363012,-0.292093,3.601074,-61.462402,-24.353027,41.160156
13360,11.295844,-3.442862,-0.339977,12.390137,82.275391,-24.414062,41.150391
13400,21.461624,2.178724,-5.386954,149.078369,-163.726807,-26.000977,41.148438
13440,25.033773,-0.004788,-1.546654,101.989746,40.802002,-19.226074,41.138672
13480,20.226215,2.207454,-1.795651,165.557861,-13.366699,-70.190430,41.138672
13520,10.903194,3.232172,-0.344765,135.986328,6.805420,-68.786621,41.146484
13560,2.901772,3.031059,1.446098,42.846680,31.738281,-54.443359,41.148438
13600,-4.137180,3.552995,-0.311246,-36.132812,-13.275146,-30.456543,41.156250
13640,-2.451663,0.828394,-0.948104,-97.442627,32.989502,31.066895,41.166016
13680,2.906561,1.364695,-0.454898,-82.763672,6.317139,28.045654,41.146484
13720,12.253524,3.414132,-2.097321,-93.109131,-32.257080,17.913818,41.142578
13760,20.800825,4.908113,-2.279280,-124.176025,-45.043945,9.063721,41.162109
13800,23.621195,3.730166,-0.474052,-149.780273,-19.409180,37.017822,41.144531
13840,19.220652,1.838747,0.641646,-180.267334,96.191406,76.843262,41.119141
13880,8.403648,1.810017,-2.600103,-93.322754,14.556885,32.287598,41.134766
13920,1.522712,-0.392649,-2.260126,49.194336,36.956787,13.702393,41.146484
13960,-2.748544,-5.137957,-3.687071,210.754395,-36.651611,60.638428,41.150391
14000,-4.209007,-5.171476,-1.656788,61.614990,-81.726074,1.831055,41.152344
14040,5.607220,-3.610456,0.790087,-66.345215,8.056641,-98.327637,41.148438
14080,24.104822,0.967257,-5.683835,177.154541,-98.388672,-24.261475,41.142578
14120,25.833437,-0.028730,-1.728614,100.158691,49.041748,-19.134521,41.146484
14160,19.565416,3.045424,-2.786851,162.689209,-34.484863,-76.690674,41.144531
14200,11.195287,4.189853,-0.047884,136.016846,25.390625,-82.061768,41.136719
14240,3.131616,2.954445,1.738190,33.477783,34.729004,-48.889160,41.148438
14280,-4.103662,2.418144,-0.052672,-41.290283,-6.134033,-13.183594,41.134766
14320,-2.557007,1.417367,-1.335965,-78.979492,4.241943,25.573730,41.138672
14360,3.021482,2.063802,-1.283292,-98.937988,3.387451,39.611816,41.136719
14400,13.579912,3.438074,-2.049437,-78.247070,-2.746582,15.899658,41.138672
14440,20.839132,4.424485,-3.045424,-112.152100,-45.806885,16.601562,41.144531
14480,23.539791,4.271256,-0.172383,-158.905029,-18.341064,42.480469,41.138672
14520,18.607735,2.145205,0.067038,-187.377930,57.403564,82.366943,41.132812
14560,8.695741,2.188300,-2.039860,-71.929932,61.035156,25.695801,41.130859
14600,0.617704,-0.517148,-2.978387,8.087158,42.572021,7.965088,41.126953
14640,-4.228160,-5.267244,-3.404555,127.502441,-5.920410,44.738770,41.126953
14680,-4.050989,-4.328717,-1.896208,75.622559,-60.485840,-26.367188,41.121094
14720,6.828263,-2.580950,0.397437,-1.434326,-17.242432,-37.719727,41.134766
14760,20.992361,0.354342,-5.070919,159.637451,-115.509033,-18.981934,41.132812
14800,25.139118,-1.139640,-2.087744,122.375488,23.864746,-18.005371,41.142578
14840,21.203051,2.609680,-2.671929,175.354004,-33.660889,-60.546875,41.136719
14880,13.182474,4.553771,-1.015141,148.925781,14.312744,-75.286865,41.103516
14920,5.267244,3.438074,1.489193,65.307617,58.776855,-59.295654,41.136719
14960,-3.112462,3.265691,0.124498,-19.378662,-4.119873,-28.991699,41.148438
15000,-3.347094,1.599327,-1.230620,-77.606201,-4.455566,23.223877,41.128906
15040,1.810017,1.699883,-0.742203,-84.228516,-3.173828,26.855469,41.125000
15080,9.528923,2.834735,-2.255338,-107.849121,-16.235352,18.554688,41.156250
15120,18.128895,4.256891,-2.557007,-81.695557,-36.773682,-11.718750,41.134766
15160,22.831108,4.525041,-1.537078,-121.826172,-41.961670,25.543213,41.115234
15200,21.236568,3.514688,1.019930,-163.421631,59.234619,70.922852,41.130859
15240,12.009315,3.356671,-0.909797,-166.625977,90.087891,62.591553,41.142578
15280,3.854665,2.288857,-1.996764,-74.340820,78.155518,7.141113,41.136719
15320,-0.646434,-2.964022,-3.332729,139.617920,-21.057129,80.352783,41.128906
15360,-2.916138,-5.310339,-4.146757,211.883545,-67.535400,98.205566,41.142578
15400,-2.288857,-4.194642,0.349553,-42.175293,-123.291016,-31.951904,41.148438
15440,12.641385,-2.312799,-0.636858,-25.756836,56.304932,-136.596680,41.148438
15480,25.172636,2.331953,-4.362236,155.426025,-102.111816,-26.519775,41.136719
15520,25.613171,0.818817,-2.609680,95.489502,47.973633,-7.507324,41.132812
15560,16.907852,5.018247,-2.121263,175.140381,-14.221191,-86.029053,41.142578
15600,8.935161,4.299986,0.981623,102.172852,52.368164,-70.434570,41.171875
15640,0.814029,3.361459,1.896208,6.134033,22.216797,-44.158936,41.154297
15680,-4.577713,2.078167,-0.766145,-59.539795,-13.000488,4.119873,41.148438
15720,-1.623269,1.575385,-1.278504,-90.270996,-1.281738,26.977539,41.158203
15760,3.548207,2.279280,-1.762132,-101.684570,-15.106201,31.768799,41.148438
15800,14.121001,3.356671,-2.169147,-62.438965,-28.503418,9.246826,41.177734
15840,21.643583,5.272032,-2.595315,-87.188721,-51.361084,6.469727,41.142578
15880,23.367409,4.960786,0.153229,-147.247314,-8.148193,50.811768,41.140625
15920,18.095377,4.170700,0.363919,-186.309814,49.072266,70.922852,41.166016
15960,8.949526,3.873818,-1.752556,-110.015869,37.292480,26.885986,41.140625
16000,2.475605,-0.368707,-2.710236,-25.360107,45.166016,32.318115,41.138672
16040,-2.925714,-5.051765,-4.185065,131.591797,-12.298584,112.701416,41.142578
16080,-4.295198,-4.213795,-1.939303,133.514404,-27.404785,68.878174,41.152344
16120,0.311246,-2.858677,0.943315,-21.209717,-104.370117,-91.125488,41.144531
16160,18.622101,-0.909797,-5.324705,102.813721,-9.490967,-77.667236,41.160156
16200,25.694572,1.340753,-2.446874,146.026611,-20.446777,-32.348633,41.128906
16240,23.123199,1.455675,-2.619257,132.690430,-0.946045,-30.487061,41.144531
16280,14.427460,4.730943,-0.981623,175.933838,26.245117,-86.791992,41.123047
16320,6.416461,3.754108,1.647211,80.017090,76.110840,-64.941406,41.140625
16360,-2.858677,2.992752,0.301669,-5.554199,4.852295,-32.196045,41.146484
16400,-4.165911,1.953669,-1.134852,-62.835693,-10.070801,14.953613,41.158203
16440,1.115698,1.881842,-1.881842,-81.481934,-23.223877,29.357910,41.140625
16480,11.329363,3.107674,-2.212242,-88.836670,-46.203613,9.124756,41.156250
16520,19.555840,5.664681,-2.681506,-71.380615,-21.301270,-6.011963,41.142578
16560,22.448034,6.727707,-1.723825,-149.475098,-46.905518,27.740479,41.132812
16600,20.465635,4.352659,0.924162,-184.753418,84.167480,64.117432,41.162109
16640,10.884041,3.342306,-1.810017,-168.304443,63.201904,52.856445,41.156250
16680,2.528277,1.216254,-2.710236,-30.761719,66.650391,23.132324,41.144531
16720,-1.776498,-4.046201,-4.213795,196.624756,-60.180664,118.774414,41.136719
16760,-2.930503,-5.861006,-2.791639,164.764404,2.227783,124.450684,41.148438
16800,-1.398214,-3.327940,0.981623,-78.826904,-64.270020,-73.577881,41.107422
16840,14.283808,-0.885855,-2.370260,26.306152,-9.124756,-177.124023,41.140625
16880,25.996243,3.663129,-2.509123,127.410889,-40.557861,-19.470215,41.146484
16920,24.837448,1.972822,-2.212242,111.083984,4.272461,-22.949219,41.140625
16960,15.868769,4.544195,-1.819593,168.609619,43.823242,-71.441650,41.128906
17000,7.326257,4.817134,0.972046,94.390869,62.988281,-69.427490,41.132812
17040,-0.761356,3.864242,1.340753,-4.302979,-1.190186,-44.769287,41.119141
17080,-3.955221,1.426944,-0.426168,-66.619873,2.014160,15.258789,41.125000
17120,-0.282516,0.708684,-1.015141,-92.651367,17.608643,43.457031,41.136719
17160,6.354211,3.399766,-1.249773,-99.914551,-45.898438,38.726807,41.160156
17200,15.715540,5.094861,-0.684742,-107.147217,-17.456055,13.458252,41.140625
17240,21.950041,6.813898,-1.048660,-123.687744,-74.707031,10.559082,41.132812
17280,22.969971,4.141969,1.312023,-186.645508,7.293701,70.251465,41.152344
17320,13.996503,3.026271,-0.656011,-161.651611,29.052734,58.807373,41.142578
17360,5.358223,2.140416,-2.403779,-70.129395,48.400879,10.223389,41.166016
17400,-0.397437,-2.303222,-3.280056,61.035156,10.833740,41.870117,41.132812
17440,-3.845088,-4.946421,-3.351882,157.623291,-45.867920,38.269043,41.138672
17480,-0.861913,-4.955997,-0.703895,36.926270,-104.461670,-46.417236,41.142578
17520,15.447390,-1.498770,-2.896984,35.919189,17.791748,-13.793945,41.132812
17560,23.851038,1.719037,-2.806004,164.794922,-40.313721,-39.733887,41.158203
17600,22.874203,1.120486,-2.408567,108.215332,-0.183105,-21.453857,41.136719
17640,15.318103,4.932055,-1.541866,175.811768,-6.958008,-86.242676,41.126953
17680,8.441956,3.964798,1.015141,100.036621,49.499512,-70.129395,41.136719
17720,0.090980,3.452439,0.689530,-1.220703,26.397705,-41.503906,41.142578
17760,-4.357447,1.647211,-0.972046,-66.375732,4.913330,9.796143,41.126953
17800,-0.627281,1.201889,-1.517924,-74.432373,-3.814697,31.494141,41.146484
17840,7.963115,2.901772,-1.757344,-90.759277,-24.993896,31.127930,41.132812
17880,17.013197,3.936068,-2.327164,-86.120605,-29.968262,10.284424,41.140625
17920,21.040245,6.090849,-1.455675,-95.123291,-67.535400,11.657715,41.166016
17960,22.064962,4.031836,1.206678,-171.356201,39.062500,69.763184,41.156250
18000,14.188039,3.098097,-0.948104,-185.180664,49.896240,79.071045,41.146484
18040,4.989516,2.322376,-2.815581,-57.159424,33.905029,11.535645,41.146484
18080,0.071826,-2.025495,-2.796427,125.183105,29.174805,36.041260,41.123047
18120,-2.858677,-5.453991,-3.538630,192.565918,-41.015625,83.007812,41.146484
18160,-2.695871,-4.668694,-0.263362,-10.406494,-60.943604,-10.955811,41.152344
18200,9.648633,-2.106898,-0.847547,-13.763428,23.895264,-111.236572,41.142578
18240,22.778435,2.853889,-4.280833,143.524170,-106.170654,-24.444580,41.148438
18280,25.076868,0.493206,-2.015918,88.806152,44.311523,-13.122559,41.150391
18320,19.397821,3.529053,-2.159570,155.548096,-19.592285,-75.897217,41.148438
18360,10.860099,3.969586,0.320823,117.279053,14.190674,-70.922852,41.148438
18400,2.494758,3.749320,1.623269,28.167725,47.271729,-61.401367,41.142578
18440,-4.390966,2.715025,-0.253785,-57.067871,-0.061035,-13.153076,41.144531
18480,-2.082955,0.952892,-1.594538,-89.447021,9.490967,31.219482,41.128906
18520,3.672705,1.455675,-2.173935,-92.651367,-13.580322,42.846680,41.160156
18560,13.608643,3.663129,-1.312023,-76.843262,-10.070801,2.563477,41.144531
18600,20.475212,5.693412,-2.106898,-66.406250,-49.377441,-8.209229,41.148438
18640,23.961170,4.865018,0.560243,-140.502930,-1.342773,49.774170,41.144531
18680,18.382681,4.199430,0.445322,-210.266113,60.913086,81.359863,41.148438
18720,7.987057,2.896984,-2.442086,-113.220215,15.838623,44.006348,41.156250
18760,1.158794,-0.181959,-2.030283,-5.432129,46.905518,33.142090,41.125000
18800,-3.126827,-4.347870,-3.682282,179.290771,-34.881592,81.115723,41.148438
18840,-3.691859,-4.845864,-1.800440,80.932617,-65.887451,26.641846,41.142578
18880,4.592079,-4.074931,0.608127,-67.260742,-28.167725,-97.229004,41.158203
18920,22.596476,0.234632,-5.607220,177.551270,-93.475342,-32.440186,41.123047
18960,25.292347,-0.124498,-2.135628,94.024658,23.834229,-6.866455,41.136719
19000,20.187908,2.983175,-2.403779,159.027100,-9.948730,-69.213867,41.132812
19040,12.430696,3.725378,-0.627281,145.721436,26.763916,-80.017090,41.126953
19080,4.443638,2.873042,1.565808,51.818848,60.485840,-51.940918,41.130859
19120,-3.921702,3.141193,0.038307,-34.057617,-9.002686,-23.132324,41.126953
19160,-3.476381,1.963245,-1.561020,-70.037842,-8.941650,15.563965,41.142578
19200,2.734178,1.623269,-2.015918,-91.644287,-4.425049,32.745361,41.142578
19240,12.622231,2.288857,-1.953669,-83.343506,-10.986328,13.031006,41.136719
19280,19.503166,4.563348,-2.145205,-94.482422,-46.661377,12.725830,41.123047
19320,23.185450,5.415684,-0.751779,-138.732910,-35.614014,35.369873,41.160156
19360,19.972431,3.600879,0.531513,-175.079346,38.970947,65.948486,41.156250
19400,10.218452,2.758120,-1.719037,-118.316650,58.746338,34.637451,41.123047
19440,1.580173,-0.675165,-3.222595,-10.711670,62.622070,18.768311,41.128906
19480,-2.935291,-4.711789,-3.720589,135.528564,3.417969,111.785889,41.148438
19520,-3.873818,-3.792415,-2.738967,164.855957,-55.725098,60.546875,41.142578
19560,-0.095768,-2.647987,0.900220,-27.313232,-84.442139,-102.935791,41.128906
19600,17.128119,-1.254562,-4.089296,62.011719,15.747070,-104.431152,41.136719
19640,25.555710,1.695095,-2.130840,159.942627,-41.656494,-28.686523,41.160156
19680,24.004267,1.623269,-2.657564,117.248535,8.483887,-15.686035,41.140625
19720,14.753071,5.640739,-1.259350,178.680420,14.953613,-83.740234,41.146484
19760,6.359000,4.390966,1.881842,69.641113,62.652588,-68.725586,41.138672
19800,-1.905785,2.916138,0.105345,-9.368896,0.244141,-33.874512,41.126953
19840,-3.351882,1.628057,-1.326388,-69.396973,9.338379,14.923096,41.126953
19880,0.995988,1.671153,-1.920150,-92.590332,2.075195,29.022217,41.132812
19920,10.678140,3.380613,-1.637634,-93.902588,-29.815674,8.880615,41.167969
19960,19.072210,4.946421,-2.044648,-84.899902,-19.012451,-6.805420,41.150391
20000,22.562958,5.908890,-0.861913,-130.737305,-61.096191,36.132812,41.148438
20040,20.628443,4.568137,1.216254,-192.657471,57.739258,76.995850,41.146484
20080,11.338940,3.323152,-1.273715,-187.103271,72.387695,67.077637,41.140625
20120,2.590526,1.091756,-3.011906,-29.174805,44.219971,18.157959,41.138672
20160,-1.422156,-3.706224,-3.107674,158.477783,-29.174805,111.602783,41.148438
20200,-2.882619,-5.018247,-3.825934,196.899414,-69.366455,104.522705,41.160156
20240,-1.283292,-3.174711,0.253785,-86.059570,-109.222412,-80.871582,41.132812
20280,15.322891,-1.388637,-2.413355,25.787354,5.493164,-149.597168,41.130859
20320,26.039337,1.288081,-3.184288,153.228760,-48.492432,-20.568848,41.136719
20360,23.975536,1.201889,-3.035848,97.869873,49.011230,-5.035400,41.128906
20400,15.404294,5.415684,-1.766921,172.149658,-13.916016,-77.575684,41.138672
20440,7.924808,3.845088,1.254562,91.186523,68.145752,-60.729980,41.142578
20480,-1.182736,3.059790,1.283292,3.051758,2.105713,-36.041260,41.144531
20520,-5.051765,2.264915,-1.086968,-57.922363,-12.664795,7.873535,41.136719
20560,-0.593762,1.924938,-1.364695,-83.435059,-8.300781,25.573730,41.136719
20600,7.105990,3.495534,-2.518700,-105.743408,-33.599854,33.294678,41.154297
20640,17.525557,3.720589,-3.126827,-46.112061,-35.064697,-0.457764,41.152344
20680,21.413740,5.147533,-2.518700,-119.873047,-47.607422,24.810791,41.160156
20720,21.959618,4.338294,0.363919,-162.872314,19.134521,67.230225,41.128906
20760,14.695610,4.098873,-1.134852,-162.689209,16.235352,62.744141,41.169922
20800,6.995857,3.021482,-2.126051,-68.511963,61.798096,16.174316,41.162109
20840,0.201113,-2.097321,-3.409343,46.142578,28.442383,39.947510,41.152344
20880,-4.553771,-5.679047,-3.811569,138.671875,-24.291992,70.861816,41.142578
20920,-3.409343,-4.271256,-0.660800,51.086426,-65.856934,-19.744873,41.146484
20960,9.481039,-1.699883,-0.909797,-4.730225,47.882080,-38.513184,41.142578
21000,22.371420,1.407791,-5.161899,159.698486,-112.182617,-24.841309,41.150391
21040,24.468740,0.263362,-2.126051,100.433350,26.214600,-12.176514,41.148438
21080,18.468872,3.730166,-2.106898,169.586182,-30.731201,-79.315186,41.152344
21120,11.295844,4.041412,0.474052,120.819092,44.830322,-78.796387,41.164062
21160,3.552995,3.514688,1.403002,28.442383,60.974121,-57.189941,41.136719
21200,-4.774038,2.408567,-0.440533,-52.124023,7.171631,-9.552002,41.136719
21240,-2.892196,1.091756,-1.551443,-71.258545,-7.415771,24.505615,41.167969
21280,3.797204,1.862689,-2.078167,-100.585938,-14.343262,34.545898,41.160156
21320,15.241488,3.691859,-2.020706,-94.085693,-32.440186,3.570557,41.142578
21360,21.102493,5.645528,-2.987964,-73.730469,-56.549072,2.685547,41.148438
21400,23.587675,5.090073,0.373495,-156.921387,1.922607,47.363281,41.140625
21440,18.157625,3.169923,0.541090,-200.164795,75.927734,81.848145,41.148438
21480,7.326257,1.877054,-2.355895,-106.689453,30.548096,47.821045,41.130859
21520,0.129287,-0.526724,-1.910573,3.662109,74.554443,48.187256,41.148438
21560,-2.743755,-3.758897,-3.739743,160.217285,-70.098877,110.687256,41.138672
21600,-2.806004,-3.955221,-3.768473,153.320312,-69.244385,-0.610352,41.154297
21640,4.659117,-3.778050,0.957681,-81.024170,-25.299072,-204.193115,41.142578
21680,22.108059,0.574608,-4.869806,166.412354,-83.740234,-31.188965,41.138672
21720,25.526979,0.972046,-1.915361,118.927002,56.335449,-18.249512,41.142578
21760,19.656397,3.643975,-3.438074,186.523438,-26.000977,-59.814453,41.130859
21800,10.793061,5.329493,-0.632069,149.353027,43.029785,-73.303223,41.158203
21840,3.734955,3.739743,2.384625,47.149658,37.017822,-49.072266,41.144531
21880,-3.078943,3.615245,-0.277727,-30.761719,-1.586914,-20.080566,41.148438
21920,-2.360683,1.642422,-2.087744,-85.205078,6.439209,29.418945,41.158203
21960,4.539406,2.442086,-2.255338,-106.292725,-15.350342,42.449951,41.138672
22000,15.279796,5.161899,-1.345541,-89.721680,-31.738281,0.671387,41.146484
22040,20.101717,6.794744,-2.355895,-108.642578,-57.983398,11.047363,41.152344
22080,22.831108,4.553771,-0.469264,-184.661865,3.570557,74.584961,41.146484
22120,16.261417,3.260903,-1.039083,-202.514648,42.480469,83.496094,41.146484
22160,6.488286,2.873042,-2.461239,-88.806152,56.610107,28.350830,41.132812
22200,-0.488417,-1.134852,-2.370260,41.961670,43.884277,60.485840,41.177734
22240,-3.485958,-5.315128,-3.567361,173.095703,-40.771484,114.898682,41.166016
22280,-3.433285,-5.281609,-1.671153,40.985107,-65.399170,7.202148,41.146484
22320,6.555324,-3.347094,0.105345,-36.499023,13.793945,-98.999023,41.156250
22360,21.380220,1.848324,-4.855441,170.043945,-90.270996,-63.323975,41.156250
22400,25.383326,-0.057461,-1.623269,99.487305,25.726318,-7.202148,41.132812
22440,20.551826,3.236961,-2.489970,158.477783,-27.221680,-62.225342,41.146484
22480,12.717999,4.635174,-0.162806,134.765625,31.372070,-79.925537,41.144531
22520,5.219360,3.198653,1.537078,43.151855,50.689697,-58.197021,41.128906
22560,-4.113238,2.418144,-0.316035,-35.583496,-14.190674,-18.402100,41.146484
22600,-3.830723,1.206678,-0.837971,-73.730469,13.336182,26.824951,41.136719
22640,2.427721,2.073379,-1.517924,-77.117920,-11.474609,29.754639,41.138672
22680,12.061988,3.385401,-1.848324,-88.256836,-24.810791,21.545410,41.136719
22720,19.613300,5.190629,-2.298434,-102.172852,-40.954590,6.774902,41.148438
22760,23.319525,5.592855,-0.603339,-158.233643,-51.025391,33.721924,41.164062
22800,19.838356,2.676718,0.268151,-194.122314,55.145264,79.711914,41.126953
22840,9.864111,2.686294,-1.886631,-100.708008,41.900635,33.660889,41.146484
22880,2.212242,0.497994,-2.782062,-16.754150,49.316406,7.995605,41.134766
22920,-2.652776,-4.869806,-3.864242,161.315918,-11.199951,51.757812,41.152344
22960,-4.079720,-5.511452,-1.651999,96.099854,-37.200928,28.900146,41.117188
23000,2.638410,-3.658340,0.656011,-25.177002,-48.706055,-47.882080,41.154297
23040,18.492813,1.254562,-4.874595,108.245850,-63.385010,-27.343750,41.138672
23080,24.545357,0.320823,-1.561020,134.063721,9.246826,-37.445068,41.128906
23120,22.476765,1.000776,-3.313575,137.145996,-41.015625,-51.544189,41.130859
23160,14.566323,4.548983,-1.019930,155.975342,3.295898,-88.653564,41.148438
23200,7.149086,3.442862,1.728614,72.387695,59.692383,-64.666748,41.132812
23240,-2.140416,3.169923,0.143652,-16.601562,4.302979,-31.158447,41.140625
23280,-4.285621,1.498770,-1.101333,-72.540283,6.408691,18.585205,41.132812
23320,1.379060,1.867477,-1.580173,-70.404053,-10.192871,24.780273,41.156250
23360,10.587160,3.236961,-2.135628,-95.825195,-19.042969,22.827148,41.136719
23400,17.879898,4.299986,-2.600103,-90.209961,-47.027588,3.448486,41.132812
23440,22.931664,5.209783,-0.545878,-142.944336,-33.386230,32.684326,41.146484
23480,20.848709,2.959233,0.708684,-183.776855,67.596436,84.075928,41.130859
23520,11.128249,3.265691,-2.020706,-120.086670,27.984619,41.992188,41.109375
23560,3.543418,1.321599,-2.269703,-44.708252,76.080322,6.713867,41.125000
23600,-1.910573,-4.462792,-3.859453,117.675781,4.364014,55.511475,41.128906
23640,-4.113238,-5.080496,-2.432509,139.526367,-40.405273,66.009521,41.138672
23680,-0.517148,-3.490746,0.143652,-18.280029,-99.578857,-64.880371,41.117188
23720,17.836803,-0.335188,-4.515464,60.760498,-34.515381,-37.536621,41.152344
23760,25.517403,0.742203,-1.723825,144.409180,-1.129150,-31.250000,41.142578
23800,23.420080,0.694318,-2.997540,135.437012,-12.512207,-36.712646,41.148438
23840,15.040375,4.510676,-1.307234,180.725098,10.284424,-81.085205,41.152344
23880,7.158663,3.715801,1.259350,48.980713,91.186523,-48.736572,41.152344
23920,-1.441309,3.040636,0.052672,-10.070801,13.854980,-34.240723,41.136719
23960,-4.405331,1.910573,-0.986411,-65.917969,-11.322021,4.913330,41.123047
24000,0.478840,1.479617,-1.067814,-74.951172,-9.490967,24.444580,41.132812
24040,8.307879,2.422932,-2.068590,-79.223633,-47.912598,28.472900,41.152344
24080,17.257406,3.849876,-1.900996,-90.057373,-33.355713,13.641357,41.142578
24120,22.562958,5.391742,-0.957681,-130.187988,-32.653809,28.686523,41.140625
24160,21.499931,3.979163,0.201113,-165.405273,4.821777,67.108154,41.125000
24200,13.187263,2.633622,-1.565808,-136.260986,12.054443,64.208984,41.148438
24240,5.262455,1.489193,-2.044648,-69.824219,79.895020,21.759033,41.144531
24280,-0.933739,-2.734178,-3.236961,46.112061,22.399902,39.825439,41.130859
24320,-3.672705,-4.730943,-3.438074,150.024414,-15.625000,91.918945,41.136719
24360,-2.767697,-3.380613,0.138864,55.755615,-70.495605,-42.785645,41.130859
24400,10.256760,-3.246537,-1.201889,19.104004,18.249512,-83.831787,41.117188
24440,24.626759,2.054225,-5.003881,159.362793,-96.954346,-45.532227,41.142578
24480,25.483883,0.493206,-2.557007,99.426270,26.519775,-18.127441,41.148438
24520,18.148048,3.964798,-1.666364,180.328369,13.732910,-84.106445,41.156250
24560,10.084377,4.486734,1.082179,112.762451,78.887939,-78.033447,41.146484
24600,0.905008,3.538630,0.943315,10.925293,36.895752,-51.300049,41.130859
24640,-5.377377,1.690306,-0.837971,-60.058594,-3.112793,1.373291,41.142578
24680,-1.853112,0.972046,-0.900220,-70.251465,-3.417969,24.841309,41.160156
24720,4.285621,2.106898,-1.379060,-76.782227,-24.658203,28.686523,41.142578
24760,15.298949,4.084508,-1.623269,-48.614502,-61.859131,0.640869,41.140625
24800,23.070528,7.436390,-1.666364,-119.689941,-42.236328,4.394531,41.142578
24840,24.353819,4.855441,0.138864,-164.672852,-6.622314,56.060791,41.169922
24880,16.898275,3.327940,0.459687,-197.387695,103.851318,73.333740,41.158203
24920,5.817910,2.346318,-2.925714,-79.681396,40.832520,22.338867,41.146484
24960,-0.383072,-1.972822,-3.040636,82.641602,27.740479,62.347412,41.150391
25000,-3.251326,-4.888960,-4.314352,230.865479,-77.239990,105.224609,41.154297
25040,-3.912126,-3.711013,-0.258574,41.259766,-64.361572,1.800537,41.142578
25080,5.602432,-3.916914,0.507571,-52.246094,-29.327393,-158.477783,41.132812
25120,23.218967,1.762132,-5.367800,140.777588,-99.761963,-35.308838,41.144531
25160,26.111164,2.351106,-1.417367,109.466553,57.769775,-21.331787,41.150391
25200,20.714634,3.610456,-3.232172,155.120850,-69.610596,-63.598633,41.148438
25240,11.654974,4.228160,0.756568,113.861084,59.265137,-66.131592,41.142578
25280,2.557007,3.093309,1.163582,29.357910,57.281494,-55.847168,41.167969
25320,-4.453215,2.580950,-0.656011,-49.560547,6.164551,-12.298584,41.156250
25360,-2.331953,1.431733,-1.762132,-93.505859,-4.852295,20.843506,41.144531
25400,3.811569,1.757344,-1.953669,-88.836670,-8.178711,28.411865,41.146484
25440,14.341269,3.706224,-1.489193,-65.277100,-29.602051,3.723145,41.138672
25480,20.934900,6.229713,-1.661576,-97.106934,-68.206787,-0.915527,41.142578
25520,23.865402,4.903325,0.651223,-152.130127,18.432617,51.483154,41.136719
25560,17.444153,3.361459,0.081403,-198.120117,70.129395,73.455811,41.148438
25600,6.756437,2.667141,-2.403779,-105.224609,30.395508,33.905029,41.152344
25640,0.043096,-0.818817,-2.523489,34.759521,46.417236,61.737061,41.146484
25680,-3.375824,-4.453215,-4.596867,225.708008,-83.435059,120.330811,41.166016
25720,-3.921702,-3.974375,-0.876278,71.960449,-62.042236,20.904541,41.144531
25760,4.094085,-4.199430,0.689530,-81.756592,-77.941895,-132.995605,41.142578
25800,22.883780,1.254562,-6.636727,185.363770,-36.712646,-110.748291,41.164062
25840,27.447128,1.029507,-2.264915,102.020264,56.335449,-1.403809,41.156250
25880,20.116083,4.103662,-2.987964,148.498535,-27.526855,-54.473877,41.142578
25920,11.463438,5.444415,0.225055,131.164551,40.985107,-82.031250,41.146484
25960,4.141969,3.390190,1.513135,40.130615,66.070557,-58.441162,41.142578
26000,-4.367024,2.341529,-0.660800,-42.022705,-2.471924,-12.817383,41.154297
26040,-3.174711,1.173159,-1.810017,-70.556641,-3.112793,23.345947,41.136719
26080,4.730943,1.953669,-1.537078,-64.941406,-35.491943,35.278320,41.126953
26120,14.604630,4.122815,-1.335965,-75.836182,-19.287109,18.890381,41.158203
26160,20.551826,7.062895,-1.704672,-119.689941,-62.103271,22.308350,41.142578
26200,23.013067,4.319140,-0.402226,-157.165527,-23.681641,58.105469,41.154297
26240,16.711529,2.992752,-0.311246,-172.607422,44.525146,72.845459,41.138672
26280,6.607996,2.446874,-2.609680,-71.685791,53.985596,19.714355,41.152344
26320,-0.330400,-1.532289,-3.011906,74.676514,47.393799,51.361084,41.154297
26360,-3.356671,-5.367800,-3.940856,221.954346,-54.321289,90.332031,41.166016
26400,-3.581726,-4.170700,0.086191,11.383057,-49.652100,1.708984,41.158203
26440,4.994305,-2.801216,0.349553,-22.216797,-53.314209,-71.166992,41.136719
26480,20.599712,1.589750,-6.325481,143.554688,-89.263916,-90.332031,41.152344
26520,27.490225,0.876278,-2.561796,109.863281,50.170898,-7.659912,41.148438
26560,20.633230,3.701436,-3.213019,132.293701,-45.318604,-48.858643,41.146484
26600,12.243947,3.907337,-0.497994,123.046875,15.075684,-63.659668,41.146484
26640,4.874595,2.557007,1.604115,60.729980,83.892822,-59.997559,41.150391
26680,-4.094085,3.184288,-0.407014,-24.108887,18.218994,-36.468506,41.142578
26720,-3.830723,1.934515,-1.714248,-89.782715,10.162354,16.937256,41.132812
26760,2.858677,2.451663,-2.312799,-103.637695,-32.531738,29.418945,41.154297
26800,14.211981,3.088520,-2.078167,-93.231201,-34.088135,12.725830,41.146484
26840,20.154390,5.152322,-2.609680,-66.345215,-57.739258,-5.096436,41.154297
26880,24.258051,5.420473,-0.081403,-150.756836,-14.770508,47.943115,41.154297
26920,19.555840,4.223372,0.263362,-194.885254,94.329834,74.005127,41.142578
26960,8.264784,3.131616,-2.590526,-142.089844,41.564941,45.471191,41.146484
27000,0.641646,0.009577,-2.164358,-7.873535,70.953369,44.799805,41.144531
27040,-2.298434,-4.841076,-3.964798,213.256836,-75.042725,155.151367,41.146484
27080,-3.591303,-5.023035,-3.284845,162.628174,-28.869629,82.214355,41.160156
27120,0.531513,-3.174711,0.608127,-101.684570,-128.753662,-158.142090,41.154297
27160,20.638020,-0.301669,-4.501099,123.565674,-3.509521,-149.780273,41.132812
27200,27.145458,2.178724,-1.738190,128.234863,36.895752,-9.613037,41.136719
27240,21.566969,3.031059,-3.706224,135.650635,-2.410889,-25.024414,41.146484
27280,11.544841,6.014235,-0.909797,161.193848,-8.819580,-86.944580,41.156250
27320,4.539406,3.356671,2.418144,35.369873,83.587646,-46.569824,41.146484
27360,-3.342306,2.796427,-0.378284,-27.404785,-5.554199,-16.235352,41.156250
27400,-3.007117,1.369483,-1.642422,-77.880859,-4.821777,26.245117,41.162109
27440,2.427721,2.068590,-1.685518,-108.856201,-15.930176,40.527344,41.138672
27480,14.393941,4.046201,-1.929727,-64.300537,-39.062500,6.835938,41.142578
27520,21.059399,5.511452,-2.188300,-99.914551,-32.745361,19.470215,41.136719
27560,22.874203,5.324705,-0.114922,-163.726807,-13.824463,50.994873,41.177734
27600,17.525557,3.433285,-0.234632,-182.769775,28.778076,72.662354,41.140625
27640,7.900866,2.930503,-2.102109,-89.965820,63.293457,25.848389,41.152344
27680,0.531513,-0.742203,-2.954445,27.343750,30.242920,27.557373,41.160156
27720,-3.806781,-5.310339,-3.711013,162.414551,-45.196533,66.741943,41.140625
27760,-3.241749,-4.563348,-1.249773,33.508301,-58.959961,-11.474609,41.156250
27800,8.676587,-2.719813,-0.569820,-23.895264,-5.523682,-50.720215,41.146484
27840,22.084116,0.660800,-5.521029,186.035156,-87.646484,-25.451660,41.148438
27880,23.678656,0.938527,-2.576161,103.759766,26.428223,-14.526367,41.136719
27920,18.181568,3.907337,-2.959233,163.513184,-26.306152,-64.422607,41.134766
27960,10.716447,4.314352,0.541090,119.537354,76.263428,-73.333740,41.142578
28000,1.939303,3.107674,1.398214,27.526855,67.474365,-52.520752,41.162109
28040,-4.941632,2.384625,-1.015141,-46.173096,-13.671875,-7.598877,41.166016
28080,-2.025495,1.527501,-1.221043,-86.975098,-18.463135,24.902344,41.162109
28120,3.634398,1.766921,-1.790863,-98.480225,-12.756348,23.590088,41.150391
28160,14.638149,3.035848,-2.571373,-82.824707,-57.312012,18.737793,41.144531
28200,21.629219,6.277597,-2.896984,-81.481934,-50.720215,4.180908,41.152344
28240,24.071304,5.391742,-0.210690,-164.398193,-0.030518,48.553467,41.152344
28280,19.115307,4.721366,0.833182,-167.144775,100.280762,70.953369,41.142578
28320,7.857770,3.835511,-2.288857,-137.542725,64.971924,42.938232,41.146484
28360,-0.090980,0.047884,-2.346318,-0.213623,79.101562,76.904297,41.138672
28400,-2.992752,-4.788404,-5.300763,250.579834,-121.429443,113.464355,41.138672
28440,-2.873042,-5.942409,-2.111686,94.177246,5.065918,46.630859,41.119141
28480,2.992752,-3.979163,1.149217,-110.595703,-115.570068,-132.843018,41.125000
28520,18.181568,1.158794,-3.394978,74.401855,-34.362793,-35.858154,41.123047
28560,25.392902,2.250550,-0.727837,103.057861,15.319824,-24.871826,41.140625
28600,22.539015,1.216254,-2.624045,92.224121,-6.469727,-32.409668,41.140625
28640,14.226347,3.538630,-0.488417,144.042969,36.743164,-82.061768,41.134766
28680,5.841852,3.136404,1.982399,64.025879,68.023682,-67.291260,41.148438
28720,-4.170700,2.691083,0.028730,-40.557861,-10.650635,-25.787354,41.138672
28760,-4.213795,1.268927,-1.091756,-92.620850,13.671875,24.414062,41.152344
28800,1.206678,2.786851,-1.465251,-97.229004,-23.315430,21.972656,41.160156
28840,9.797073,4.774038,-2.149993,-132.904053,-102.722168,22.186279,41.164062
28880,18.866310,6.617573,-2.561796,-118.713379,-48.217773,-4.241943,41.162109
28920,25.550920,5.209783,-0.938527,-187.011719,-59.783936,23.101807,41.156250
28960,21.691467,3.078943,0.871489,-192.535400,91.766357,62.469482,41.150391
29000,10.041282,3.634398,-2.451663,-142.517090,49.896240,25.390625,41.167969
29040,2.389413,-0.512359,-3.658340,-31.219482,8.331299,34.271240,41.171875
29080,-3.093309,-5.305551,-4.256891,122.039795,-10.986328,47.241211,41.146484
29120,-4.137180,-3.998317,-1.623269,77.636719,-22.338867,-8.148193,41.173828
29160,5.109226,-2.365471,0.588974,-37.200928,-71.655273,-53.894043,41.136719
29200,19.910181,3.016694,-5.607220,110.595703,-80.902100,-27.252197,41.152344
29240,24.372972,2.207454,-1.690306,103.790283,14.099121,-46.661377,41.142578
29280,21.796812,1.063026,-3.102885,102.447510,-32.196045,-24.353027,41.150391
29320,13.996503,4.596867,-0.742203,151.641846,43.182373,-98.632812,41.138672
29360,5.932832,2.901772,0.967257,57.800293,74.127197,-66.284180,41.156250
29400,-3.687071,2.422932,-0.861913,-27.191162,3.112793,-27.648926,41.160156
29440,-3.945644,1.450886,-1.192312,-73.028564,14.892578,20.721436,41.167969
29480,1.920150,2.149993,-1.551443,-85.052490,-17.333984,30.914307,41.154297
29520,11.722012,3.433285,-1.829170,-86.547852,-75.042725,9.887695,41.173828
29560,18.981232,4.759673,-2.331953,-83.648682,-20.538330,8.056641,41.152344
29600,22.893356,4.678270,-0.986411,-122.497559,-38.024902,41.595459,41.132812
29640,19.986795,4.328717,0.761356,-174.285889,57.739258,65.185547,41.128906
29680,10.572795,3.912126,-1.757344,-158.935547,50.659180,42.785645,41.150391
29720,3.045424,0.373495,-2.652776,-13.183594,81.085205,10.559082,41.152344
29760,-2.413355,-4.946421,-4.232949,198.120117,-22.674561,109.527588,41.148438
29800,-5.310339,-4.089296,-1.666364,96.862793,-17.761230,56.579590,41.169922
29840,-1.067814,-2.786851,0.545878,-8.361816,-115.447998,-72.479248,41.166016
29880,14.676456,-2.643199,-4.295198,29.663086,31.188965,-145.050049,41.144531
29920,25.182213,2.269703,-4.084508,161.712646,-91.247559,-42.144775,41.158203
29960,25.953146,1.628057,-2.868254,125.244141,38.940430,-11.779785,41.175781
30000,16.792931,4.821922,-2.595315,164.154053,-29.602051,-56.060791,41.140625
30040,9.040505,3.605668,1.613692,98.602295,92.926025,-56.732178,41.158203
30080,0.100556,3.145981,0.651223,21.789551,56.549072,-44.586182,41.152344
30120,-5.037400,2.853889,-1.206678,-58.105469,13.305664,1.403809,41.160156
30160,-1.177947,1.537078,-0.847547,-93.322754,1.556396,25.299072,41.142578
30200,4.486734,1.786075,-1.896208,-110.351562,-31.433105,34.973145,41.132812
30240,15.921441,3.390190,-2.269703,-30.700684,-67.840576,-16.357422,41.156250
30280,22.826319,4.347870,-1.489193,-44.586182,-74.249268,12.512207,41.169922
30320,23.487118,4.750096,1.034295,-145.935059,52.917480,59.753418,41.140625
30360,16.203957,4.601655,-0.397437,-180.725098,56.396484,59.967041,41.128906
30400,6.291962,2.293645,-2.422932,-79.681396,54.534912,30.517578,41.162109
30440,0.158017,-1.987187,-2.557007,42.419434,58.624268,54.504395,41.152344
30480,-3.256114,-4.678270,-4.276044,206.359863,-55.633545,128.326416,41.160156
30520,-3.533842,-3.854665,-0.876278,75.225830,-60.028076,7.354736,41.136719
30560,6.181829,-3.988740,0.062249,-65.826416,-35.858154,-140.197754,41.164062
30600,23.630772,2.049437,-5.497087,192.810059,-78.948975,-61.981201,41.146484
30640,27.562050,0.354342,-1.192312,88.958740,67.779541,15.930176,41.164062
30680,19.709068,4.458004,-2.284068,189.422607,-31.494141,-76.263428,41.142578
30720,11.262324,4.544195,0.445322,111.358643,84.350586,-59.112549,41.142578
30760,3.074155,2.844312,0.938527,25.146484,68.389893,-41.748047,41.134766
30800,-5.348647,2.360683,-0.809240,-39.337158,-0.793457,-7.629395,41.169922
30840,-3.351882,1.359907,-1.115698,-66.436768,0.183105,17.944336,41.156250
30880,2.264915,1.053449,-1.326388,-76.538086,-21.057129,29.815674,41.142578
30920,11.549629,1.781286,-1.359907,-64.636230,-52.368164,10.253906,41.160156
30960,20.796036,3.840300,-0.914585,-59.326172,-67.565918,19.683838,41.162109
31000,23.755270,5.822699,1.053449,-133.087158,-17.730713,39.947510,41.148438
31040,19.622877,4.697424,1.048660,-157.104492,27.618408,44.677734,41.148438
31080,10.907983,2.614468,-1.307234,-123.443604,59.051514,29.113770,41.146484
31120,2.753332,-0.502782,-2.997540,-25.329590,62.866211,20.172119,41.140625
31160,-2.303222,-4.424485,-4.050989,164.154053,-20.874023,99.029541,41.136719
31200,-3.816358,-4.027047,-2.341529,137.237549,-48.919678,58.227539,41.152344
31240,0.474052,-3.562572,0.794875,-44.555664,-91.308594,-136.596680,41.166016
31280,18.622101,-1.570596,-4.414908,110.076904,-14.617920,-50.933838,41.162109
31320,24.727316,1.862689,-1.771709,146.453857,-1.770020,-26.580811,41.158203
31360,22.768858,2.327164,-2.260126,113.098145,-3.967285,-23.345947,41.132812
31400,14.800955,4.261679,-1.278504,166.107178,6.805420,-72.326660,41.152344
31440,7.307104,3.428497,1.867477,97.351074,76.171875,-59.631348,41.158203
31480,-1.508347,3.141193,0.718261,6.072998,25.451660,-35.278320,41.146484
31520,-4.094085,1.900996,-1.053449,-53.161621,16.204834,4.699707,41.152344
31560,0.421380,1.407791,-1.666364,-82.336426,9.307861,29.968262,41.154297
31600,8.992621,3.452439,-2.628834,-88.073730,-64.666748,20.996094,41.152344
31640,18.904617,3.466804,-1.355118,-62.652588,-31.738281,5.981445,41.142578
31680,21.509508,6.124368,-0.627281,-130.004883,-51.452637,18.768311,41.134766
31720,21.260511,4.563348,1.249773,-170.166016,48.858643,58.288574,41.136719
31760,13.120225,3.098097,-1.345541,-183.929443,68.511963,59.173584,41.146484
31800,4.687847,1.647211,-2.853889,-45.837402,68.756104,10.223389,41.171875
31840,-0.823605,-3.385401,-3.840300,154.296875,-7.843018,76.995850,41.160156
31880,-3.562572,-5.659893,-2.738967,167.572021,-24.566650,116.058350,41.156250
31920,-2.624045,-4.017470,0.914585,-46.081543,-94.879150,-53.314209,41.144531
31960,12.440272,-1.436521,-1.695095,-3.936768,43.029785,-132.659912,41.136719
32000,24.870968,2.557007,-3.078943,149.658203,-77.056885,-45.104980,41.146484
32040,25.225309,1.699883,-1.666364,93.109131,28.015137,-5.615234,41.132812
32080,17.616535,4.831499,-1.283292,159.027100,19.866943,-76.354980,41.142578
32120,10.251971,3.586514,1.201889,112.762451,65.612793,-73.150635,41.136719
32160,0.593762,2.729390,1.063026,24.932861,32.562256,-50.781250,41.148438
32200,-5.822699,1.403002,-0.474052,-53.649902,-3.570557,7.720947,41.130859
32240,-1.728614,1.216254,-0.689530,-55.236816,-1.434326,26.458740,41.158203
32280,4.027047,2.662352,-1.450886,-82.092285,-33.569336,31.280518,41.125000
32320,13.522451,3.835511,-2.130840,-59.814453,-47.149658,14.831543,41.162109
32360,21.265299,5.367800,-1.436521,-88.806152,-71.197510,16.235352,41.158203
32400,23.166296,5.655105,0.622492,-153.778076,-32.714844,42.999268,41.148438
32440,18.593370,4.716578,1.417367,-176.208496,83.923340,61.737061,41.167969
32480,9.174581,4.036624,-2.169147,-136.810303,70.831299,22.308350,41.142578
32520,1.546654,-0.871489,-3.706224,5.584717,27.008057,38.421631,41.164062
32560,-2.777274,-5.252879,-4.185065,190.734863,-33.935547,144.561768,41.162109
32600,-4.381389,-4.280833,-1.436521,106.719971,-68.420410,72.113037,41.144531
32640,1.489193,-2.671929,1.144428,-91.796875,-94.482422,-178.100586,41.144531
32680,22.821531,0.790087,-5.133168,149.871826,-38.116455,-117.370605,41.167969
32720,27.025749,2.542642,-1.565808,121.734619,49.194336,-11.169434,41.166016
32760,20.389021,4.079720,-3.404555,135.711670,-21.514893,-27.862549,41.160156
32800,11.133038,5.736507,-0.588974,147.918701,25.909424,-69.824219,41.152344
32840,4.137180,3.318364,2.284068,42.602539,58.410645,-47.698975,41.167969
32880,-3.529053,2.887407,-0.258574,-21.697998,-4.730225,-17.913818,41.146484
32920,-2.825158,1.446098,-1.522712,-84.259033,5.096436,34.667969,41.152344
32960,2.863465,2.087744,-2.231396,-108.764648,-22.521973,46.997070,41.156250
33000,13.986926,4.807557,-1.814805,-97.442627,-30.059814,12.359619,41.148438
33040,21.236568,5.770026,-2.930503,-53.070068,-41.168213,6.134033,41.146484
33080,23.209391,6.014235,-0.790087,-160.858154,-27.282715,44.982910,41.154297
33120,18.511967,4.802769,0.751779,-186.737061,82.031250,68.969727,41.171875
33160,7.680599,3.098097,-2.298434,-174.011230,87.341309,49.560547,41.164062
33200,0.043096,-0.167594,-3.131616,39.337158,52.154541,51.940918,41.142578
33240,-2.365471,-5.090073,-5.123591,247.314453,-94.238281,124.969482,41.132812
33280,-3.160346,-5.171476,-1.268927,82.122803,22.583008,70.465088,41.152344
33320,0.785298,-3.083732,1.063026,-94.757080,-106.994629,-120.697021,41.144531
33360,19.144037,0.756568,-3.897760,90.179443,-17.730713,-135.284424,41.144531
33400,26.685772,2.877831,-0.746991,95.428467,32.562256,-4.425049,41.185547
33440,22.510284,3.093309,-2.240973,113.433838,8.300781,-23.803711,41.150391
33480,13.522451,5.133168,-0.373495,141.326904,26.092529,-80.505371,41.171875
33520,5.549759,3.490746,1.977611,72.692871,62.988281,-67.138672,41.169922
33560,-2.940080,2.398990,0.225055,-20.599365,2.380371,-16.723633,41.156250
33600,-3.404555,1.264138,-1.259350,-66.925049,7.263184,23.132324,41.175781
33640,1.345541,1.900996,-1.537078,-89.752197,-14.312744,36.010742,41.136719
33680,11.880029,4.707001,-1.613692,-80.169678,-81.756592,15.533447,41.171875
33720,20.197485,5.626374,-1.666364,-109.649658,-46.691895,18.310547,41.162109
33760,23.702597,6.378153,0.430956,-176.055908,-36.560059,45.623779,41.146484
33800,19.196709,3.955221,0.493206,-204.071045,53.741455,81.726074,41.179688
33840,8.877700,2.652776,-3.246537,-113.372803,43.731689,30.822754,41.167969
33880,1.364695,-0.526724,-3.462016,11.352539,41.961670,25.207520,41.138672
33920,-2.940080,-5.243302,-3.667917,161.102295,-1.861572,69.976807,41.187500
33960,-4.122815,-4.553771,-1.268927,55.969238,-30.242920,10.986328,41.158203
34000,2.466028,-2.590526,0.215478,6.774902,-107.604980,-49.133301,41.158203
34040,18.521544,0.694318,-4.941632,109.039307,-72.967529,-56.579590,41.167969
34080,26.848577,-0.541090,-2.513912,130.859375,31.890869,-15.686035,41.162109
34120,22.467188,2.513912,-3.452439,130.920410,-9.124756,-38.177490,41.162109
34160,13.699622,5.276821,-0.962469,152.862549,19.439697,-84.442139,41.156250
34200,6.780379,3.251326,1.786075,81.695557,116.699219,-63.140869,41.162109
34240,-3.145981,2.403779,-0.071826,-6.103516,16.571045,-27.740479,41.162109
34280,-3.811569,1.594538,-1.182736,-61.920166,3.570557,22.491455,41.181641
34320,1.015141,0.991199,-0.119710,-89.447021,-3.479004,33.569336,41.175781
34360,7.580042,1.723825,-1.350330,-164.978027,-23.590088,21.423340,41.175781
34400,20.724211,3.557784,-1.776498,-93.261719,-62.194824,24.810791,41.166016
34440,24.372972,5.439626,0.181959,-153.411865,-22.613525,54.626465,41.171875
34480,22.227768,4.745308,2.250550,-188.018799,68.817139,73.516846,41.164062
34520,12.756307,1.632846,-1.781286,-107.208252,45.562744,61.859131,41.173828
34560,4.007894,-0.172383,-2.173935,-16.418457,50.323486,28.594971,41.158203
34600,-1.570596,-3.457227,-3.557784,107.177734,-5.432129,107.086182,41.173828
34640,-3.404555,-4.185065,-3.423708,113.311768,-102.111816,174.591064,41.160156
34680,-1.177947,-4.285621,0.167594,-31.219482,8.209229,-41.931152,41.181641
34720,10.917560,-3.806781,0.488417,-72.845459,119.995117,-134.582520,41.152344
34760,26.604370,-0.531513,-0.756568,159.301758,-93.597412,22.705078,41.169922
34800,22.778435,-0.014365,3.792415,59.875488,17.150879,-20.996094,41.166016
34840,15.059528,-0.047884,1.833959,173.522949,-67.443848,-59.936523,41.166016
34880,7.699753,0.770933,2.351106,166.809082,10.192871,-45.654297,41.173828
34920,-0.962469,0.651223,2.240973,1.129150,17.120361,-1.861572,41.175781
34960,-3.773262,1.517924,-1.407791,-25.848389,-7.049561,-8.178711,41.158203
35000,0.928950,0.043096,-0.718261,-118.225098,18.402100,8.911133,41.152344
35040,10.874464,0.057461,0.282516,-122.039795,-41.168213,-2.288818,41.146484
35080,22.850262,4.922479,1.771709,-151.855469,6.805420,-0.549316,41.167969
35120,22.840685,2.786851,2.264915,-114.166260,53.405762,-10.925293,41.179688
35160,17.357962,-0.124498,0.679953,-77.728271,29.937744,8.850098,41.160156
35200,10.165780,-0.134075,-1.618480,-38.848877,19.256592,9.155273,41.150391
35240,3.011906,-0.799663,-2.628834,22.003174,-3.204346,15.625000,41.171875
35280,-3.098097,-4.687847,-3.620033,71.014404,-34.271240,54.626465,41.156250
35320,-3.059790,-4.453215,-1.853112,60.485840,-13.824463,13.732910,41.162109
35360,6.014235,-3.687071,0.397437,-41.259766,64.453125,-11.383057,41.156250
35400,22.170307,-0.866701,-2.159570,91.278076,-38.543701,17.211914,41.160156
35440,24.779987,0.043096,2.920926,87.799072,-14.648438,2.563477,41.177734
35480,18.765753,0.435745,2.375048,124.084473,-73.303223,-44.647217,41.158203
35520,12.765883,2.054225,1.814805,190.338135,-41.351318,-49.804688,41.179688
35560,3.327940,1.498770,3.083732,6.378174,92.773438,-24.658203,41.166016
35600,-4.529830,1.537078,-0.656011,20.202637,-53.894043,-30.578613,41.171875
35640,-3.069367,0.584185,-0.210690,-52.001953,-7.354736,-18.035889,41.156250
35680,1.996764,-0.478840,0.043096,-70.831299,14.862061,-4.180908,41.171875
35720,13.206416,1.249773,-0.684742,-109.558105,-95.886230,-4.089355,41.167969
35760,24.238897,5.300763,-0.253785,-100.891113,-34.332275,8.026123,41.162109
35800,23.386562,4.836287,1.197101,-113.189697,3.814697,13.275146,41.173828
35840,17.410635,1.005565,0.124498,-93.597412,14.129639,31.219482,41.171875
35880,8.523358,0.569820,-2.092532,-56.610107,59.051514,20.629883,41.167969
35920,0.349553,-1.374272,-3.117251,22.766113,56.854248,20.660400,41.177734
35960,-3.442862,-4.510676,-3.500323,178.100586,-9.582520,48.767090,41.171875
36000,-3.864242,-3.615245,-1.029507,40.527344,-114.410400,-14.801025,41.171875
36040,4.668694,-3.787627,1.101333,-19.714355,-46.386719,-70.861816,41.175781
36080,20.542250,0.052672,-5.272032,125.274658,-102.935791,-15.167236,41.169922
36120,26.053703,0.019154,-1.082179,120.758057,8.880615,-33.721924,41.146484
36160,23.386562,0.397437,-2.638410,115.600586,-42.846680,-24.139404,41.171875
36200,14.058752,3.902549,-1.187524,151.824951,18.432617,-81.756592,41.171875
36240,6.033388,2.882619,1.369483,84.838867,81.542969,-69.763184,41.171875
36280,-2.906561,2.896984,-0.153229,3.814697,-1.525879,-36.499023,41.166016
36320,-3.481169,1.355118,-0.833182,-63.781738,20.294189,15.655518,41.162109
36360,1.628057,1.757344,-0.694318,-65.643311,-7.446289,19.012451,41.173828
36400,9.313444,3.251326,-1.546654,-113.830566,-29.144287,23.651123,41.160156
36440,18.593370,4.611232,-2.738967,-79.437256,-78.033447,-14.648438,41.171875
36480,24.200590,4.912902,-0.804452,-155.090332,-11.688232,31.280518,41.179688
36520,21.193474,3.447650,0.512359,-173.736572,67.596436,68.115234,41.169922
36560,11.271901,3.098097,-1.350330,-152.191162,109.191895,53.283691,41.158203
36600,3.045424,2.346318,-2.049437,-37.261963,139.739990,7.141113,41.167969
36640,-1.493982,-3.696647,-5.257667,185.638428,-132.934570,126.007080,41.158203
36680,-2.949656,-6.756437,-2.633622,173.065186,-0.152588,129.302979,41.175781
36720,-2.130840,-3.960010,0.881066,-131.530762,-124.328613,-98.632812,41.169922
36760,16.256630,-0.440533,-2.480393,37.719727,3.753662,-180.297852,41.166016
36800,26.360161,2.619257,-1.977611,142.578125,-42.236328,-31.768799,41.166016
36840,24.272417,1.297657,-2.178724,92.834473,33.477783,-20.355225,41.177734
36880,15.308526,4.960786,-1.393425,160.614014,-2.807617,-84.381104,41.136719
36920,7.225701,3.845088,1.704672,75.012207,61.859131,-65.368652,41.158203
36960,-1.848324,2.873042,0.909797,-13.183594,21.850586,-22.674561,41.152344
37000,-4.548983,1.426944,-1.321599,-66.711426,2.227783,16.174316,41.185547
37040,0.220267,1.283292,-1.067814,-81.176758,-3.417969,26.245117,41.169922
37080,7.053318,2.887407,-1.608904,-125.610352,-24.963379,39.276123,41.162109
37120,18.119318,4.280833,-1.991976,-54.443359,-60.089111,-7.659912,41.166016
37160,22.634783,5.487510,-0.450110,-125.274658,-47.393799,13.031006,41.181641
37200,22.629995,4.175488,1.522712,-173.522949,32.196045,62.774658,41.201172
37240,14.030022,3.466804,-0.277727,-174.438477,68.542480,68.420410,41.156250
37280,4.740520,2.331953,-2.691083,-50.140381,57.617188,14.434814,41.152344
37320,-1.685518,-2.983175,-3.878607,71.044922,-1.464844,80.169678,41.175781
37360,-4.467580,-4.831499,-3.414132,175.537109,-62.103271,119.964600,41.167969
37400,-3.648763,-2.949656,0.497994,22.399902,-95.367432,-39.703369,41.158203
37440,9.198523,-3.265691,-0.679953,-31.188965,11.352539,-121.124268,41.167969
37480,24.789564,1.043872,-5.075707,176.055908,-127.563477,-61.981201,41.154297
37520,26.623524,1.259350,-1.709460,105.102539,30.914307,-10.681152,41.169922
37560,19.809626,4.103662,-1.786075,174.835205,-8.941650,-76.080322,41.144531
37600,11.243171,3.897760,0.761356,132.171631,75.592041,-78.613281,41.169922
37640,2.188300,3.083732,1.125275,37.872314,72.998047,-42.480469,41.156250
37680,-5.295974,2.327164,-0.948104,-48.278809,4.943848,5.126953,41.181641
37720,-2.130840,1.249773,-1.651999,-70.098877,-23.132324,27.435303,41.156250
37760,5.722142,2.964022,-1.187524,-81.451416,-53.161621,24.932861,41.156250
37800,16.620548,4.501099,-1.225831,-101.257324,-36.621094,10.467529,41.156250
37840,20.594923,5.746084,-1.465251,-101.409912,-54.290771,19.042969,41.158203
37880,21.701044,4.750096,0.225055,-154.754639,13.702393,47.698975,41.179688
37920,15.356410,3.327940,0.373495,-194.030762,103.759766,70.465088,41.169922
37960,5.157111,2.097321,-2.772485,-108.947754,66.864014,28.778076,41.169922
38000,-1.201889,-1.666364,-3.342306,97.076416,4.150391,77.423096,41.152344
38040,-2.686294,-5.018247,-4.299986,225.372314,-80.627441,123.016357,41.171875
38080,-2.398990,-5.114015,-0.555455,2.410889,-66.650391,-14.404297,41.166016
38120,9.294291,-3.572149,-0.177171,-29.449463,21.331787,-255.004883,41.148438
38160,23.233334,3.476381,-4.151546,168.334961,-119.476318,-31.829834,41.136719
38200,26.321854,1.819593,-1.388637,100.433350,74.005127,-6.866455,41.169922
38240,18.818426,4.797980,-2.839523,151.916504,-44.769287,-57.922363,41.140625
38280,9.739613,5.104438,0.660800,128.601074,47.241211,-76.080322,41.158203
38320,1.283292,3.514688,1.977611,20.812988,43.609619,-49.438477,41.166016
38360,-4.625597,2.082955,-0.632069,-46.966553,-2.288818,-4.150391,41.162109
38400,-1.752556,0.948104,-1.551443,-96.160889,7.354736,30.456543,41.146484
38440,3.936068,2.365471,-2.006341,-98.724365,-22.399902,33.142090,41.152344
38480,14.963760,3.983952,-1.235408,-76.477051,-19.409180,4.669189,41.148438
38520,20.590134,6.823475,-1.647211,-73.730469,-53.131104,-6.469727,41.166016
38560,23.329102,5.951985,0.924162,-165.222168,-12.969971,48.400879,41.154297
38600,18.330008,3.529053,0.512359,-217.773438,91.461182,88.165283,41.152344
38640,7.843405,3.198653,-3.050213,-86.578369,37.963867,34.576416,41.181641
38680,1.465251,-0.814029,-2.839523,35.186768,48.675537,59.692383,41.156250
38720,-2.815581,-4.841076,-4.266468,210.937500,-42.724609,121.368408,41.140625
38760,-4.611232,-3.993528,-0.780510,48.187256,-44.464111,39.520264,41.136719
38800,2.284068,-2.959233,0.411803,-33.966064,-115.753174,-77.606201,41.146484
38840,21.327549,1.091756,-4.874595,166.351318,-13.610840,-149.475098,41.138672
38880,26.527756,0.876278,-1.029507,102.355957,27.282715,-0.915527,41.152344
38920,21.610065,3.562572,-2.734178,143.585205,-6.622314,-35.980225,41.173828
38960,12.761095,6.138733,-0.359130,150.970459,18.188477,-84.075928,41.166016
39000,5.329493,3.418920,2.111686,62.866211,58.532715,-55.450439,41.160156
39040,-3.031059,2.762909,0.584185,-25.848389,-13.397217,-14.495850,41.169922
39080,-2.619257,1.479617,-0.938527,-74.707031,13.885498,23.101807,41.150391
39120,2.408567,1.460463,-1.968034,-80.413818,4.394531,35.919189,41.150391
39160,9.797073,3.404555,-1.738190,-63.385010,-29.754639,24.505615,41.142578
39200,17.070658,5.798757,-2.561796,-71.380615,-55.938721,13.031006,41.179688
39240,22.539015,6.028600,-0.799663,-149.414062,-82.153320,42.785645,41.146484
39280,20.896593,4.472369,1.273715,-175.445557,53.009033,71.197510,41.160156
39320,11.875240,3.845088,-1.019930,-177.947998,118.072510,62.561035,41.162109
39360,2.973598,1.814805,-3.720589,-27.587891,63.507080,4.119873,41.148438
39400,-0.948104,-4.386178,-4.778827,252.319336,-43.975830,95.947266,41.162109
39440,-2.964022,-6.607996,-2.193089,134.674072,-13.488770,125.885010,41.142578
39480,-2.308010,-3.562572,1.307234,-64.208984,-71.075439,-72.906494,41.175781
39520,10.706870,-0.229843,-1.757344,31.219482,-16.357422,-145.141602,41.160156
39560,24.253263,3.064578,-3.045424,134.216309,-90.087891,-33.538818,41.142578
39600,25.622747,0.708684,-2.226608,93.322754,18.676758,-13.031006,41.152344
39640,19.086576,4.170700,-1.867477,140.197754,-18.127441,-68.572998,41.142578
39680,10.132261,4.012682,1.120486,104.400635,36.376953,-73.699951,41.154297
39720,0.933739,3.648763,0.746991,19.439697,5.920410,-66.436768,41.175781
39760,-4.769250,1.565808,-0.373495,-58.929443,4.974365,-3.326416,41.146484
39800,-1.335965,0.790087,-0.895431,-91.888428,40.039062,31.585693,41.154297
39840,6.019023,2.954445,-1.896208,-96.496582,1.708984,36.041260,41.183594
39880,15.413871,4.343082,-1.800440,-91.033936,-29.541016,3.692627,41.166016
39920,20.810402,5.602432,-1.958457,-102.447510,-114.746094,9.216309,41.171875
39960,23.764847,4.343082,1.623269,-176.330566,48.553467,64.514160,41.169922
40000,15.830462,4.132392,0.301669,-189.392090,103.607178,69.793701,41.156250
40040,5.837064,2.940080,-3.308787,-92.864990,69.610596,13.366699,41.171875
40080,0.057461,-2.240973,-5.075707,184.600830,-28.167725,42.053223,41.166016
40120,-3.289633,-6.287174,-2.796427,182.800293,-15.747070,93.200684,41.179688
40160,-3.466804,-4.979939,0.459687,-51.879883,-104.858398,-28.778076,41.148438
40200,11.147403,-2.489970,-0.775721,9.796143,15.533447,-75.164795,41.171875
40240,24.167072,1.920150,-3.356671,163.146973,-78.094482,-41.320801,41.175781
40280,24.162283,0.972046,-1.608904,89.874268,24.810791,-12.481689,41.179688
40320,17.875111,4.390966,-2.039860,159.149170,-29.541016,-82.336426,41.158203
40360,10.141838,3.931279,1.034295,105.224609,54.351807,-75.500488,41.160156
40400,0.727837,3.050213,0.957681,9.338379,19.683838,-47.912598,41.169922
40440,-4.802769,1.604115,-1.067814,-63.537598,-7.080078,2.258301,41.152344
40480,-1.125275,1.101333,-1.010353,-79.437256,9.887695,21.667480,41.166016
40520,5.535394,2.461239,-1.551443,-102.935791,12.634277,35.034180,41.160156
40560,14.753071,2.767697,-2.451663,-41.290283,-48.767090,2.105713,41.158203
40600,21.499931,4.381389,-1.589750,-99.426270,-90.850830,27.099609,41.156250
40640,23.429657,4.592079,0.938527,-157.470703,-1.708984,64.422607,41.148438
40680,17.171215,3.509900,0.186748,-158.111572,75.500488,68.756104,41.146484
40720,7.354988,2.456451,-2.935291,-51.055908,62.500000,14.312744,41.158203
40760,0.574608,-1.541866,-3.074155,75.683594,54.199219,48.583984,41.181641
40800,-3.236961,-5.037400,-3.586514,177.825928,-15.258789,100.067139,41.162109
40840,-4.328717,-4.017470,-0.593762,38.299561,-55.755615,1.190186,41.166016
40880,4.213795,-2.906561,-0.186748,-2.471924,-113.342285,-101.196289,41.150391
40920,21.978771,0.627281,-5.324705,161.071777,-81.085205,-33.782959,41.171875
40960,25.814283,0.804452,-2.044648,117.279053,36.529541,-14.099121,41.158203
41000,22.448034,1.757344,-3.112462,149.169922,-12.329102,-20.233154,41.162109
41040,13.512875,3.998317,-0.905008,154.754639,-1.007080,-64.819336,41.175781
41080,5.760449,2.863465,1.551443,81.634521,75.500488,-58.563232,41.160156
41120,-3.241749,2.839523,-0.158017,-0.274658,11.138916,-31.585693,41.179688
41160,-3.960010,1.369483,-0.914585,-72.296143,28.625488,19.226074,41.152344
41200,1.240196,1.857901,-0.885855,-62.164307,9.918213,23.712158,41.169922
41240,8.427590,2.513912,-1.661576,-100.036621,-61.645508,36.712646,41.160156
41280,17.999609,3.696647,-2.336741,-90.698242,-34.637451,13.641357,41.175781
41320,23.295582,4.936844,-1.699883,-146.789551,-36.926270,31.158447,41.128906
41360,21.806389,3.667917,0.794875,-182.983398,40.985107,68.054199,41.158203
41400,13.038822,2.509123,-1.240196,-177.001953,126.831055,68.176270,41.183594
41440,3.998317,1.527501,-3.452439,-22.003174,63.781738,11.871338,41.160156
41480,-1.077391,-3.624821,-4.702212,211.608887,-30.303955,38.116455,41.160156
41520,-3.931279,-6.057330,-1.795651,86.334229,-16.784668,89.904785,41.181641
41560,-2.078167,-3.284845,1.197101,-63.415527,-113.067627,-64.147949,41.162109
41600,12.789825,-0.746991,-1.355118,28.839111,10.589600,-36.193848,41.169922
41640,25.033773,2.063802,-3.016694,117.828369,-81.970215,-28.778076,41.158203
41680,25.005043,0.426168,-1.853112,73.669434,52.520752,-14.617920,41.148438
41720,17.539921,3.514688,-2.025495,142.791748,-1.586914,-83.312988,41.160156
41760,8.992621,3.246537,1.288081,73.974609,76.141357,-71.990967,41.156250
41800,-0.598550,2.418144,0.766145,-4.089355,9.552002,-48.217773,41.144531
41840,-4.596867,1.024718,-1.063026,-76.477051,6.134033,13.275146,41.160156
41880,-0.876278,2.006341,-0.895431,-87.188721,6.072998,24.597168,41.164062
41920,5.827487,3.749320,-2.126051,-128.326416,-43.731689,25.024414,41.160156
41960,17.008410,3.878607,-2.154782,-77.850342,-70.831299,-1.861572,41.158203
42000,24.598028,4.687847,-1.211466,-169.921875,-30.609131,45.471191,41.144531
42040,23.199814,5.401319,0.545878,-173.919678,13.977051,62.347412,41.181641
42080,15.045163,4.199430,-0.507571,-186.218262,83.801270,57.739258,41.154297
42120,5.458780,1.182736,-3.466804,-53.924561,37.078857,15.747070,41.152344
42160,-1.019930,-4.280833,-4.941632,59.753418,19.775391,34.362793,41.154297
42200,-3.892972,-4.955997,-4.003105,131.652832,-38.604736,31.982422,41.167969
42240,-0.344765,-2.782062,1.058237,11.688232,-105.133057,-61.584473,41.140625
42280,15.284584,-1.149217,-1.771709,27.374268,9.399414,4.180908,41.156250
42320,21.983561,1.163582,-3.629610,131.378174,-40.374756,-35.339355,41.154297
42360,21.576546,0.277727,-2.686294,89.355469,5.126953,-28.259277,41.150391
42400,15.816096,3.098097,-2.097321,171.569824,-3.875732,-85.998535,41.181641
42440,8.911219,3.284845,0.981623,96.405029,77.362061,-75.897217,41.126953
42480,-0.732626,3.442862,0.531513,3.326416,27.862549,-50.262451,41.148438
42520,-4.367024,1.637634,-0.948104,-53.771973,-0.793457,2.960205,41.138672
42560,-0.153229,0.770933,-1.158794,-61.004639,-17.791748,23.834229,41.144531
42600,7.259220,1.872266,-2.049437,-97.473145,-56.121826,20.690918,41.128906
42640,18.071434,3.385401,-2.853889,-67.321777,-48.858643,13.183594,41.148438
42680,21.945253,6.540959,-1.110910,-125.946045,-36.529541,15.930176,41.150391
42720,21.667526,4.539406,0.641646,-163.818359,12.908936,49.713135,41.150391
42760,14.422671,2.643199,-0.962469,-177.886963,77.270508,67.657471,41.160156
42800,4.912902,2.015918,-2.911349,-62.286377,90.942383,10.528564,41.156250
42840,-0.914585,-2.762909,-4.228160,140.411377,-5.554199,67.657471,41.142578
42880,-3.404555,-5.937620,-3.773262,187.622070,-42.480469,87.890625,41.169922
42920,-2.954445,-3.730166,0.914585,-10.528564,-66.619873,-50.903320,41.146484
42960,8.279149,-2.451663,-0.857124,-7.537842,-36.682129,-123.138428,41.164062
43000,23.286005,2.825158,-5.434838,140.838623,-114.715576,-34.515381,41.177734
43040,26.479872,0.746991,-2.269703,104.461670,51.300049,-14.373779,41.160156
43080,20.436905,3.308787,-2.748544,162.445068,-31.433105,-64.941406,41.175781
43120,11.492168,3.634398,0.014365,124.298096,34.118652,-70.648193,41.166016
43160,3.433285,3.217807,1.675941,32.073975,76.202393,-50.140381,41.177734
43200,-4.486734,3.169923,-0.641646,-43.426514,-9.826660,-19.897461,41.179688
43240,-2.542642,1.249773,-1.192312,-92.498779,19.500732,22.521973,41.158203
43280,2.202666,1.786075,-0.976834,-83.282471,-9.216309,21.057129,41.148438
43320,11.075577,3.442862,-2.116474,-105.499268,-41.351318,24.444580,41.156250
43360,20.939688,4.338294,-2.485181,-62.164307,-82.672119,-1.403809,41.171875
43400,23.874979,4.185065,0.047884,-132.049561,-17.425537,47.363281,41.160156
43440,19.852720,3.596091,0.881066,-190.093994,88.897705,84.869385,41.160156
43480,9.308656,2.930503,-2.715025,-110.473633,17.822266,48.278809,41.164062
43520,3.040636,0.421380,-1.963245,-10.009766,84.838867,29.205322,41.158203
43560,-2.298434,-3.897760,-3.811569,148.681641,-15.350342,117.309570,41.185547
43600,-4.347870,-4.266468,-2.829947,123.229980,-78.704834,72.296143,41.185547
43640,0.181959,-3.567361,0.464475,-35.125732,-104.553223,-100.738525,41.166016
43680,20.977995,-1.628057,-5.267244,135.681152,-26.611328,-123.474121,41.167969
43720,26.341007,0.402226,-1.915361,134.338379,20.538330,-16.845703,41.167969
43760,21.600489,2.442086,-2.973598,145.416260,-6.042480,-38.238525,41.175781
43800,13.201628,5.410896,-1.063026,163.208008,1.983643,-90.698242,41.171875
43840,6.631939,3.270479,1.790863,59.967041,78.277588,-55.969238,41.166016
43880,-1.805228,2.695871,0.220267,-19.744873,-0.640869,-25.421143,41.169922
43920,-4.170700,1.503559,-1.393425,-62.225342,-5.157471,11.566162,41.173828
43960,0.651223,1.388637,-1.790863,-72.174072,-7.690430,26.916504,41.150391
44000,9.720459,2.681506,-1.838747,-72.692871,-39.306641,23.376465,41.189453
44040,18.358738,4.266468,-2.446874,-86.914062,-47.058105,20.050049,41.175781
44080,22.610842,6.162675,-0.914585,-137.908936,-35.430908,35.156250,41.179688
44120,20.863073,4.745308,0.924162,-162.261963,45.440674,59.509277,41.166016
44160,12.109872,3.557784,-1.268927,-171.386719,60.668945,55.145264,41.158203
44200,3.442862,1.173159,-3.131616,-30.151367,77.545166,11.840820,41.164062
44240,-1.695095,-3.921702,-4.252102,189.208984,3.784180,75.927734,41.164062
44280,-3.921702,-5.252879,-2.849100,147.338867,-2.807617,75.256348,41.181641
44320,-1.709460,-3.098097,0.588974,-49.163818,-127.044678,-63.873291,41.171875
44360,13.517663,-1.771709,-1.642422,0.732422,49.255371,-91.949463,41.160156
44400,23.860615,2.255338,-4.094085,150.939941,-120.727539,-48.797607,41.162109
44440,25.627535,0.421380,-2.082955,113.708496,48.461914,-13.061523,41.169922
44480,17.338808,4.692636,-2.935291,163.970947,-43.762207,-69.335938,41.160156
44520,8.963891,5.219360,0.837971,102.722168,50.720215,-71.472168,41.173828
44560,0.603339,3.936068,1.187524,-2.532959,27.526855,-44.738770,41.201172
44600,-4.271256,2.413355,-0.972046,-73.699951,-4.821777,0.610352,41.158203
44640,-1.005565,1.211466,-1.278504,-108.795166,-6.805420,28.656006,41.162109
44680,4.232949,1.968034,-2.360683,-113.769531,-1.251221,23.773193,41.169922
44720,15.198392,3.098097,-2.729390,-71.105957,-42.480469,-6.164551,41.162109
44760,22.644360,4.113238,-3.256114,-52.337646,-90.698242,18.432617,41.195312
44800,23.520638,6.196194,0.723049,-149.322510,23.925781,59.692383,41.167969
44840,17.463306,5.549759,0.541090,-175.689697,74.890137,69.793701,41.156250
44880,7.235278,2.925714,-2.221819,-157.592773,112.823486,52.581787,41.167969
44920,-0.536301,-0.598550,-3.332729,41.168213,44.708252,52.124023,41.162109
44960,-3.165135,-4.692636,-4.975151,245.422363,-80.230713,141.632080,41.169922
45000,-3.720589,-4.410120,-1.613692,60.699463,-25.024414,46.813965,41.167969
45040,2.954445,-3.155558,0.320823,-95.642090,-153.167725,-178.192139,41.175781
45080,23.362619,1.268927,-5.075707,178.619385,-20.446777,-94.543457,41.146484
45120,26.307487,0.814029,-1.302446,102.142334,57.067871,-3.417969,41.179688
45160,20.963631,2.456451,-3.318364,153.961182,-3.082275,-26.733398,41.167969
45200,11.602302,6.234501,-0.560243,159.088135,21.118164,-85.205078,41.189453
45240,4.625597,3.869030,1.924938,46.966553,58.227539,-53.619385,41.162109
45280,-2.853889,2.336741,-0.205901,-28.228760,-2.716064,-14.495850,41.160156
45320,-2.887407,1.312023,-1.335965,-71.197510,-2.563477,17.425537,41.175781
45360,1.561020,1.963245,-1.350330,-96.405029,-4.455566,30.670166,41.173828
45400,10.951078,3.509900,-1.948880,-69.366455,-36.895752,17.822266,41.177734
45440,19.847933,4.735731,-2.293645,-89.202881,-32.836914,16.082764,41.162109
45480,22.773647,6.488286,-0.378284,-159.271240,-41.534424,33.233643,41.179688
45520,20.638020,3.730166,0.885855,-201.141357,50.994873,87.615967,41.179688
45560,10.984597,3.280056,-1.584962,-121.032715,53.955078,50.567627,41.177734
45600,2.681506,0.574608,-2.576161,-32.745361,52.612305,19.439697,41.152344
45640,-3.031059,-4.400543,-4.242526,92.987061,20.599365,33.508301,41.160156
45680,-4.515464,-4.601655,-2.082955,90.270996,-21.697998,7.934570,41.171875
45720,0.708684,-2.695871,0.584185,32.196045,-76.629639,-25.604248,41.169922
45760,14.475344,-0.469264,-2.753332,56.182861,7.293701,0.457764,41.185547
45800,23.223757,1.312023,-2.571373,133.453369,-74.859619,-35.278320,41.150391
45840,24.794353,0.411803,-2.015918,117.736816,-1.647949,-17.608643,41.199219
45880,18.076223,4.161122,-1.446098,170.227051,12.359619,-81.878662,41.169922
45920,9.844957,3.639187,0.608127,111.480713,75.866699,-73.364258,41.167969
45960,0.545878,3.040636,0.703895,24.017334,31.188965,-50.506592,41.171875
46000,-5.128380,1.877054,-0.823605,-55.328369,-5.371094,-2.197266,41.181641
46040,-1.632846,1.225831,-1.177947,-63.842773,-27.099609,22.491455,41.171875
46080,4.596867,2.226608,-1.877054,-86.608887,-46.844482,23.559570,41.175781
46120,15.571888,3.399766,-1.963245,-72.753906,-44.342041,7.141113,41.171875
46160,22.108059,6.397307,-2.906561,-83.221436,-70.373535,0.335693,41.187500
46200,24.009054,5.726931,0.201113,-158.477783,3.326416,44.372559,41.181641
46240,18.028339,3.873818,0.679953,-179.412842,105.468750,73.181152,41.166016
46280,7.565677,3.002329,-2.475605,-117.645264,80.078125,40.069580,41.158203
46320,0.172383,-0.110133,-3.064578,28.015137,57.495117,64.300537,41.175781
46360,-3.016694,-4.635174,-4.841076,238.647461,-124.572754,132.415771,41.195312
46400,-3.557784,-5.123591,-1.235408,114.654541,-0.427246,56.518555,41.181641
46440,1.216254,-3.816358,1.187524,-85.937500,-110.565186,-136.688232,41.169922
46480,17.645266,0.914585,-4.156334,64.910889,-15.563965,-117.126465,41.179688
46520,25.225309,3.576937,-1.647211,121.612549,-9.094238,-28.350830,41.156250
46560,24.095245,1.283292,-2.585738,118.011475,-13.336182,-15.502930,41.185547
46600,15.998055,4.137180,-0.981623,162.780762,28.656006,-71.166992,41.169922
46640,7.493851,3.921702,1.355118,94.512939,39.428711,-68.023682,41.156250
46680,-1.580173,3.567361,0.339977,-0.854492,3.112793,-50.323486,41.171875
46720,-4.381389,1.235408,-0.670376,-75.408936,28.045654,8.544922,41.166016
46760,-0.191536,1.201889,-1.388637,-73.852539,5.065918,28.625488,41.185547
46800,8.039729,3.284845,-1.647211,-98.907471,-31.982422,32.867432,41.142578
46840,17.132908,5.525817,-1.915361,-93.597412,-30.975342,-2.288818,41.166016
46880,22.266075,6.794744,-1.771709,-135.681152,-108.398438,11.444092,41.185547
46920,22.941240,3.356671,1.034295,-179.412842,55.694580,68.634033,41.164062
46960,13.809755,2.236184,-1.115698,-159.576416,50.109863,56.457520,41.179688
47000,5.358223,3.241749,-1.747767,-63.507080,72.052002,1.281738,41.183594
47040,-0.067038,-1.675941,-2.537854,39.245605,15.686035,97.290039,41.166016
47080,-2.446874,-5.631162,-3.988740,215.362549,-66.436768,170.715332,41.171875
47120,-3.969586,-4.697424,-1.570596,89.996338,-54.901123,14.953613,41.167969
47160,4.362236,-2.446874,-0.100556,-82.672119,-54.382324,-231.597900,41.181641
47200,24.736893,3.878607,-4.726154,179.870605,-87.646484,-86.944580,41.162109
47240,27.351360,1.479617,-0.952892,93.902588,72.570801,11.199951,41.177734
47280,19.407398,5.109226,-2.260126,166.961670,-30.059814,-58.013916,41.162109
47320,10.989386,4.711789,0.713472,116.546631,48.126221,-68.267822,41.158203
47360,2.834735,3.179500,1.364695,34.271240,61.065674,-54.656982,41.185547
47400,-4.649539,2.753332,-0.220267,-51.300049,-9.979248,-10.467529,41.162109
47440,-2.408567,1.259350,-0.914585,-94.268799,26.245117,18.157959,41.158203
47480,3.179500,1.843535,-1.211466,-125.823975,35.125732,31.066895,41.152344
47520,13.445837,3.581726,-1.982399,-91.064453,-18.157959,-0.976562,41.205078
47560,19.977219,5.793968,-1.776498,-51.544189,-94.696045,-1.251221,41.179688
47600,22.079329,5.702989,1.604115,-121.917725,-64.025879,41.320801,41.166016
47640,18.650831,5.348647,2.590526,-170.898438,69.152832,59.143066,41.183594
47680,9.892841,3.998317,-1.000776,-124.237061,55.267334,39.489746,41.189453
47760,-2.245761,-4.639963,-3.873818,136.444092,-53.161621,171.600342,41.158203
47800,-2.940080,-4.769250,-3.342306,217.681885,-26.275635,102.111816,41.173828
47840,-0.675165,-2.877831,1.072602,-91.766357,-103.485107,-121.185303,41.164062
47880,15.504850,0.665588,-3.222595,36.437988,1.983643,-162.567139,41.181641
47920,25.201366,2.767697,-1.455675,127.227783,-74.310303,-27.191162,41.171875
47960,25.526979,0.201113,-1.905785,116.180420,20.660400,-1.281738,41.148438
48000,16.534357,5.176264,-1.307234,176.635742,-21.850586,-70.983887,41.169922
48040,8.312668,3.648763,1.086968,112.731934,27.709961,-68.603516,41.162109
48080,0.162806,3.246537,0.588974,35.186768,19.165039,-53.283691,41.171875
48120,-4.616021,1.771709,-0.919373,-62.591553,24.047852,5.493164,41.169922
48160,-1.134852,1.331176,-1.312023,-84.655762,26.336670,33.386230,41.167969
48200,6.521805,2.997540,-1.881842,-108.123779,-24.932861,33.874512,41.177734
48240,16.256630,3.600879,-1.537078,-77.056885,-20.721436,6.866455,41.166016
48280,21.653160,6.124368,-2.039860,-90.362549,-97.747803,5.828857,41.187500
48320,23.324312,5.003881,0.972046,-164.855957,24.444580,61.492920,41.175781
48360,15.892711,4.079720,-0.038307,-209.594727,83.679199,78.643799,41.166016
48400,5.803545,3.117251,-2.432509,-102.081299,63.598633,34.729004,41.169922
48440,-0.814029,-0.675165,-2.686294,34.729004,46.508789,89.202881,41.167969
48480,-2.288857,-5.597643,-5.061342,260.986328,-120.605469,138.336182,41.162109
48520,-3.102885,-5.401319,-1.728614,106.933594,-6.622314,47.790527,41.160156
48560,3.572149,-3.845088,0.928950,-124.603271,-108.215332,-245.971680,41.173828
48600,23.362619,3.280056,-4.970363,153.076172,-62.866211,-78.002930,41.166016
48640,27.198132,1.517924,-0.679953,93.017578,75.439453,-9.399414,41.173828
48680,20.135237,3.016694,-3.701436,175.811768,-55.023193,-57.525635,41.171875
48720,10.912771,5.161899,0.110133,138.885498,33.386230,-80.108643,41.191406
48760,3.624821,3.213019,2.039860,28.686523,63.201904,-51.391602,41.195312
48800,-4.390966,2.643199,-0.622492,-38.269043,-6.683350,-18.096924,41.183594
48840,-3.303998,1.393425,-1.695095,-89.080811,6.866455,23.956299,41.173828
48880,2.810793,2.020706,-1.824382,-104.797363,-15.899658,35.614014,41.185547
48920,13.685257,3.940856,-1.321599,-75.775146,-24.566650,6.347656,41.179688
48960,21.040245,5.995081,-2.264915,-122.375488,-40.008545,14.739990,41.162109
49000,23.649925,5.511452,-0.186748,-153.045654,-50.598145,48.583984,41.167969
49040,18.995596,4.050989,0.703895,-204.040527,67.047119,83.496094,41.160156
49080,8.801085,3.198653,-2.121263,-101.257324,55.114746,37.475586,41.177734
49120,1.340753,0.043096,-2.839523,-9.765625,46.142578,22.369385,41.173828
49160,-2.978387,-5.353435,-4.352659,150.329590,-13.885498,100.585938,41.183594
49200,-3.835511,-4.587290,-2.073379,115.661621,-3.265381,31.555176,41.177734
49240,1.244985,-2.791639,0.162806,-1.007080,-108.184814,-80.078125,41.187500
49280,17.525557,0.057461,-4.472369,102.111816,-38.726807,-40.222168,41.175781
49320,24.751257,2.097321,-1.527501,120.788574,-35.461426,-35.430908,41.175781
49360,24.224533,0.962469,-2.571373,129.974365,-3.143311,-28.076172,41.148438
49400,15.595830,4.390966,-1.647211,189.819336,29.418945,-89.538574,41.189453
49440,7.881712,3.514688,1.187524,77.239990,83.374023,-58.013916,41.164062
49480,-1.244985,2.997540,0.019154,4.180908,26.672363,-39.276123,41.181641
49520,-4.888960,1.814805,-1.403002,-68.054199,-4.364014,7.293701,41.179688
49560,-0.517148,1.618480,-0.483629,-85.968018,0.000000,21.057129,41.181641
49600,5.856217,2.379837,-2.011129,-103.302002,-43.640137,24.536133,41.173828
49640,16.912642,3.423708,-2.461239,-67.077637,-62.713623,1.953125,41.175781
49680,23.223757,5.789180,-1.666364,-97.229004,-59.814453,17.333984,41.156250
49720,23.410503,5.142745,0.407014,-152.191162,13.519287,58.258057,41.177734
49760,16.318878,4.601655,0.014365,-175.842285,87.066650,74.859619,41.207031
49800,6.502652,3.165135,-2.451663,-132.110596,122.375488,32.409668,41.185547
49840,-0.421380,-1.321599,-3.562572,42.419434,44.586182,66.680908,41.173828
49880,-2.748544,-4.970363,-4.290410,212.707520,-84.197998,148.681641,41.171875
49920,-3.275268,-4.721366,-2.269703,139.404297,-10.681152,61.492920,41.169922
49960,2.274492,-3.888184,0.991199,-99.548340,-156.463623,-219.635010,41.171875
50000,23.137566,2.489970,-4.534618,156.402588,-45.562744,-107.116699,41.150391
50040,27.542896,2.226608,-0.339977,96.435547,57.434082,-5.493164,41.173828
50080,20.398598,3.902549,-4.041412,164.642334,-62.042236,-52.734375,41.162109
50120,11.219229,6.181829,0.138864,134.063721,36.926270,-83.007812,41.185547
50160,4.151546,3.888184,2.111686,17.120361,58.441162,-54.534912,41.162109
50200,-3.773262,2.561796,-0.478840,-49.011230,-2.960205,-14.587402,41.179688
50240,-3.236961,1.331176,-1.695095,-99.182129,4.730225,19.592285,41.167969
50280,1.786075,1.685518,-2.322376,-107.452393,-14.282227,26.885986,41.169922
50320,12.655750,3.342306,-1.958457,-71.411133,-43.914795,3.692627,41.169922
50360,20.341137,5.765238,-1.968034,-80.352783,-44.403076,2.014160,41.162109
50400,23.247698,6.387730,0.612916,-142.761230,-43.945312,46.142578,41.166016
50440,19.833567,5.142745,1.374272,-187.866211,57.586670,75.622559,41.169922
50480,10.424355,4.587290,-1.197101,-139.648438,40.893555,51.422119,41.185547
50520,2.097321,1.187524,-2.916138,-36.590576,35.400391,43.121338,41.177734
50560,-2.896984,-3.869030,-4.108450,152.648926,-5.340576,120.025635,41.156250
50600,-4.295198,-5.386954,-3.366248,148.101807,-68.786621,92.224121,41.166016
50640,0.526724,-3.825934,0.421380,-64.025879,-128.662109,-73.272705,41.167969
50680,18.435352,0.253785,-4.893748,100.402832,41.412354,-134.582520,41.175781
50720,25.364172,0.550666,-2.930503,125.823975,-3.051758,-11.871338,41.166016
50760,22.993914,2.418144,-3.380613,119.781494,10.711670,-18.218994,41.189453
50800,14.580688,6.157887,-1.072602,153.533936,28.320312,-88.836670,41.158203
50840,7.728483,3.380613,1.556231,78.948975,84.533691,-71.105957,41.177734
50880,-1.608904,2.427721,-0.086191,-9.490967,30.822754,-39.062500,41.166016
50920,-5.042189,1.493982,-1.230620,-71.746826,4.211426,8.422852,41.173828
50960,-0.028730,1.359907,-1.470040,-66.375732,-16.693115,20.324707,41.169922
51000,7.575254,2.078167,-2.164358,-83.038330,-75.286865,23.803711,41.160156
51040,17.228676,3.979163,-1.699883,-69.274902,-24.353027,-0.549316,41.175781
51080,21.916523,7.206547,-1.379060,-98.663330,-92.773438,20.141602,41.169922
51120,22.256498,5.750873,0.833182,-155.578613,21.850586,58.197021,41.179688
51160,15.227123,4.525041,-0.129287,-182.250977,84.869385,61.889648,41.185547
51200,5.300763,2.159570,-2.935291,-70.098877,83.557129,28.717041,41.175781
51240,-1.182736,-2.437297,-3.112462,60.821533,49.468994,97.106934,41.175781
51280,-3.169923,-5.075707,-4.247314,217.346191,-104.431152,160.125732,41.160156
51320,-2.997540,-3.371036,-1.407791,85.296631,-23.101807,-5.157471,41.181641
51360,4.946421,-2.255338,0.766145,-98.175049,-77.392578,-284.515381,41.169922
51400,24.023420,3.596091,-5.137957,165.374756,-99.945068,-46.722412,41.166016
51440,26.518179,2.858677,-1.034295,98.632812,72.479248,-14.801025,41.175781
51480,20.508732,3.155558,-3.691859,151.428223,-27.618408,-33.416748,41.164062
51520,11.329363,5.674258,-0.220267,145.660400,53.344727,-80.688477,41.205078
51560,3.131616,4.113238,1.661576,47.668457,71.075439,-65.887451,41.191406
51600,-4.185065,1.977611,-0.478840,-28.808594,1.953125,-18.676758,41.169922
51640,-2.671929,1.005565,-1.139640,-76.751709,7.263184,25.909424,41.175781
51680,2.039860,2.398990,-1.197101,-91.125488,-4.577637,33.355713,41.179688
51720,11.769896,4.649539,-1.896208,-87.799072,-52.185059,8.972168,41.187500
51760,19.833567,5.602432,-2.250550,-71.075439,-48.492432,4.394531,41.181641
51800,23.429657,6.411672,-0.119710,-128.570557,-55.908203,40.222168,41.183594
51840,19.728222,6.387730,1.393425,-181.823730,45.227051,69.763184,41.207031
51880,10.050858,4.429273,-1.139640,-211.425781,116.546631,69.793701,41.173828
51920,1.474828,0.799663,-3.840300,-1.007080,62.164307,24.841309,41.183594
51960,-1.537078,-4.539406,-4.060566,214.721680,-75.592041,135.650635,41.173828
52000,-2.212242,-6.871359,-3.169923,159.484863,16.906738,167.327881,41.169922
52040,-1.154005,-3.495534,0.316035,-115.936279,-143.280029,-99.731445,41.185547
52080,16.448166,1.201889,-3.303998,68.267822,-15.594482,-244.354248,41.164062
52120,27.787106,2.456451,-1.053449,107.208252,5.249023,-14.373779,41.179688
52160,23.654713,1.714248,-3.418920,125.732422,33.905029,-12.054443,41.158203
52200,14.154520,6.253655,-1.455675,172.058105,-20.507812,-86.730957,41.179688
52240,7.024588,3.993528,1.972822,59.967041,79.681396,-54.992676,41.181641
52280,-1.795651,3.107674,0.723049,-5.645752,32.928467,-24.353027,41.183594
52320,-5.046977,1.632846,-1.101333,-77.850342,6.286621,12.359619,41.171875
52360,-0.349553,1.412579,-1.158794,-86.669922,-7.568359,22.766113,41.181641
52400,6.655881,2.964022,-1.810017,-129.364014,-39.093018,42.327881,41.185547
52440,17.252617,4.165911,-2.346318,-44.128418,-77.178955,-5.828857,41.167969
52480,23.238121,5.157111,-0.090980,-126.831055,-40.222168,30.120850,41.162109
52520,22.285229,5.070919,1.393425,-178.344727,16.265869,69.335938,41.162109
52560,14.417883,4.539406,-0.368707,-163.299561,25.329590,62.194824,41.181641
52600,6.124368,3.184288,-2.059013,-81.939697,72.235107,17.974854,41.152344
52640,-0.857124,-1.776498,-3.433285,15.777588,23.254395,81.665039,41.187500
52680,-3.562572,-5.128380,-4.027047,164.978027,-43.304443,129.394531,41.166016
52720,-3.227384,-4.161122,-0.914585,54.321289,-119.110107,-20.721436,41.171875
52760,9.792285,-4.031836,-0.612916,-39.520264,30.273438,-143.646240,41.171875
52800,23.918076,1.814805,-5.181053,168.060303,-118.286133,-57.159424,41.169922
52840,26.302700,0.076614,-2.758120,110.351562,35.247803,-8.850098,41.199219
52880,18.205509,4.189853,-2.767697,206.542969,-12.695312,-78.125000,41.166016
52920,9.706094,5.027823,1.019930,107.757568,68.817139,-69.854736,41.173828
52960,1.369483,4.089296,1.436521,11.230469,56.488037,-49.652100,41.193359
53000,-4.994305,2.614468,-1.082179,-62.103271,-6.378174,-7.385254,41.162109
53040,-2.030283,0.900220,-1.489193,-87.890625,-17.059326,20.416260,41.171875
53080,3.888184,1.527501,-2.312799,-89.233398,-40.008545,20.019531,41.177734
53120,13.814544,3.696647,-1.939303,-82.214355,-44.372559,-8.056641,41.179688
53160,21.868639,5.363012,-2.829947,-48.736572,-69.915771,3.570557,41.181641
53200,23.961170,5.736507,0.009577,-158.966064,7.873535,60.943604,41.162109
53240,18.157625,5.511452,0.459687,-177.734375,71.380615,71.380615,41.183594
53280,7.996634,3.284845,-1.599327,-124.389648,118.103027,41.961670,41.195312
53320,0.186748,-0.593762,-2.413355,-3.845215,79.528809,56.427002,41.179688
53360,-2.260126,-5.128380,-4.922479,235.534668,-98.449707,125.000000,41.187500
53400,-2.710236,-5.382165,-3.002329,135.223389,-20.996094,58.898926,41.197266
53440,2.322376,-4.070143,0.497994,-107.940674,-109.008789,-188.537598,41.179688
53480,20.709845,2.542642,-3.902549,106.262207,-74.981689,-60.913086,41.175781
53520,25.570074,2.308010,-0.311246,110.260010,41.198730,-17.486572,41.205078
53560,21.964407,2.303222,-3.409343,135.345459,-34.881592,-32.775879,41.156250
53600,13.464991,5.353435,-0.866701,176.696777,23.712158,-88.775635,41.191406
53640,5.803545,3.624821,2.035071,55.908203,80.169678,-61.370850,41.179688
53680,-3.442862,2.892196,0.344765,-21.453857,11.596680,-22.430420,41.197266
53720,-3.988740,1.345541,-1.211466,-76.019287,7.263184,14.739990,41.171875
53760,1.264138,1.714248,-1.211466,-94.604492,0.366211,26.855469,41.191406
53800,10.678140,4.228160,-2.231396,-105.224609,-48.950195,21.575928,41.171875
53840,19.407398,3.845088,-1.944092,-68.450928,-59.600830,-0.885010,41.185547
53880,22.606052,4.778827,0.440533,-130.340576,-40.039062,33.813477,41.169922
53920,20.915747,4.165911,1.728614,-184.967041,44.067383,82.000732,41.195312
53960,11.559206,3.921702,-1.240196,-132.659912,49.346924,48.156738,41.205078
54000,3.543418,1.517924,-2.906561,-28.350830,45.501709,9.643555,41.185547
54040,-2.236184,-3.873818,-3.806781,133.575439,7.965088,66.558838,41.166016
54080,-4.386178,-5.228937,-2.355895,129.730225,-40.802002,50.354004,41.175781
54120,-0.483629,-3.825934,0.694318,-21.636963,-108.673096,-46.569824,41.185547
54160,16.845604,-0.770933,-3.706224,70.220947,20.660400,-57.189941,41.181641
54200,24.502260,1.503559,-2.284068,146.026611,-39.703369,-46.417236,41.189453
54240,23.788788,1.460463,-2.806004,125.762939,-7.843018,-27.801514,41.195312
54280,16.160862,5.233725,-1.493982,183.471680,-0.122070,-94.451904,41.181641
54320,8.667010,3.476381,1.029507,93.444824,91.735840,-59.417725,41.181641
54360,-0.905008,2.571373,0.426168,-6.042480,40.252686,-28.869629,41.185547
54400,-5.224148,2.173935,-0.804452,-57.464600,-21.331787,3.387451,41.179688
54440,-0.809240,1.489193,-0.814029,-77.575684,-1.251221,25.024414,41.175781
54480,4.759673,2.221819,-1.814805,-104.431152,-35.186768,33.050537,41.181641
54520,15.246277,3.155558,-2.432509,-64.788818,-54.351807,14.007568,41.193359
54560,22.285229,4.659117,-2.178724,-91.430664,-68.511963,25.695801,41.156250
54600,22.984337,5.161899,0.464475,-143.035889,8.209229,58.441162,41.185547
54640,17.525557,5.305551,0.967257,-184.265137,82.092285,68.450928,41.197266
54680,8.044518,3.289633,-2.011129,-100.921631,70.526123,22.705078,41.177734
54720,0.818817,-1.278504,-3.050213,2.380371,63.018799,42.205811,41.164062
54760,-2.671929,-5.334281,-4.534618,208.007812,-61.065674,160.736084,41.160156
54800,-3.567361,-4.855441,-2.317587,119.384766,-49.774170,49.499512,41.191406
54840,2.858677,-2.829947,1.216254,-73.211670,-85.327148,-257.019043,41.171875
54880,24.066515,1.886631,-4.630386,152.038574,-72.845459,-64.788818,41.181641
54920,25.507826,2.552219,-0.632069,92.285156,56.243896,-13.793945,41.201172
54960,20.360291,2.561796,-2.806004,163.818359,-10.498047,-35.552979,41.183594
55000,11.578360,4.625597,-0.670376,158.752441,25.421143,-64.605713,41.166016
55040,3.998317,3.955221,1.709460,64.575195,63.140869,-52.551270,41.166016
55080,-4.122815,3.418920,-0.086191,-30.548096,0.976562,-28.839111,41.185547
55120,-3.308787,1.498770,-1.838747,-82.092285,-0.946045,20.996094,41.197266
55160,2.628834,2.044648,-2.073379,-100.341797,-24.963379,36.529541,41.173828
55200,14.259866,4.788404,-1.517924,-111.663818,-35.308838,3.509521,41.201172
55240,20.733788,5.142745,-1.900996,-93.017578,-37.048340,11.383057,41.205078
55280,23.515848,5.803545,0.282516,-154.754639,-26.702881,52.764893,41.185547
55320,18.962078,5.137957,1.144428,-223.358154,76.416016,80.749512,41.189453
55360,8.580819,3.150769,-2.542642,-145.294189,41.625977,45.654297,41.179688
55400,0.670376,0.129287,-2.892196,0.152588,36.285400,34.301758,41.201172
55440,-2.422932,-4.644751,-3.782839,172.851562,-27.801514,137.847900,41.183594
55480,-3.385401,-5.080496,-2.944868,146.850586,-37.292480,94.970703,41.205078
55520,0.177171,-3.730166,0.646434,-66.894531,-146.484375,-125.335693,41.179688
55560,18.741812,0.067038,-3.830723,89.843750,38.604736,-170.989990,41.167969
55600,26.024973,1.675941,-2.212242,118.377686,-15.960693,-20.202637,41.171875
55640,23.573311,1.666364,-2.987964,127.380371,39.154053,-15.747070,41.191406
55680,14.365211,6.143522,-1.019930,174.896240,16.632080,-90.728760,41.208984
55720,7.086837,4.017470,2.111686,62.622070,96.923828,-62.744141,41.191406
55760,-1.857901,3.179500,0.416591,-12.512207,28.991699,-23.895264,41.197266
55800,-5.114015,1.498770,-1.584962,-70.434570,-7.843018,11.688232,41.173828
55840,-0.143652,1.101333,-1.177947,-80.444336,-6.988525,27.221680,41.187500
55880,7.714118,2.528277,-2.059013,-91.979980,-62.042236,35.156250,41.205078
55920,17.209522,3.543418,-2.169147,-46.905518,-65.948486,2.075195,41.208984
55960,22.093693,6.411672,-0.574608,-127.441406,-62.011719,34.210205,41.214844
56000,22.735340,5.042189,1.158794,-169.494629,10.101318,67.199707,41.208984
56040,14.954184,4.352659,-0.541090,-160.552979,53.955078,55.114746,41.193359
56080,5.880159,2.786851,-2.662352,-63.049316,81.878662,5.462646,41.199219
56120,-0.785298,-2.456451,-3.457227,23.376465,43.090820,71.197510,41.199219
56160,-3.342306,-4.903325,-4.098873,189.147949,-51.116943,138.885498,41.193359
56200,-3.615245,-3.184288,-0.119710,85.571289,-52.947998,0.122070,41.208984
56240,5.597643,-2.944868,0.062249,-65.582275,-104.461670,-174.591064,41.191406
56280,23.113623,2.140416,-5.741296,170.074463,-98.297119,-55.267334,41.195312
56320,26.522966,1.675941,-1.436521,105.163574,46.600342,-18.798828,41.189453
56360,20.537462,3.169923,-3.078943,134.460449,-18.981934,-38.787842,41.189453
56400,11.343728,4.687847,-0.277727,145.751953,28.656006,-77.514648,41.205078
56440,3.696647,3.394978,1.594538,52.337646,77.331543,-61.279297,41.191406
56480,-4.381389,2.456451,-0.574608,-28.259277,-5.035400,-19.989014,41.185547
56520,-2.719813,0.972046,-1.426944,-82.092285,9.826660,27.191162,41.195312
56560,3.734955,2.111686,-1.958457,-85.906982,-18.310547,29.296875,41.185547
56600,14.322115,3.639187,-1.824382,-88.623047,-45.867920,12.756348,41.197266
56640,20.757729,6.330269,-2.308010,-83.679199,-31.097412,-2.624512,41.189453
56680,23.745693,5.679047,-0.335188,-146.636963,-47.149658,43.060303,41.191406
56720,18.756176,3.988740,1.082179,-192.291260,100.006104,84.411621,41.195312
56760,8.087613,3.462016,-1.608904,-161.590576,139.495850,51.971436,41.205078
56800,-0.057461,0.962469,-3.533842,11.474609,41.748047,39.672852,41.195312
56840,-2.106898,-4.539406,-4.333505,221.099854,-111.328125,145.507812,41.191406
56880,-2.628834,-5.951985,-2.877831,162.811279,-6.622314,91.705322,41.208984
56920,-0.004788,-3.462016,0.976834,-96.954346,-108.184814,-150.848389,41.171875
56960,18.569427,0.833182,-3.701436,92.010498,-28.594971,-155.395508,41.210938
57000,26.599581,3.902549,-0.665588,110.534668,-17.303467,-20.202637,41.195312
57040,23.664289,1.412579,-2.662352,115.783691,72.143555,-12.664795,41.193359
57080,13.464991,6.191406,-1.484405,183.746338,-26.336670,-93.109131,41.179688
57120,6.473921,3.907337,2.365471,63.079834,81.970215,-62.622070,41.208984
57160,-2.518700,2.566584,0.354342,-3.662109,-8.209229,-30.944824,41.173828
57200,-4.108450,1.192312,-1.206678,-74.157715,13.793945,20.294189,41.195312
57240,0.909797,2.173935,-1.651999,-94.970703,7.904053,36.499023,41.185547
57280,10.285490,4.496311,-1.690306,-102.874756,-71.380615,27.618408,41.185547
57320,17.999609,5.746084,-1.527501,-98.999023,-12.603760,18.951416,41.208984
57360,22.342690,6.263232,-0.737414,-165.954590,-98.999023,40.496826,41.197266
57400,20.590134,3.687071,0.943315,-183.654785,18.737793,89.782715,41.189453
57440,10.831368,3.485958,-1.968034,-116.943359,53.955078,49.530029,41.191406
57480,3.418920,2.375048,-2.973598,-12.359619,50.079346,-7.232666,41.208984
57520,-1.101333,-3.596091,-3.165135,96.649170,4.180908,35.827637,41.191406
57560,-3.428497,-6.809110,-2.020706,84.930420,-26.580811,36.010742,41.179688
57600,0.497994,-5.118803,-0.430956,21.545410,-86.395264,-26.824951,41.195312
57640,14.379576,0.033519,-4.194642,78.491211,-16.937256,3.112793,41.199219
57680,22.625206,2.207454,-2.839523,151.611328,-65.155029,-49.407959,41.191406
57720,24.042574,1.498770,-2.652776,114.257812,3.784180,-28.869629,41.195312
57760,16.697163,5.391742,-1.446098,156.860352,21.209717,-89.233398,41.210938
57800,9.050082,3.624821,0.622492,96.130371,43.823242,-68.725586,41.187500
57840,0.943315,2.834735,0.512359,-3.570557,3.204346,-42.053223,41.189453
57880,-3.801992,1.867477,-1.431733,-72.265625,-16.601562,7.751465,41.205078
57920,0.526724,1.383849,-1.197101,-102.264404,22.766113,44.036865,41.201172
57960,9.615114,2.398990,-2.485181,-80.749512,-6.378174,29.724121,41.191406
58000,17.688362,3.648763,-3.050213,-100.158691,-50.140381,22.430420,41.185547
58040,20.757729,5.990293,-1.168370,-115.753174,-49.377441,40.832520,41.203125
58080,20.465635,4.271256,0.268151,-159.545898,43.334961,74.768066,41.181641
58120,12.119449,3.284845,-2.140416,-111.297607,17.730713,48.065186,41.183594
58160,4.620809,0.627281,-3.102885,-38.299561,60.882568,21.362305,41.193359
58200,-0.919373,-4.343082,-3.998317,63.171387,40.893555,23.925781,41.185547
58240,-4.127604,-5.080496,-2.489970,84.045410,13.793945,17.639160,41.169922
58280,-1.197101,-2.810793,0.359130,59.906006,-42.449951,-18.981934,41.191406
58320,9.883265,-0.588974,-1.723825,62.377930,-13.305664,-0.335693,41.185547
58360,21.437681,0.517148,-3.462016,134.033203,-103.210449,-23.223877,41.193359
58400,25.349808,-1.493982,-1.781286,109.771729,21.118164,-9.613037,41.189453
58440,19.531897,3.744531,-1.790863,183.441162,-16.357422,-91.339111,41.201172
58480,11.358093,3.979163,0.670376,139.862061,76.812744,-92.742920,41.173828
58520,1.628057,3.107674,0.732626,36.468506,38.269043,-60.180664,41.181641
58560,-4.204218,2.255338,-0.694318,-44.372559,-2.593994,-11.413574,41.156250
58600,-0.699107,1.599327,-1.422156,-81.695557,-5.950928,22.644043,41.185547
58640,5.468357,2.159570,-1.977611,-97.656250,-33.813477,27.923584,41.201172
58680,14.944607,3.715801,-1.608904,-76.507568,-38.909912,8.941650,41.193359
58720,21.049822,6.291962,-1.599327,-115.386963,-51.696777,15.350342,41.214844
58760,22.060175,5.147533,-0.215478,-158.905029,-17.272949,56.762695,41.169922
58800,16.122555,4.692636,0.521936,-183.929443,81.573486,63.873291,41.175781
58840,6.842628,3.280056,-2.552219,-126.464844,85.510254,25.634766,41.175781
58880,0.311246,-1.920150,-4.137180,43.273926,14.404297,55.572510,41.189453
58920,-2.217031,-6.167464,-4.285621,204.864502,-32.623291,165.313721,41.177734
58960,-3.557784,-4.074931,-1.221043,64.880371,-30.181885,36.590576,41.173828
59000,3.275268,-2.935291,0.627281,-70.953369,-110.534668,-190.551758,41.164062
59040,22.414516,1.369483,-5.683835,139.221191,-67.962646,-96.160889,41.183594
59080,25.828648,2.681506,-0.632069,107.360840,51.330566,-13.244629,41.181641
59120,20.954054,2.403779,-3.869030,165.924072,-73.913574,-34.881592,41.191406
59160,12.042834,4.893748,-0.521936,162.322998,47.790527,-71.960449,41.197266
59200,4.821922,3.792415,1.632846,60.485840,44.647217,-53.039551,41.185547
59240,-2.557007,3.131616,-0.335188,-13.885498,5.645752,-21.423340,41.181641
59280,-3.414132,1.273715,-0.981623,-84.411621,19.439697,20.782471,41.175781
59320,1.345541,2.106898,-1.532289,-99.060059,11.047363,34.210205,41.189453
59360,11.492168,4.003105,-1.800440,-101.379395,-35.125732,23.162842,41.185547
59400,19.589357,4.903325,-2.111686,-95.825195,-54.962158,11.627197,41.185547
59440,23.463177,5.928043,-0.258574,-139.495850,-47.119141,36.132812,41.191406
59480,20.575769,4.635174,1.029507,-209.655762,82.977295,81.939697,41.205078
59520,10.213664,3.299210,-2.231396,-166.839600,66.192627,56.243896,41.205078
59560,1.968034,1.733402,-2.561796,-36.682129,49.224854,18.066406,41.171875
59600,-1.470040,-4.237737,-4.094085,242.950439,-66.864014,125.976562,41.191406
59640,-3.136404,-6.564901,-2.791639,151.367188,-20.080566,116.363525,41.181641
59680,-0.632069,-4.505888,0.545878,-105.316162,-151.428223,-98.693848,41.193359
59720,16.596605,-0.737414,-3.241749,69.488525,45.745850,-168.701172,41.210938
59760,25.182213,2.212242,-2.801216,120.819092,-46.539307,-28.533936,41.199219
59800,24.018631,0.679953,-3.284845,102.661133,3.326416,-4.333496,41.212891
59840,14.681245,5.104438,-1.517924,177.612305,6.561279,-87.463379,41.203125
59880,6.895301,3.586514,1.307234,78.460693,70.800781,-67.260742,41.195312
59920,-1.848324,3.112462,0.660800,-10.192871,31.433105,-34.545898,41.199219
59960,-4.568137,1.584962,-1.134852,-75.469971,10.040283,9.918213,41.220703
60000,0.407014,1.647211,-1.149217,-83.557129,4.913330,21.514893,41.199219
60040,8.269572,3.208230,-1.517924,-110.931396,-35.552979,32.257080,41.195312
60080,17.817650,3.854665,-1.786075,-81.665039,-33.599854,3.784180,41.199219
60120,22.864626,5.583278,-0.114922,-148.956299,-73.699951,27.252197,41.191406
60160,22.309172,3.639187,0.957681,-177.429199,19.683838,77.392578,41.195312
60200,13.364434,3.059790,-1.632846,-128.662109,33.905029,53.771973,41.199219
60240,5.003881,2.408567,-2.279280,-70.831299,87.432861,8.544922,41.187500
60280,-1.470040,-2.638410,-3.045424,54.016113,19.866943,90.484619,41.181641
60320,-3.347094,-5.947197,-3.394978,182.922363,-36.499023,155.609131,41.195312
60360,-2.925714,-4.323928,-1.086968,30.242920,-99.304199,-61.706543,41.195312
60400,12.248735,-2.595315,-2.489970,45.288086,23.620605,-246.063232,41.197266
60440,25.335442,2.375048,-3.303998,159.240723,-102.813721,-40.802002,41.201172
60480,25.522190,1.374272,-1.829170,96.588135,61.737061,0.091553,41.220703
60520,16.074671,5.008670,-2.030283,175.903320,-19.683838,-73.669434,41.189453
60560,8.580819,3.734955,0.957681,101.531982,57.037354,-66.497803,41.167969
60600,0.268151,3.260903,0.713472,22.155762,44.342041,-51.666260,41.201172
60640,-5.592855,2.063802,-0.871489,-68.145752,4.577637,5.279541,41.197266
60680,-1.192312,1.474828,-0.617704,-84.655762,10.803223,23.681641,41.212891
60720,4.874595,2.312799,-1.570596,-98.449707,-17.364502,29.602051,41.201172
60760,14.652514,3.203442,-2.351106,-68.145752,-61.706543,9.674072,41.218750
60800,22.122423,5.425261,-1.695095,-88.439941,-91.033936,10.040283,41.179688
60840,24.277205,5.659893,1.637634,-193.359375,43.731689,49.774170,41.201172
60880,17.812860,4.443638,0.565032,-179.016113,90.087891,59.753418,41.175781
60920,7.560889,3.035848,-2.197877,-122.924805,59.417725,30.548096,41.191406
60960,0.359130,-0.622492,-2.513912,10.406494,61.767578,62.133789,41.226562
61000,-2.284068,-4.577713,-3.778050,181.823730,-92.498779,160.003662,41.195312
61040,-3.059790,-5.372589,-3.667917,191.406250,-46.539307,46.203613,41.181641
61080,2.217031,-4.299986,0.603339,-118.133545,-108.612061,-229.217529,41.201172
61120,21.997925,1.704672,-4.462792,140.930176,-41.687012,-59.844971,41.199219
61160,25.752033,3.323152,-0.517148,108.520508,21.484375,-18.371582,41.189453
61200,21.385010,2.475605,-2.877831,119.384766,-22.460938,-25.451660,41.191406
61240,12.507310,5.252879,-0.584185,176.727295,27.740479,-84.777832,41.210938
61280,5.166687,3.983952,1.781286,31.829834,87.921143,-55.145264,41.179688
61320,-3.974375,2.671929,-0.440533,-33.813477,-4.791260,-24.200439,41.195312
61360,-4.185065,1.024718,-1.130063,-77.148438,16.082764,16.967773,41.191406
61400,1.900996,2.049437,-1.814805,-91.400146,-6.439209,29.693604,41.201172
61440,12.416330,3.256114,-1.810017,-61.950684,-50.903320,9.552002,41.199219
61480,19.685127,5.228937,-1.752556,-65.551758,-41.290283,3.997803,41.205078
61520,23.530214,6.157887,0.416591,-165.496826,-38.665771,49.102783,41.189453
61560,20.647596,4.304775,0.641646,-173.919678,27.954102,78.674316,41.187500
61600,11.003751,3.567361,-1.551443,-141.235352,46.661377,53.344727,41.185547
61640,3.452439,1.561020,-2.595315,-28.869629,59.539795,12.237549,41.171875
61680,-1.575385,-3.538630,-3.394978,104.461670,22.796631,108.245850,41.193359
61720,-3.543418,-5.066131,-2.825158,169.921875,-39.367676,151.275635,41.185547
61760,-3.122039,-3.347094,0.124498,6.317139,-110.046387,-48.522949,41.181641
61800,9.844957,-2.360683,-1.910573,-12.023926,25.054932,-200.775146,41.191406
61840,23.956383,2.801216,-3.624821,174.591064,-92.224121,-67.901611,41.181641
61880,25.464729,0.943315,-0.972046,100.860596,35.278320,6.134033,41.171875
61920,17.798496,4.836287,-1.728614,186.218262,-36.926270,-72.540283,41.201172
61960,9.935937,4.496311,1.096544,126.251221,56.091309,-77.758789,41.205078
62000,2.006341,3.165135,0.957681,27.740479,38.940430,-43.884277,41.177734
62040,-4.486734,2.360683,-0.924162,-53.344727,2.777100,-5.737305,41.207031
62080,-2.025495,1.920150,-1.436521,-94.512939,-5.218506,21.575928,41.197266
62120,5.822699,3.055001,-2.437297,-120.178223,-26.824951,34.912109,41.185547
62160,17.199945,3.136404,-2.106898,-66.253662,-35.461426,-1.861572,41.210938
62200,20.590134,5.693412,-1.680730,-66.925049,-85.144043,10.986328,41.205078
62240,22.390574,5.430049,1.154005,-160.034180,2.288818,65.734863,41.156250
62280,16.242264,4.414908,-0.081403,-192.749023,51.940918,77.178955,41.214844
62320,7.067683,3.462016,-2.537854,-86.608887,43.884277,24.353027,41.193359
62360,0.761356,-0.603339,-2.509123,-6.164551,62.530518,59.356689,41.195312
62400,-2.384625,-5.377377,-3.801992,209.960938,-56.793213,207.794189,41.173828
62440,-4.266468,-4.764462,-2.580950,158.477783,-45.989990,95.092773,41.181641
62480,0.732626,-2.695871,0.426168,-99.914551,-76.782227,-204.437256,41.189453
62520,21.997925,0.402226,-5.856217,151.031494,-71.868896,-211.242676,41.208984
62560,27.724855,2.686294,-0.574608,122.436523,69.183350,-6.072998,41.199219
62600,21.169531,3.610456,-3.677494,135.009766,-61.523438,-24.047852,41.201172
62640,10.726024,6.239290,-0.397437,148.406982,18.859863,-71.746826,41.185547
62680,4.141969,3.533842,2.059013,38.635254,60.363770,-48.614502,41.187500
62720,-2.475605,3.323152,-0.670376,-30.761719,2.075195,-7.659912,41.183594
62760,-2.954445,1.551443,-2.308010,-96.160889,7.171631,20.782471,41.185547
62800,3.778050,1.149217,-2.815581,-124.481201,-11.718750,42.114258,41.199219
62840,15.514427,4.261679,-1.316811,-66.009521,-20.660400,-6.530762,41.189453
62880,19.986795,6.469133,-2.030283,-71.289062,-62.713623,9.918213,41.203125
62920,22.515072,5.846641,-0.608127,-146.514893,-30.395508,50.994873,41.195312
62960,17.832014,4.860229,0.134075,-189.056396,76.477051,65.948486,41.189453
63000,7.991845,3.026271,-2.403779,-123.229980,59.295654,36.346436,41.191406
63040,0.857124,-0.158017,-2.566584,28.930664,51.116943,46.783447,41.191406
63080,-1.968034,-4.821922,-4.079720,258.605957,-105.133057,152.984619,41.189453
63120,-2.829947,-5.104438,-1.599327,89.355469,44.311523,129.516602,41.191406
63160,-0.368707,-2.920926,0.775721,-125.091553,-92.315674,-156.097412,41.191406
63200,19.445705,0.167594,-4.879383,120.025635,-7.904053,-197.540283,41.208984
63240,27.035326,3.031059,-1.747767,103.820801,4.486084,-0.305176,41.201172
63280,22.160730,2.518700,-2.628834,130.889893,75.836182,-5.798340,41.210938
63320,11.032481,6.919243,-1.939303,162.231445,-67.626953,-79.986572,41.199219
63360,5.396531,3.485958,2.542642,32.409668,101.196289,-43.029785,41.208984
63400,-2.466028,2.839523,-0.023942,-16.052246,-0.427246,-12.115479,41.201172
63440,-3.912126,1.853112,-1.623269,-73.760986,-6.072998,16.082764,41.207031
63480,1.077391,1.446098,-1.781286,-106.475830,-1.922607,39.886475,41.181641
63520,12.038046,3.840300,-2.662352,-90.576172,-76.751709,16.784668,41.187500
63560,21.212627,5.645528,-2.274492,-60.791016,-18.463135,8.514404,41.199219
63600,23.238121,6.138733,-1.096544,-163.177490,-56.976318,42.755127,41.189453
63640,20.159178,4.616021,0.684742,-181.732178,68.298340,66.436768,41.205078
63680,10.333375,3.763685,-1.493982,-131.896973,67.565918,45.288086,41.181641
63720,1.805228,1.230620,-2.978387,-19.775391,48.400879,33.813477,41.214844
63760,-3.064578,-4.084508,-4.424485,115.325928,-25.085449,114.013672,41.181641
63800,-4.031836,-5.305551,-2.164358,110.168457,-24.841309,104.675293,41.181641
63840,-0.210690,-2.772485,0.665588,-41.625977,-90.515137,-96.221924,41.191406
63880,17.334021,-0.823605,-4.596867,85.510254,26.855469,-125.183105,41.201172
63920,24.353819,2.461239,-2.341529,155.090332,-32.989502,-37.200928,41.191406
63960,22.946030,1.661576,-2.255338,109.832764,31.402588,-11.596680,41.193359
64000,14.935030,5.841852,-1.422156,164.489746,23.620605,-82.275391,41.183594
64040,7.886500,4.118027,2.030283,73.364258,123.321533,-64.361572,41.166016
64080,-1.331176,2.461239,0.028730,6.622314,29.602051,-29.327393,41.191406
64120,-4.611232,1.479617,-1.168370,-56.793213,-4.913330,15.258789,41.171875
64160,0.905008,1.513135,-1.493982,-74.401855,-15.838623,31.341553,41.181641
64200,10.893618,4.079720,-1.742979,-101.379395,-58.074951,14.739990,41.179688
64240,18.071434,7.043741,-1.130063,-103.485107,-28.503418,9.033203,41.191406
64280,22.050598,7.278373,-0.665588,-159.118652,-69.335938,25.390625,41.187500
64320,20.456059,5.343858,1.268927,-195.495605,54.138184,65.551758,41.181641
64360,11.142614,4.434062,-0.952892,-206.146240,109.863281,51.879883,41.162109
64400,2.494758,1.297657,-3.485958,-36.621094,58.624268,33.935547,41.199219
64440,-1.872266,-4.596867,-5.315128,238.189697,-88.836670,134.552002,41.187500
64480,-3.380613,-5.904101,-2.662352,135.467529,-11.413574,102.874756,41.185547
64520,-0.684742,-2.954445,1.201889,-136.718750,-128.295898,-131.072998,41.201172
64560,19.608511,1.063026,-3.380613,26.611328,24.932861,-122.283936,41.181641
64600,25.258827,3.907337,-2.815581,124.267578,-56.854248,-19.317627,41.210938
64640,22.979548,2.475605,-2.106898,128.540039,99.121094,-22.674561,41.199219
64680,12.708423,6.454768,-1.900996,156.921387,-50.018311,-85.601807,41.195312
64720,6.397307,4.367024,2.279280,86.090088,71.044922,-68.298340,41.185547
64760,-0.881066,2.552219,0.555455,-0.946045,-5.432129,-28.320312,41.175781
64800,-3.605668,0.723049,-0.852336,-69.366455,15.228271,21.972656,41.203125
64840,-0.258574,1.886631,-0.967257,-91.918945,15.106201,31.524658,41.181641
64880,7.785944,5.075707,-1.738190,-140.075684,-47.027588,42.724609,41.167969
64920,18.540697,5.142745,-2.145205,-96.282959,-41.778564,16.876221,41.183594
64960,22.883780,5.492299,-0.670376,-155.639648,-83.251953,28.625488,41.181641
65000,22.021868,4.213795,1.115698,-202.911377,49.316406,73.364258,41.181641
65040,12.904747,3.974375,-1.034295,-160.644531,62.927246,49.072266,41.201172
65080,4.285621,2.394202,-2.715025,-53.070068,58.807373,-2.410889,41.199219
65120,-1.225831,-3.701436,-3.481169,117.828369,0.518799,82.641602,41.193359
65160,-3.792415,-6.028600,-2.758120,129.730225,-14.587402,100.036621,41.207031
65200,-2.006341,-4.103662,-1.005565,0.640869,-155.761719,-59.417725,41.177734
65240,14.365211,-1.766921,-2.231396,34.301758,44.433594,-132.995605,41.164062
