MS,Accel X (m/s²),Accel Y (m/s²),Accel Z (m/s²),Gyro X (°/s),Gyro Y (°/s),Gyro Z (°/s),Temp (°C)
30000,-3.821146,4.352659,-0.392649,-99.334717,-122.650146,-48.553467,32.503906
30040,-4.209007,21.064186,0.617704,-66.680908,-68.786621,-10.223389,32.500000
30080,1.719037,22.342690,-0.732626,20.416260,-35.369873,6.469727,32.501953
30120,2.097321,17.257406,-2.470816,23.956299,-109.008789,-5.981445,32.503906
30160,2.906561,12.703634,-2.944868,50.476074,-87.585449,5.371094,32.486328
30200,3.950433,7.436390,-0.493206,58.074951,-7.781982,18.829346,32.501953
30240,1.508347,3.318364,5.066131,59.051514,-77.423096,19.256592,32.494141
30280,1.350330,-0.344765,5.214571,48.980713,13.946533,-34.912109,32.480469
30320,2.274492,-0.248997,1.963245,33.386230,96.557617,-70.220947,32.507812
30360,-0.967257,11.583148,3.691859,-142.852783,-47.576904,-36.224365,32.507812
30400,0.105345,22.577322,0.014365,-42.968750,91.705322,-7.171631,32.501953
30440,0.387861,20.398598,-3.758897,8.026123,108.245850,-13.885498,32.519531
30480,0.608127,15.514427,-4.017470,7.171631,97.442627,16.387939,32.503906
30520,-0.143652,10.477027,-2.312799,39.398193,73.425293,36.895752,32.519531
30560,-2.681506,5.372589,-1.297657,57.159424,-70.404053,19.805908,32.507812
30600,-6.143522,1.896208,0.397437,18.524170,-73.181152,-22.613525,32.503906
30640,-5.813122,-0.383072,0.608127,-4.577637,23.559570,18.066406,32.494141
30680,-1.403002,2.154782,0.608127,-55.725098,-67.565918,-61.492920,32.492188
30720,-2.695871,14.781801,4.237737,-102.661133,-142.822266,42.022705,32.517578
30760,-0.316035,24.684219,-0.488417,-18.890381,-5.157471,-8.026123,32.525391
30800,0.497994,20.231005,-4.319140,15.533447,-90.850830,-17.944336,32.513672
30840,2.116474,13.972561,-3.524265,24.932861,-103.790283,-8.239746,32.513672
30880,3.974375,8.422802,-1.125275,41.198730,-49.591064,-16.052246,32.525391
30920,2.901772,3.356671,2.628834,86.578369,-56.182861,5.462646,32.509766
30960,1.010353,-0.105345,6.459556,74.401855,-19.775391,-45.318604,32.501953
31000,1.790863,-0.823605,4.074931,29.144287,128.967285,-44.555664,32.503906
31040,-1.575385,3.136404,2.920926,-92.926025,-146.514893,-3.997803,32.517578
31080,-6.191406,19.120094,0.780510,-122.772217,79.437256,-1.434326,32.509766
31120,1.441309,24.463953,-1.187524,11.138916,110.626221,7.934570,32.505859
31160,3.160346,18.042704,-3.318364,-5.401611,117.004395,25.970459,32.523438
31200,1.417367,13.498509,-3.045424,25.177002,85.662842,43.945312,32.509766
31240,-1.924938,7.675811,-1.915361,61.187744,-47.088623,35.675049,32.511719
31280,-6.900089,2.729390,0.780510,21.972656,-61.218262,-38.818359,32.529297
31320,-6.995857,-0.646434,0.885855,20.141602,14.709473,19.622803,32.503906
31360,-2.422932,-0.785298,-0.311246,10.284424,40.496826,26.000977,32.496094
31400,-1.450886,5.501875,1.920150,-101.928711,-175.872803,12.542725,32.505859
31440,-2.533065,23.645136,1.905785,-77.301025,-2.807617,-7.934570,32.558594
31480,0.086191,22.941240,-2.849100,9.338379,-44.982910,-19.195557,32.556641
31520,1.618480,16.021997,-5.726931,39.184570,-125.549316,-3.417969,32.546875
31560,3.275268,10.893618,-3.208230,48.431396,-98.937988,9.979248,32.535156
31600,3.394978,5.765238,0.301669,67.901611,-72.418213,16.113281,32.529297
31640,1.158794,2.130840,5.602432,111.358643,-128.479004,-15.350342,32.566406
31680,1.101333,-0.502782,6.023811,20.935059,33.172607,-36.529541,32.558594
31720,0.292093,1.489193,3.299210,-44.982910,-7.659912,-0.518799,32.542969
31760,-2.901772,18.459295,2.059013,-133.239746,9.063721,-17.059326,32.527344
31800,1.795651,25.258827,-0.785298,23.223877,111.328125,3.662109,32.550781
31840,3.572149,17.635689,-3.462016,-6.042480,119.232178,7.965088,32.550781
31880,2.820370,12.220005,-2.858677,17.425537,83.618164,34.454346,32.568359
31920,-0.656011,7.264008,-1.292869,50.170898,-2.716064,33.447266,32.552734
31960,-4.893748,3.409343,-0.416591,34.973145,-74.676514,-69.122314,32.568359
32000,-8.078036,-0.134075,1.058237,-20.202637,-31.250000,-12.207031,32.566406
32040,-4.999093,-1.077391,-0.622492,-2.563477,-50.231934,27.435303,32.578125
32080,-2.030283,6.469133,0.656011,-55.541992,-178.161621,15.319824,32.548828
32120,-0.440533,24.607605,2.676718,-67.779541,11.352539,-38.238525,32.566406
32160,2.336741,22.917299,-3.251326,24.261475,-77.301025,-20.996094,32.562500
32200,2.604892,15.844827,-6.090849,31.127930,-128.417969,-3.387451,32.556641
32240,3.960010,10.951078,-3.150769,50.933838,-108.245850,10.009766,32.558594
32280,4.113238,5.477933,-0.057461,93.139648,-64.575195,24.658203,32.566406
32320,1.230620,2.542642,5.104438,94.543457,-151.062012,-13.854980,32.539062
32360,0.952892,0.177171,5.669470,18.218994,11.932373,-36.254883,32.548828
32400,0.593762,1.666364,2.691083,-20.202637,-23.376465,-25.604248,32.576172
32440,-7.924808,18.181568,3.002329,-156.982422,-60.760498,-42.877197,32.578125
32480,-0.746991,24.765623,-1.924938,19.561768,64.910889,-49.591064,32.562500
32520,3.102885,17.855957,-3.083732,-23.773193,58.624268,0.091553,32.554688
32560,2.226608,13.939042,-2.197877,-2.166748,60.729980,14.984131,32.562500
32600,-0.292093,9.615114,-1.527501,42.663574,36.590576,34.759521,32.568359
32640,-2.729390,4.687847,-1.331176,56.762695,-23.162842,-13.793945,32.570312
32680,-6.689400,0.196325,1.177947,-24.383545,-85.388184,61.370850,32.562500
32720,-5.635951,-1.120486,0.933739,0.976562,-39.794922,29.815674,32.556641
32760,-2.063802,1.800440,0.852336,-25.238037,-137.634277,2.075195,32.570312
32800,-3.423708,15.380352,2.801216,-85.784912,-116.302490,-29.174805,32.580078
32840,-0.636858,24.626759,-1.685518,-7.019043,-41.717529,-11.199951,32.574219
32880,-0.081403,19.302053,-4.936844,36.743164,-105.895996,6.835938,32.570312
32920,0.981623,14.441825,-4.558560,53.741455,-111.450195,28.076172,32.572266
32960,2.801216,9.361329,-2.427721,63.659668,-68.756104,56.518555,32.562500
33000,1.963245,5.683835,1.417367,31.982422,-72.601318,27.954102,32.580078
33040,-0.636858,2.250550,4.869806,61.035156,-193.176270,-24.932861,32.578125
33080,0.402226,-1.604115,4.410120,20.050049,49.499512,-44.464111,32.583984
33120,-1.024718,3.897760,5.458780,-67.871094,-134.368896,-123.779297,32.552734
33160,-3.083732,20.954054,4.319140,-193.145752,117.889404,-71.868896,32.578125
33200,-0.325611,25.426422,-2.700660,2.593994,68.298340,6.958008,32.558594
33240,-0.641646,17.477673,-4.572925,-15.655518,110.717773,2.441406,32.566406
33280,-0.028730,11.884817,-2.810793,28.747559,71.655273,34.545898,32.595703
33320,-1.230620,6.349423,-0.708684,53.070068,8.697510,36.560059,32.599609
33360,-6.224925,1.110910,1.379060,37.902832,-26.275635,-8.239746,32.582031
33400,-6.497863,-0.718261,1.709460,-8.087158,-35.888672,47.515869,32.585938
33440,-3.256114,-0.359130,1.024718,-13.702393,-51.971436,-0.793457,32.601562
33480,-4.204218,8.595184,3.538630,-93.780518,-139.129639,-60.180664,32.623047
33520,-6.368577,24.238897,0.555455,-27.313232,-21.789551,-47.851562,32.626953
33560,-4.970363,21.327549,-5.487510,52.612305,-81.359863,-14.373779,32.615234
33600,-2.221819,15.950171,-5.195418,71.655273,-116.912842,3.448486,32.611328
33640,1.173159,10.299856,-2.437297,77.575684,-93.231201,64.239502,32.599609
33680,2.015918,4.572925,1.144428,99.304199,-83.831787,60.424805,32.623047
33720,-0.052672,0.842759,6.545747,81.390381,-92.559814,-23.895264,32.611328
33760,2.030283,-0.493206,5.104438,56.335449,102.050781,-0.579834,32.585938
33800,-1.474828,3.241749,5.224148,-51.025391,-129.333496,-137.573242,32.619141
33840,-8.360553,19.325996,2.734178,-216.522217,41.778564,-128.173828,32.644531
33880,-4.750096,25.641901,-3.174711,14.984131,57.739258,25.238037,32.601562
33920,-1.738190,18.042704,-4.094085,-24.505615,116.241455,12.145996,32.621094
33960,-0.804452,13.192051,-2.398990,9.277344,100.463867,67.687988,32.615234
34000,-3.150769,7.168240,-1.355118,46.325684,57.891846,110.534668,32.607422
34040,-6.607996,1.886631,0.430956,44.067383,-19.958496,55.206299,32.625000
34080,-7.455544,-0.603339,1.249773,-26.855469,-38.299561,70.312500,32.625000
34120,-3.016694,-1.101333,-0.493206,-1.586914,-18.890381,73.730469,32.621094
34160,-2.470816,2.035071,1.972822,-90.789795,-96.313477,-98.144531,32.615234
34200,-7.924808,21.475988,1.039083,-110.412598,-82.061768,-143.249512,32.617188
34240,-4.218584,25.661055,-4.012682,42.419434,-56.976318,9.979248,32.632812
34280,-1.747767,17.635689,-5.219360,59.753418,-96.160889,4.211426,32.617188
34320,1.163582,11.516110,-3.260903,46.447754,-70.159912,56.304932,32.605469
34360,1.216254,6.512228,0.837971,38.604736,-56.762695,70.922852,32.621094
34400,-0.622492,2.217031,6.215348,42.785645,-62.286377,-1.220703,32.595703
34440,1.699883,-0.828394,4.721366,30.944824,103.546143,-66.162109,32.621094
34480,0.081403,0.555455,3.174711,27.160645,0.762939,-49.621582,32.615234
34520,-5.894525,14.939818,4.376601,-226.196289,-71.197510,-113.861084,32.617188
34560,-3.711013,27.087997,-1.958457,-11.444092,119.598389,24.963379,32.615234
34600,-2.327164,19.728222,-3.835511,-46.936035,142.547607,8.239746,32.607422
34640,-1.292869,12.009315,-3.452439,2.777100,111.755371,52.886963,32.636719
34680,-3.131616,6.205771,-1.364695,40.710449,62.500000,79.742432,32.617188
34720,-6.660669,1.149217,0.579397,40.039062,15.533447,19.897461,32.619141
34760,-6.991069,-0.952892,0.086191,-20.355225,-16.296387,47.149658,32.634766
34800,-3.308787,-1.331176,-0.656011,15.136719,-30.242920,17.486572,32.626953
34840,-2.691083,4.041412,3.107674,-91.735840,-116.607666,-87.463379,32.628906
34880,-7.240066,21.868639,1.853112,-79.406738,-53.894043,-55.572510,32.625000
34920,-6.813898,22.725763,-3.974375,28.472900,-65.795898,-8.117676,32.605469
34960,-3.505111,15.959748,-6.320693,78.369141,-111.511230,13.275146,32.636719
35000,-0.536301,11.271901,-3.763685,80.749512,-83.709717,50.994873,32.625000
35040,0.742203,6.746861,0.512359,69.427490,-58.013916,50.842285,32.638672
35080,-0.320823,2.887407,5.865794,54.534912,-45.623779,-12.512207,32.628906
35120,2.298434,0.095768,4.788404,35.583496,97.076416,-46.112061,32.619141
35160,-0.134075,1.618480,4.596867,-3.631592,-23.193359,-54.534912,32.630859
35200,-4.951209,16.721106,4.663905,-236.450195,24.108887,-93.780518,32.632812
35240,-3.993528,26.436775,-2.968810,13.031006,134.613037,29.876709,32.632812
35280,-2.815581,19.919758,-5.137957,-37.139893,161.621094,12.329102,32.636719
35320,-1.752556,12.368446,-4.036624,13.000488,149.017334,63.049316,32.634766
35360,-3.940856,5.674258,-1.426944,62.316895,42.144775,93.170166,32.623047
35400,-7.666234,0.565032,0.972046,29.418945,8.209229,13.824463,32.679688
35440,-6.603208,-0.818817,0.248997,-17.913818,-47.058105,53.985596,32.660156
35480,-2.552219,-1.158794,-0.440533,15.441895,13.763428,56.823730,32.687500
35520,-1.216254,1.154005,0.383072,-32.623291,-118.194580,-47.607422,32.677734
35560,-7.943961,20.743364,3.567361,-156.005859,-81.115723,-97.198486,32.683594
35600,-5.803545,26.743233,-4.204218,44.311523,-28.045654,21.545410,32.664062
35640,-2.786851,16.342821,-7.192182,90.118408,-73.089600,10.009766,32.667969
35680,0.095768,11.070788,-4.879383,78.918457,-68.450928,63.964844,32.667969
35720,0.948104,6.507440,0.536301,57.067871,-49.835205,54.626465,32.660156
35760,-1.101333,3.069367,6.703765,52.276611,-68.084717,-7.324219,32.667969
35800,1.719037,0.081403,5.334281,25.787354,113.403320,-52.124023,32.669922
35840,-0.062249,1.417367,3.926491,1.556396,-3.356934,-57.250977,32.671875
35880,-7.560889,18.085800,4.050989,-235.412598,15.716553,-125.518799,32.677734
35920,-3.797204,26.685772,-3.883395,5.432129,122.680664,3.234863,32.671875
35960,-1.422156,19.273323,-5.683835,-44.311523,144.287109,4.119873,32.683594
36000,-1.570596,13.292608,-3.936068,-0.122070,104.949951,53.100586,32.687500
36040,-3.126827,6.636727,-2.111686,68.908691,43.853760,110.900879,32.681641
36080,-7.005434,0.814029,0.526724,27.160645,16.143799,9.429932,32.673828
36120,-7.426814,-0.928950,0.555455,-2.441406,-39.428711,47.393799,32.679688
36160,-2.930503,-1.201889,-0.253785,12.573242,11.230469,36.743164,32.658203
36200,-0.373495,2.437297,1.704672,-65.368652,-131.896973,-50.018311,32.681641
36240,-4.764462,19.311630,4.568137,-104.919434,-6.805420,-87.066650,32.677734
36280,-4.793192,23.664289,-4.194642,6.927490,-10.437012,8.148193,32.685547
36320,-3.974375,16.888699,-7.589619,57.159424,-83.618164,12.634277,32.699219
36360,-1.110910,12.392388,-5.329493,78.613281,-82.427979,28.900146,32.697266
36400,0.876278,7.829040,-1.345541,64.941406,-38.940430,54.992676,32.666016
36440,-1.106121,4.127604,4.572925,47.363281,-76.141357,18.737793,32.664062
36480,-0.028730,0.430956,6.234501,43.701172,46.630859,-32.440186,32.681641
36520,1.695095,0.521936,3.936068,5.493164,99.151611,-64.910889,32.687500
36560,-3.356671,10.807426,4.692636,-196.228027,-61.889648,-121.582031,32.675781
36600,-4.558560,26.781540,-2.590526,-72.357178,132.843018,-25.451660,32.687500
36640,-3.763685,22.821531,-5.789180,-67.779541,145.965576,-0.671387,32.695312
36680,-1.312023,14.963760,-5.276821,-19.348145,142.639160,36.804199,32.673828
36720,-2.748544,8.054094,-2.494758,52.185059,71.685791,79.071045,32.703125
36760,-5.329493,1.508347,-0.598550,44.036865,-1.739502,42.816162,32.685547
36800,-7.254431,-1.264138,0.852336,16.021729,-2.349854,21.850586,32.699219
36840,-4.496311,-1.699883,-0.143652,15.075684,-24.078369,36.743164,32.675781
36880,-1.288081,-0.972046,-0.086191,7.080078,-33.905029,13.092041,32.683594
36920,-4.735731,8.312668,4.644751,-174.591064,-118.591309,-86.975098,32.683594
36960,-8.236053,27.030537,-1.130063,-58.532715,-18.951416,-21.881104,32.683594
37000,-4.769250,21.610065,-5.995081,79.437256,-44.647217,4.699707,32.675781
37040,-2.231396,14.341269,-6.813898,93.139648,-97.595215,16.937256,32.669922
37080,0.095768,9.270349,-4.611232,90.057373,-69.366455,65.765381,32.685547
37120,0.110133,5.530606,1.307234,42.419434,-72.418213,48.248291,32.683594
37160,-1.134852,3.351882,6.631939,33.020020,-71.289062,-1.312256,32.669922
37200,1.637634,-0.143652,5.497087,16.448975,86.914062,-41.473389,32.677734
37240,-0.296881,2.944868,4.850653,-44.372559,-20.996094,-100.708008,32.691406
37280,-3.179500,18.507179,2.073379,-219.818115,112.060547,-131.866455,32.683594
37320,-4.434062,25.866955,-4.553771,-9.307861,127.563477,33.996582,32.699219
37360,-2.135628,18.277336,-6.655881,-22.857666,190.155029,18.218994,32.703125
37400,-1.537078,12.267890,-4.323928,6.011963,141.845703,65.734863,32.716797
37440,-3.347094,6.291962,-1.738190,53.466797,47.210693,112.854004,32.748047
37480,-7.163452,1.240196,0.612916,16.632080,6.042480,15.075684,32.748047
37520,-6.665458,0.105345,1.264138,-8.911133,-63.079834,57.708740,32.738281
37560,-2.724602,-0.493206,0.191536,-20.355225,-6.500244,50.567627,32.716797
37600,-4.467580,1.268927,2.044648,-80.718994,-55.694580,-44.860840,32.746094
37640,-9.074024,19.804836,0.962469,-132.568359,-54.809570,-117.767334,32.740234
37680,-1.996764,28.289886,-5.616797,47.454834,-35.125732,19.805908,32.755859
37720,-0.545878,18.703505,-5.702989,79.864502,-82.336426,19.317627,32.750000
37760,0.928950,10.491392,-4.074931,71.746826,-70.983887,57.067871,32.751953
37800,1.297657,5.233725,-0.023942,48.187256,-57.769775,54.046631,32.736328
37840,-0.972046,2.987964,5.046977,16.571045,-124.084473,-9.185791,32.728516
37880,0.847547,-0.268151,5.841852,23.254395,71.838379,-73.608398,32.734375
37920,3.969586,-0.359130,2.312799,63.262939,97.412109,-25.054932,32.736328
37960,-4.400543,14.116213,6.617573,-233.428955,-76.019287,-82.489014,32.738281
38000,-1.848324,27.308264,-2.260126,-50.659180,120.697021,4.486084,32.732422
38040,-1.924938,20.824766,-5.453991,-8.666992,154.815674,12.084961,32.748047
38080,-1.029507,13.948619,-4.390966,20.324707,130.126953,32.043457,32.746094
38120,-2.571373,8.298303,-2.130840,48.889160,69.763184,67.413330,32.755859
38160,-6.167464,3.055001,0.426168,31.860352,-48.706055,24.536133,32.728516
38200,-7.522582,0.009577,1.350330,-6.164551,-14.343262,24.963379,32.750000
38240,-3.821146,-1.350330,0.028730,12.878418,29.418945,16.876221,32.736328
38280,-0.780510,3.457227,1.661576,-67.749023,-84.838867,-67.535400,32.748047
38320,-5.832275,21.226992,2.758120,-54.321289,-57.922363,-30.059814,32.755859
38360,-5.540183,22.677879,-3.778050,-17.425537,-16.723633,-15.319824,32.748047
38400,-2.748544,17.027563,-7.273585,50.445557,-122.497559,2.563477,32.736328
38440,0.110133,12.033257,-5.128380,79.437256,-99.456787,45.562744,32.767578
38480,1.786075,6.296751,-1.292869,71.563721,-55.694580,52.490234,32.748047
38520,-0.019154,2.829947,4.903325,65.063477,-103.210449,-6.347656,32.757812
38560,1.642422,1.034295,7.206547,30.853271,74.737549,-56.152344,32.755859
38600,3.691859,0.335188,3.361459,-4.760742,124.481201,1.770020,32.744141
38640,-3.624821,7.762002,3.677494,-158.569336,-194.915771,-77.758789,32.746094
38680,-5.075707,25.708939,-1.862689,-80.902100,134.307861,-39.703369,32.753906
38720,-1.580173,23.721750,-5.185841,-46.905518,154.876709,3.906250,32.755859
38760,0.804452,16.443377,-5.070919,-1.586914,120.758057,48.309326,32.734375
38800,-2.221819,9.667787,-3.088520,41.931152,93.383789,68.847656,32.761719
38840,-7.129933,3.083732,-0.445322,28.045654,20.812988,38.757324,32.751953
38880,-9.126697,-0.646434,-0.172383,-1.190186,-27.862549,38.909912,32.755859
38920,-4.352659,-1.374272,-1.312023,19.042969,-9.643555,34.515381,32.771484
38960,0.349553,1.201889,0.536301,-19.683838,-44.769287,-5.828857,32.783203
39000,-2.849100,15.298949,4.386178,-116.943359,-84.625244,-128.204346,32.775391
39040,-5.726931,22.591688,-2.346318,-2.166748,-5.737305,10.040283,32.750000
39080,-4.486734,18.449718,-6.416461,9.552002,-91.033936,-7.049561,32.765625
39120,-0.756568,13.781025,-6.291962,82.397461,-104.156494,36.163330,32.765625
39160,0.512359,8.092402,-2.365471,65.399170,-68.328857,54.443359,32.755859
39200,-0.129287,4.271256,3.347094,59.387207,-82.305908,18.707275,32.767578
39240,0.723049,1.235408,6.775591,44.860840,45.989990,-51.116943,32.748047
39280,3.280056,0.507571,4.189853,24.780273,116.455078,-16.021729,32.767578
39320,-1.197101,8.173804,4.630386,-158.386230,-55.053711,-119.262695,32.775391
39360,-4.098873,24.760834,-0.579397,-146.942139,89.569092,-61.004639,32.781250
39400,-3.394978,24.641125,-6.023811,-48.248291,178.771973,5.249023,32.783203
39440,-0.684742,16.395493,-6.095637,-14.007568,152.191162,57.342529,32.794922
39480,-2.308010,8.485051,-3.150769,38.055420,91.583252,81.054688,32.794922
39520,-6.517017,2.308010,-0.205901,22.583008,20.599365,29.449463,32.789062
39560,-8.485051,-0.541090,0.708684,-2.227783,9.918213,26.489258,32.791016
39600,-4.606444,-1.254562,-0.689530,22.369385,-23.498535,24.505615,32.787109
39640,-0.426168,-0.842759,-1.182736,13.183594,7.507324,50.445557,32.796875
39680,-4.228160,7.129933,2.935291,-183.898926,-180.297852,-130.371094,32.791016
39720,-7.627927,29.309816,0.823605,-62.744141,-0.885010,-3.417969,32.789062
39760,-3.629610,22.299595,-5.286397,72.448730,-59.478760,8.056641,32.802734
39800,-0.909797,13.498509,-6.157887,70.220947,-82.824707,14.495850,32.800781
39840,1.125275,8.786720,-3.155558,66.162109,-65.460205,58.898926,32.794922
39880,-0.105345,4.501099,2.135628,66.528320,-87.707520,11.108398,32.777344
39920,-0.967257,1.556231,6.521805,72.631836,-21.209717,-21.331787,32.791016
39960,1.623269,0.201113,4.855441,25.329590,73.242188,-32.135010,32.802734
40000,-0.823605,7.326257,5.521029,-143.798828,-24.322510,-144.042969,32.798828
40040,-3.433285,25.052927,0.952892,-135.131836,112.274170,-72.723389,32.779297
40080,-3.572149,24.416069,-4.654328,-63.385010,178.985596,2.166748,32.802734
40120,-1.173159,16.524780,-6.076484,-22.613525,161.926270,24.780273,32.828125
40160,-2.853889,9.768343,-3.768473,30.120850,91.033936,64.666748,32.810547
40200,-4.707001,3.323152,-1.374272,47.027588,26.306152,61.706543,32.804688
40240,-7.354988,-0.579397,1.120486,17.242432,46.783447,3.387451,32.789062
40280,-5.540183,-1.364695,-0.090980,18.615723,-31.219482,49.377441,32.791016
40320,-1.771709,-0.847547,-0.397437,19.500732,-13.793945,28.930664,32.785156
40360,-3.979163,5.439626,4.094085,-139.801025,-129.364014,-84.320068,32.804688
40400,-8.322245,25.943569,0.062249,-81.298828,12.725830,-62.957764,32.791016
40440,-6.502652,23.918076,-4.912902,47.790527,-38.909912,-4.638672,32.783203
40480,-2.820370,14.925453,-6.258443,72.601318,-92.803955,5.493164,32.804688
40520,0.459687,9.203311,-4.180276,79.467773,-59.204102,64.941406,32.812500
40560,1.216254,4.132392,-0.047884,61.309814,-34.362793,48.339844,32.822266
40600,-0.919373,2.126051,5.430049,39.947510,-91.888428,-8.544922,32.814453
40640,1.125275,0.354342,5.664681,37.017822,55.175781,-20.416260,32.820312
40680,1.082179,1.905785,4.960786,-28.076172,10.498047,-97.625732,32.820312
40720,-6.038177,18.665197,3.873818,-229.614258,120.330811,-151.580811,32.800781
40760,-6.373365,27.126305,-4.596867,10.955811,112.030029,42.633057,32.789062
40800,-3.040636,18.320431,-6.512228,-37.994385,143.890381,3.234863,32.820312
40840,-2.284068,12.698846,-3.892972,-2.197266,111.877441,39.031982,32.810547
40880,-2.494758,7.048530,-1.623269,31.188965,51.208496,103.851318,32.804688
40920,-5.329493,1.637634,0.814029,10.162354,-17.364502,45.227051,32.812500
40960,-6.042965,-0.392649,1.039083,-10.253906,-25.939941,80.108643,32.814453
41000,-3.634398,-0.943315,-0.565032,16.296387,-14.129639,71.746826,32.806641
41040,-2.882619,-1.302446,-0.071826,-17.883301,-56.915283,-20.263672,32.812500
41080,-6.430826,12.761095,4.060566,-165.527344,0.579834,-103.424072,32.810547
41120,-5.564125,28.993782,-2.164358,-40.344238,-60.485840,-1.770020,32.802734
41160,-1.532289,21.150377,-6.057330,80.444336,-57.342529,12.725830,32.820312
41200,0.124498,12.272678,-4.601655,64.117432,-67.871094,23.162842,32.814453
41240,1.987187,7.455544,-1.934515,54.290771,-32.379150,70.922852,32.830078
41280,0.253785,4.912902,2.987964,34.759521,-89.355469,39.764404,32.828125
41320,-0.584185,1.900996,6.445191,33.752441,-34.179688,-30.883789,32.835938
41360,2.442086,-0.847547,3.639187,43.701172,108.825684,-32.073975,32.859375
41400,-2.207454,6.766014,5.473145,-114.196777,-80.078125,-136.993408,32.857422
41440,-3.256114,25.531767,1.340753,-133.514404,80.780029,-39.520264,32.869141
41480,-1.580173,23.022644,-3.950433,-16.967773,158.752441,-3.967285,32.849609
41520,-0.842759,15.495274,-4.572925,-15.075684,136.199951,18.341064,32.867188
41560,-1.877054,10.103531,-3.031059,29.876709,89.752197,56.823730,32.880859
41600,-3.859453,4.204218,-1.235408,49.591064,13.305664,67.230225,32.861328
41640,-6.789956,-0.086191,0.507571,41.992188,15.075684,-5.859375,32.882812
41680,-5.430049,-0.866701,-0.181959,35.064697,-70.037842,36.651611,32.882812
41720,-2.044648,-0.646434,0.177171,15.167236,-47.973633,13.031006,32.849609
41760,-3.131616,6.995857,5.324705,-154.724121,-71.929932,-74.890137,32.869141
41800,-4.764462,26.499025,0.900220,-59.844971,21.148682,-53.894043,32.839844
41840,-3.725378,22.629995,-4.424485,65.063477,-27.954102,2.655029,32.873047
41880,-2.370260,13.742718,-6.090849,68.511963,-105.285645,15.777588,32.886719
41920,0.646434,9.524135,-4.050989,64.910889,-76.843262,53.131104,32.878906
41960,1.412579,5.971139,0.272939,35.430908,-48.126221,51.544189,32.849609
42000,-0.679953,3.217807,4.548983,32.196045,-108.612061,8.605957,32.869141
42040,0.766145,-0.311246,5.171476,51.971436,32.867432,-17.333984,32.853516
42080,3.078943,-0.009577,2.178724,20.874023,115.783691,-32.196045,32.861328
42120,-4.103662,14.264654,5.731719,-199.462891,-31.463623,-106.506348,32.863281
42160,-3.816358,28.634653,-0.201113,-34.545898,114.624023,-12.603760,32.859375
42200,-1.704672,20.762518,-5.300763,-27.221680,158.905029,-12.451172,32.853516
42240,-0.775721,13.378799,-5.655105,0.152588,124.053955,18.768311,32.871094
42280,-1.810017,8.566454,-3.155558,40.069580,50.354004,65.429688,32.878906
42320,-4.199430,3.251326,-0.536301,32.409668,-18.035889,31.738281,32.863281
42360,-6.220136,0.306458,1.206678,26.062012,-31.158447,1.831055,32.853516
42400,-4.003105,-0.617704,0.727837,8.636475,-32.226562,43.731689,32.869141
42440,-1.733402,0.598550,1.335965,-35.949707,-42.053223,-8.361816,32.865234
42480,-5.602432,14.480132,3.600879,-130.615234,-49.346924,-89.447021,32.892578
42520,-4.692636,26.364948,-2.121263,15.899658,-9.277344,0.366211,32.873047
42560,-2.968810,17.913418,-5.497087,51.300049,-85.968018,3.631592,32.869141
42600,-0.603339,13.014880,-5.075707,61.859131,-99.517822,11.505127,32.873047
42640,1.704672,9.117120,-2.580950,67.810059,-63.385010,58.990479,32.886719
42680,1.039083,4.802769,1.661576,43.029785,-72.723389,27.526855,32.882812
42720,-0.828394,1.436521,5.602432,62.744141,-72.784424,-16.174316,32.886719
42760,0.665588,-0.095768,5.114015,25.054932,37.689209,-35.705566,32.896484
42800,-1.565808,8.188169,4.525041,-153.381348,-38.482666,-140.899658,32.886719
42840,-3.974375,25.057714,-0.751779,-40.802002,53.894043,-17.120361,32.869141
42880,-2.557007,22.553379,-3.620033,-38.238525,121.276855,-20.080566,32.876953
42920,-0.454898,15.849615,-4.046201,-25.115967,97.320557,22.949219,32.878906
42960,-1.407791,10.208876,-2.346318,17.852783,58.441162,53.253174,32.880859
43000,-3.481169,4.089296,-1.154005,37.963867,20.538330,70.251465,32.900391
43040,-6.354211,-0.282516,0.100556,27.893066,-0.213623,9.002686,32.886719
43080,-5.798757,-1.288081,-0.090980,11.962891,-62.438965,31.646729,32.894531
43120,-2.317587,-0.507571,-0.062249,3.967285,-60.760498,8.728027,32.888672
43160,-2.236184,6.612785,3.021482,-102.325439,-77.117920,-74.371338,32.890625
43200,-4.486734,25.052927,0.387861,-29.174805,-18.859863,-23.071289,32.888672
43240,-4.414908,21.423317,-5.161899,37.231445,-57.098389,-16.113281,32.878906
43280,-1.877054,14.197616,-6.019023,52.276611,-119.659424,4.974365,32.890625
43320,0.632069,9.246407,-2.930503,58.166504,-96.405029,51.208496,32.923828
43360,1.872266,4.544195,0.148441,62.377930,-59.600830,39.794922,32.919922
43400,0.588974,1.082179,4.726154,57.525635,-46.905518,-13.854980,32.945312
43440,1.599327,0.000000,4.659117,26.672363,49.804688,-34.637451,32.941406
43480,-0.445322,4.156334,4.683059,-80.780029,-25.299072,-84.503174,32.929688
43520,-3.117251,21.988348,3.007117,-152.130127,80.383301,-77.331543,32.921875
43560,-3.375824,23.903709,-3.126827,-50.598145,135.986328,-18.951416,32.929688
43600,-2.102109,16.625336,-6.181829,-46.905518,83.892822,4.394531,32.910156
43640,-1.513135,11.204864,-5.099649,0.122070,82.000732,48.461914,32.935547
43680,-4.299986,6.421249,-1.546654,35.217285,39.825439,66.589355,32.925781
43720,-7.345411,1.522712,0.478840,15.472412,44.586182,14.953613,32.931641
43760,-7.043741,-0.330400,0.339977,0.823975,-28.350830,28.717041,32.945312
43800,-2.786851,-0.114922,-0.225055,-7.446289,-53.710938,22.888184,32.927734
43840,-2.710236,4.280833,1.771709,-92.193604,-157.012939,-53.131104,32.925781
43880,-8.231265,21.964407,1.503559,-76.934814,-93.017578,-37.628174,32.912109
43920,-4.175488,23.242910,-4.879383,24.871826,-47.210693,-20.965576,32.939453
43960,-1.110910,17.817650,-4.855441,68.176270,-115.356445,6.500244,32.923828
44000,1.379060,12.636597,-1.699883,80.780029,-62.713623,29.052734,32.931641
44040,2.547431,6.603208,0.718261,88.439941,-6.744385,38.238525,32.925781
44080,0.100556,2.911349,6.488286,52.856445,-65.673828,-23.681641,32.921875
44120,0.976834,1.187524,6.411672,4.608154,48.065186,-51.757812,32.935547
44160,1.628057,5.425261,4.232949,-101.684570,96.069336,-64.666748,32.937500
44200,-4.434062,19.053057,-0.057461,-79.254150,56.640625,-28.167725,32.947266
44240,-6.023811,21.528662,-3.280056,-43.182373,110.656738,4.730225,32.925781
44280,-2.513912,16.160862,-4.817134,-16.143799,94.635010,41.320801,32.953125
44320,-2.097321,11.262324,-2.504335,10.925293,82.916260,65.521240,32.947266
44360,-4.683059,5.363012,0.057461,27.435303,47.943115,49.743652,32.933594
44400,-7.072472,0.890643,1.747767,0.762939,50.140381,0.976562,32.941406
44440,-6.555324,-0.368707,0.330400,-15.899658,-40.130615,16.235352,32.939453
44480,-2.767697,0.148441,-0.756568,-19.531250,-96.679688,20.080566,32.921875
44520,-5.358223,6.454768,-1.005565,-95.367432,-168.670654,-53.039551,32.941406
44560,-8.058883,24.827871,-0.105345,4.577637,-115.051270,-10.345459,32.929688
44600,-2.360683,22.629995,-1.067814,32.897949,-47.180176,-4.882812,32.955078
44640,1.393425,15.490485,-2.092532,72.418213,-106.292725,48.034668,32.957031
44680,2.489970,10.060435,0.158017,59.875488,-48.370361,82.977295,32.935547
44720,0.881066,4.697424,3.327940,46.691895,-23.925781,41.717529,32.939453
44760,0.086191,1.235408,5.152322,15.441895,50.750732,-21.697998,32.960938
44800,1.206678,-0.320823,2.073379,-7.843018,135.040283,-51.696777,32.937500
44840,-0.028730,-0.282516,1.781286,17.089844,78.002930,-69.335938,32.929688
44880,-0.339977,15.308526,4.481946,-194.213867,16.876221,-125.488281,32.937500
44920,-2.920926,28.826189,-0.167594,-13.275146,114.349365,33.813477,32.953125
44960,-3.481169,19.589357,-4.319140,-30.609131,150.756836,13.641357,32.947266
45000,-2.193089,10.443508,-5.085284,35.003662,72.174072,70.404053,32.968750
45040,-4.644751,4.161122,-1.647211,44.372559,22.979736,40.710449,32.941406
45080,-7.527370,0.876278,1.312023,46.173096,1.190186,-4.425049,32.945312
45120,-6.215348,0.253785,0.430956,26.184082,-17.944336,-6.011963,32.958984
45160,-2.164358,2.212242,1.398214,-23.986816,-58.258057,-6.530762,32.958984
45200,-5.482722,12.239159,1.436521,-86.456299,-140.991211,3.356934,32.960938
45240,-5.928043,22.352266,-3.217807,6.927490,-77.850342,-7.202148,32.931641
45280,-2.710236,19.871874,-3.605668,41.015625,-98.724365,-0.274658,32.953125
45320,0.837971,13.986926,-3.031059,62.835693,-121.612549,18.188477,32.974609
45360,2.461239,8.173804,-1.221043,62.805176,-52.337646,40.283203,32.968750
45400,1.398214,4.084508,3.241749,35.980225,-58.593750,-6.530762,32.990234
45440,1.498770,2.030283,6.148310,37.719727,52.185059,-34.973145,32.984375
45480,3.548207,-0.565032,2.279280,52.062988,111.389160,18.829346,32.980469
45520,-0.952892,3.385401,4.630386,-81.817627,-76.354980,-153.137207,32.978516
45560,-4.362236,22.534225,1.230620,-148.437500,126.098633,-65.948486,32.990234
45600,-4.869806,24.779987,-4.343082,2.807617,127.563477,32.165527,32.988281
45640,-3.356671,16.883911,-4.951209,-18.676758,93.597412,29.846191,32.980469
45680,-3.241749,11.128249,-3.169923,17.486572,66.436768,58.624268,32.994141
45720,-4.836287,4.817134,-0.933739,40.588379,9.429932,47.760010,32.964844
45760,-6.038177,0.703895,0.919373,19.500732,-7.293701,8.087158,32.984375
45800,-4.046201,-1.216254,-0.306458,3.021240,11.901855,42.724609,32.964844
45840,-1.872266,-1.747767,-0.995988,12.969971,-70.098877,22.735596,32.978516
45880,-6.579266,11.463438,3.332729,-144.104004,-161.376953,-24.017334,32.978516
45920,-5.434838,23.611618,-2.925714,-0.946045,-54.962158,-12.207031,32.984375
45960,-2.097321,19.713858,-4.328717,21.575928,-112.213135,0.305176,33.013672
46000,0.933739,14.714764,-3.193865,48.248291,-106.140137,19.531250,32.978516
46040,2.379837,9.605537,-1.613692,56.854248,-45.867920,40.161133,32.980469
46080,1.187524,4.884171,2.379837,46.569824,-64.147949,7.873535,33.000000
46120,0.282516,1.182736,6.105214,28.381348,48.858643,-20.996094,33.003906
46160,2.911349,-1.307234,2.571373,47.607422,167.083740,60.638428,32.988281
46200,0.100556,2.288857,4.999093,-86.761475,-189.239502,-201.629639,33.007812
46240,-4.357447,25.862167,3.064578,-163.208008,183.288574,-89.874268,33.017578
46280,-3.768473,23.999477,-5.075707,-32.623291,146.575928,16.296387,32.980469
46320,-2.724602,16.285360,-5.506664,-34.851074,102.020264,28.594971,32.990234
46360,-3.414132,11.664551,-3.859453,12.298584,81.481934,58.074951,32.984375
46400,-4.869806,5.612009,-1.742979,42.388916,2.105713,76.873779,32.988281
46440,-7.005434,1.110910,1.532289,1.190186,17.120361,-2.349854,32.986328
46480,-5.707777,-0.359130,1.235408,-47.668457,-0.427246,25.787354,32.982422
46520,-1.790863,-1.422156,-1.211466,15.502930,8.300781,49.285889,32.998047
46560,-3.452439,8.700529,3.169923,-85.754395,-231.018066,-87.310791,32.996094
46600,-6.224925,22.290018,0.000000,-12.664795,-17.791748,-14.221191,33.000000
46640,-3.902549,19.838356,-4.616021,25.054932,-84.136963,-0.396729,32.998047
46680,-0.948104,14.561535,-3.725378,60.394287,-117.919922,13.641357,33.009766
46720,1.254562,9.677363,-1.953669,78.857422,-78.521729,30.426025,32.998047
46760,1.680730,5.233725,0.957681,55.847168,-54.718018,12.329102,33.003906
46800,1.072602,2.667141,5.310339,35.247803,-8.239746,-28.015137,32.994141
46840,2.609680,0.062249,4.663905,29.571533,124.664307,-0.244141,32.994141
46880,1.580173,0.387861,3.184288,-19.500732,-33.386230,-73.364258,33.013672
46920,-6.268020,19.919758,6.253655,-196.472168,75.988770,-91.735840,33.001953
46960,-4.534618,27.140671,-4.716578,-8.514404,150.726318,-5.249023,33.003906
47000,-2.782062,18.535910,-5.702989,-28.411865,119.201660,12.603760,32.984375
47040,-1.853112,12.966996,-3.208230,-0.305176,113.739014,47.302246,33.000000
47080,-2.825158,6.842628,-2.111686,38.024902,39.886475,89.080811,33.000000
47120,-5.999869,1.125275,-0.545878,38.696289,13.946533,5.584717,32.984375
47160,-6.794744,-0.780510,0.531513,24.078369,-34.667969,10.803223,32.992188
47200,-3.562572,-0.857124,0.383072,10.528564,-65.765381,22.827148,32.992188
47240,-3.002329,3.471592,4.525041,-79.559326,-58.349609,-36.224365,32.970703
47280,-3.385401,20.001162,0.794875,-89.294434,-10.070801,-56.304932,33.013672
47320,-4.965574,23.855825,-3.706224,37.780762,-32.897949,5.340576,33.023438
47360,-4.443638,16.864758,-5.257667,42.327881,-63.903809,4.608154,33.031250
47400,-0.450110,11.473015,-5.027823,73.760986,-77.819824,36.041260,33.062500
47440,2.049437,7.182605,-1.982399,64.605713,-35.858154,56.518555,33.005859
47480,0.454898,4.802769,3.361459,-2.166748,-43.457031,29.418945,33.027344
47520,0.105345,2.734178,5.444415,-0.671387,11.047363,19.104004,33.027344
47560,1.369483,-1.350330,2.920926,45.135498,69.824219,62.530518,33.041016
47600,-3.706224,5.779603,5.990293,-115.509033,-90.881348,-184.631348,33.033203
47640,-1.757344,24.372972,1.800440,-165.161133,155.029297,-48.858643,33.050781
47680,-0.660800,25.464729,-5.468357,8.697510,127.258301,17.639160,33.062500
47720,-1.872266,16.491261,-4.975151,12.603760,125.427246,10.437012,33.052734
47760,-2.619257,9.279925,-2.734178,27.648926,76.782227,41.534424,33.056641
47800,-4.544195,3.433285,-1.034295,51.086426,-36.499023,52.978516,33.041016
47840,-7.560889,0.067038,0.756568,21.240234,-21.087646,14.099121,33.027344
47880,-5.008670,-1.096544,0.023942,10.192871,-63.232422,49.591064,33.056641
47920,-1.417367,-0.368707,0.062249,14.892578,-71.289062,-4.882812,33.042969
47960,-3.045424,9.825804,4.371812,-121.215820,-61.950684,-81.420898,33.027344
48000,-3.538630,25.115175,-1.910573,-3.265381,-35.522461,-6.896973,33.031250
48040,-4.357447,20.858286,-4.850653,25.848389,-61.035156,-3.143311,33.039062
48080,-0.847547,14.480132,-5.377377,45.227051,-86.181641,7.476807,33.048828
48120,2.039860,9.639056,-2.983175,54.138184,-36.529541,50.994873,33.048828
48160,1.685518,5.152322,1.541866,40.832520,-43.060303,44.128418,33.054688
48200,-0.426168,1.762132,6.636727,34.393311,-20.111084,-26.550293,33.078125
48240,0.560243,0.229843,4.999093,13.580322,63.781738,-21.453857,33.060547
48280,-2.284068,7.656657,3.940856,-132.751465,-27.435303,-97.686768,33.037109
48320,-2.293645,23.487118,0.000000,-44.097900,88.348389,-16.113281,33.056641
48360,-1.757344,22.093693,-3.864242,-29.907227,148.590088,-3.723145,33.048828
48400,-0.397437,15.361198,-4.754885,-19.195557,143.646240,27.618408,33.037109
48440,-1.570596,9.782708,-3.050213,13.732910,125.549316,40.679932,33.046875
48480,-4.333505,4.256891,-1.450886,24.566650,41.839600,46.234131,33.062500
48520,-7.340622,0.234632,-0.033519,27.404785,31.524658,-1.007080,33.035156
48560,-5.204995,-0.976834,-0.632069,27.893066,-52.764893,44.891357,33.048828
48600,-1.455675,-1.221043,-0.407014,33.050537,-1.190186,41.717529,33.035156
48640,-2.691083,5.128380,4.118027,-127.838135,-95.123291,-70.007324,33.033203
48680,-5.746084,25.402479,0.363919,-67.993164,-6.317139,-15.441895,33.062500
48720,-4.343082,24.181437,-6.205771,50.354004,-61.859131,8.209229,33.066406
48760,-1.546654,14.523228,-6.579266,54.199219,-102.691650,15.136719,33.060547
48800,1.810017,9.088389,-4.007894,57.342529,-67.047119,60.760498,33.068359
48840,1.034295,5.511452,1.168370,21.789551,-75.958252,15.106201,33.054688
48880,-0.991199,3.155558,5.305551,33.050537,-58.929443,-36.254883,33.060547
48920,1.728614,-0.517148,3.624821,59.844971,110.809326,11.199951,33.048828
48960,0.023942,3.921702,5.803545,-75.408936,-90.087891,-157.806396,33.056641
49000,-1.723825,21.327549,3.026271,-209.686279,129.455566,-79.223633,33.070312
49040,-3.251326,25.321077,-5.281609,-14.282227,148.773193,22.216797,33.037109
49080,-1.613692,17.424999,-6.464345,-8.850098,172.607422,13.488770,33.050781
49120,-1.910573,10.721235,-4.458004,18.890381,113.952637,59.997559,33.048828
49160,-4.515464,4.654328,-1.723825,42.480469,-2.929688,63.293457,33.054688
49200,-7.632715,0.627281,0.804452,24.780273,-2.014160,-22.918701,33.062500
49240,-5.487510,-0.579397,0.316035,25.512695,-67.504883,52.520752,33.060547
49280,-2.130840,-0.608127,1.197101,3.662109,-36.560059,14.801025,33.091797
49320,-3.184288,9.045294,4.620809,-134.735107,-17.333984,-47.515869,33.089844
49360,-5.401319,25.809494,-1.929727,-21.148682,10.406494,-19.256592,33.072266
49400,-5.272032,20.360291,-7.129933,57.159424,-58.624268,9.979248,33.091797
49440,-1.953669,13.177686,-6.761226,71.228027,-102.508545,20.446777,33.101562
49480,1.537078,8.451532,-3.629610,55.480957,-44.799805,67.871094,33.082031
49520,1.493982,4.438850,1.268927,45.318604,-59.387207,38.940430,33.099609
49560,-0.622492,1.968034,7.527370,48.522949,-75.317383,-25.329590,33.076172
49600,1.877054,-0.201113,5.133168,10.192871,93.933105,-23.651123,33.095703
49640,2.255338,0.359130,1.254562,-20.874023,127.349854,-16.967773,33.089844
49680,-8.336611,14.575900,4.189853,-205.261230,-97.808838,-135.894775,33.091797
49720,-4.141969,31.162930,-3.495534,-29.693604,169.982910,10.803223,33.082031
49760,0.095768,21.902157,-6.785168,-10.925293,168.273926,13.061523,33.085938
49800,0.215478,13.613431,-5.070919,4.852295,110.900879,40.130615,33.099609
49840,-3.299210,6.488286,-2.715025,58.715820,2.532959,75.958252,33.099609
49880,-7.924808,1.077391,0.009577,44.311523,-0.976562,-16.448975,33.099609
49920,-6.967127,-0.330400,0.579397,21.728516,-50.018311,28.503418,33.070312
49960,-2.513912,-0.675165,0.387861,6.958008,-47.454834,43.487549,33.103516
50000,-1.197101,3.007117,3.979163,-98.968506,-57.861328,-60.821533,33.087891
50040,-4.314352,18.444929,1.388637,-114.654541,-6.286621,-53.649902,33.085938
50080,-5.722142,24.985889,-5.372589,25.573730,-31.250000,4.394531,33.078125
50120,-3.409343,16.438589,-7.077260,48.461914,-89.355469,4.272461,33.087891
50160,0.191536,10.716447,-5.544971,75.347900,-82.824707,49.407959,33.068359
50200,2.226608,6.038177,-1.934515,70.037842,-34.118652,57.586670,33.093750
50240,-0.402226,3.864242,5.329493,11.871338,-54.077148,-8.728027,33.099609
50280,0.220267,0.536301,6.780379,62.164307,39.642334,-12.817383,33.111328
50320,1.666364,0.234632,3.145981,-7.995605,85.113525,-41.229248,33.076172
50360,-6.962338,12.191275,4.683059,-175.720215,-47.515869,-90.454102,33.091797
50400,-2.987964,27.983429,-3.658340,-21.820068,143.890381,0.213623,33.119141
50440,-0.306458,21.035456,-6.359000,-6.744385,154.113770,7.751465,33.103516
50480,0.359130,13.718776,-5.525817,-7.995605,133.392334,33.599854,33.105469
50520,-1.805228,8.202535,-2.801216,30.212402,52.612305,86.151123,33.111328
50560,-6.737284,3.289633,-0.162806,13.824463,1.464844,19.409180,33.101562
50600,-7.809886,0.713472,0.938527,8.605957,-47.088623,55.541992,33.101562
50640,-3.658340,-0.608127,-0.143652,7.507324,-56.030273,67.596436,33.097656
50680,-2.633622,0.809240,2.489970,-79.162598,-55.664062,-39.367676,33.105469
50720,-5.573701,16.821661,0.459687,-101.013184,6.439209,-38.208008,33.099609
50760,-2.221819,26.250027,-5.300763,1.129150,-63.934326,0.152588,33.085938
50800,-0.407014,18.789696,-6.928820,42.816162,-94.726562,0.457764,33.087891
50840,2.126051,10.137050,-5.042189,47.454834,-34.545898,39.825439,33.091797
50880,2.987964,5.348647,-0.177171,29.693604,-12.939453,50.445557,33.107422
50920,-0.699107,3.409343,7.805098,39.154053,-98.175049,-37.078857,33.103516
50960,2.173935,0.593762,5.817910,21.240234,113.891602,-58.105469,33.103516
51000,1.556231,1.149217,2.580950,6.561279,64.514160,-39.581299,33.111328
51040,-7.723695,20.321983,5.975927,-259.246826,44.616699,-41.198730,33.115234
51080,-1.877054,29.716831,-5.822699,-20.263672,160.827637,10.406494,33.105469
51120,0.043096,20.638020,-6.526594,-21.972656,161.010742,20.660400,33.117188
51160,-0.871489,12.449849,-3.404555,14.617920,100.921631,54.504395,33.101562
51200,-5.166687,4.783615,-0.876278,48.553467,29.388428,38.513184,33.121094
51240,-9.303867,0.373495,0.579397,37.109375,13.519287,15.869141,33.113281
51280,-5.813122,-0.837971,-1.532289,27.923584,-90.148926,57.525635,33.146484
51320,-1.436521,-0.632069,-1.412579,47.546387,-97.900391,12.481689,33.134766
51360,-2.992752,9.753978,5.238513,-134.185791,-24.932861,-69.641113,33.123047
51400,-3.979163,24.578875,0.742203,-32.897949,24.047852,9.979248,33.128906
51440,-4.424485,19.426552,-6.698977,47.698975,-91.094971,1.007080,33.109375
51480,-1.139640,12.492945,-6.042965,52.825928,-93.780518,21.667480,33.132812
51520,1.699883,7.943961,-2.686294,56.640625,-35.186768,52.368164,33.134766
51560,0.924162,4.462792,1.747767,45.654297,-51.940918,22.216797,33.130859
51600,-0.469264,1.867477,5.463568,56.518555,-23.040771,-28.594971,33.115234
51640,1.896208,-0.019154,4.046201,36.529541,110.229492,-40.222168,33.138672
51680,-2.537854,4.352659,6.584054,-82.183838,-59.722900,-105.926514,33.154297
51720,-4.726154,21.997925,2.791639,-184.844971,171.020508,-67.535400,33.140625
51760,-1.379060,24.483107,-6.215348,-0.793457,127.593994,-11.535645,33.164062
51800,-0.531513,16.974890,-6.426037,-42.236328,162.597656,6.408691,33.109375
51840,-0.464475,11.942278,-4.060566,4.516602,140.197754,36.529541,33.148438
51880,-3.155558,6.162675,-2.475605,49.102783,70.587158,83.526611,33.140625
51920,-7.364564,1.110910,-0.134075,17.944336,52.246094,-22.583008,33.121094
51960,-6.957550,-0.512359,0.105345,2.655029,-18.310547,29.174805,33.136719
52000,-2.197877,-0.737414,-0.129287,0.396729,-22.460938,38.604736,33.154297
52040,-2.628834,3.021482,2.245761,-68.084717,-111.114502,-52.825928,33.148438
52080,-5.894525,21.380220,2.398990,-111.511230,33.782959,-28.656006,33.136719
52120,-4.946421,23.745693,-5.693412,27.313232,-26.672363,-6.805420,33.134766
52160,-3.193865,16.529568,-7.627927,40.771484,-95.214844,6.134033,33.173828
52200,-0.387861,11.415554,-5.415684,72.143555,-77.880859,29.174805,33.140625
52240,1.067814,6.454768,-1.738190,71.166992,-41.412354,44.555664,33.142578
52280,-0.703895,4.247314,4.711789,16.571045,-70.190430,-21.484375,33.125000
52320,0.775721,1.489193,5.813122,50.170898,73.089600,-5.798340,33.130859
52360,2.657564,-0.038307,3.074155,26.916504,78.765869,-23.254395,33.128906
52400,-4.558560,11.908759,6.315904,-194.305420,-2.716064,-109.954834,33.121094
52440,-2.533065,28.289886,-3.294421,-66.528320,142.822266,-14.160156,33.125000
52480,-1.987187,22.242134,-6.904878,-31.677246,184.478760,4.302979,33.128906
52520,-1.350330,13.862428,-5.042189,-20.965576,143.096924,19.866943,33.160156
52560,-2.667141,7.805098,-2.959233,34.118652,69.152832,86.608887,33.138672
52600,-5.726931,2.025495,-0.818817,26.947021,30.914307,2.014160,33.158203
52640,-7.307104,-0.612916,0.608127,14.038086,1.831055,29.479980,33.162109
52680,-3.706224,-1.173159,-0.521936,18.585205,-43.060303,25.878906,33.146484
52720,-1.891419,1.364695,2.274492,-36.743164,-72.265625,-43.975830,33.146484
52760,-4.601655,17.386692,2.992752,-146.514893,14.038086,-46.813965,33.166016
52800,-5.549759,24.837448,-4.539406,29.602051,-24.993896,-2.563477,33.130859
52840,-3.993528,16.922218,-6.967127,54.595947,-96.038818,7.873535,33.144531
52880,-0.761356,11.214440,-4.984728,65.734863,-92.224121,35.614014,33.132812
52920,1.594538,6.215348,-2.068590,75.164795,-55.969238,58.197021,33.162109
52960,-0.148441,4.127604,3.787627,16.113281,-69.763184,-2.502441,33.130859
53000,-0.158017,1.833959,6.526594,45.867920,12.908936,-17.974854,33.140625
53040,2.513912,-0.186748,3.026271,27.496338,101.867676,-13.671875,33.140625
53080,-3.485958,4.970363,4.180276,-99.273682,-101.409912,-127.655029,33.164062
53120,-5.061342,25.857378,0.435745,-148.712158,97.656250,-15.075684,33.154297
53160,-0.263362,25.814283,-4.797980,14.465332,153.747559,6.286621,33.152344
53200,1.699883,16.601395,-5.147533,-9.246826,175.231934,36.621094,33.156250
53240,-0.316035,10.141838,-3.380613,26.885986,117.492676,73.760986,33.171875
53280,-5.597643,3.682282,-0.699107,37.994385,33.691406,26.275635,33.177734
53320,-7.824251,0.565032,0.948104,18.829346,9.368896,-23.437500,33.173828
53360,-4.879383,-0.569820,0.258574,-3.234863,-51.910400,48.980713,33.181641
53400,-1.733402,-0.019154,0.196325,-10.223389,-46.142578,-5.310059,33.181641
53440,-6.708553,10.591949,1.474828,-147.491455,-81.054688,-39.001465,33.185547
53480,-3.988740,26.973076,-3.524265,-2.502441,-49.774170,17.883301,33.173828
53520,-1.149217,21.088129,-5.267244,50.598145,-50.933838,-4.119873,33.193359
53560,0.948104,12.785037,-5.971139,54.443359,-96.801758,18.829346,33.167969
53600,2.916138,6.976704,-3.591303,64.666748,-64.086914,47.454834,33.181641
53640,1.048660,3.835511,2.226608,26.641846,-67.230225,13.824463,33.177734
53680,-0.598550,2.169147,6.229713,30.639648,-60.668945,-22.674561,33.183594
53720,1.130063,-0.407014,4.338294,41.564941,23.254395,-49.743652,33.191406
53760,1.963245,8.810662,4.419696,-152.954102,94.543457,-112.976074,33.179688
53800,-1.398214,23.185450,-0.718261,-65.551758,61.767578,-20.812988,33.164062
53840,-2.944868,23.582888,-6.382942,26.702881,116.302490,-3.814697,33.171875
53880,-2.049437,14.935030,-5.803545,6.134033,142.974854,11.901855,33.193359
53920,-1.561020,8.858546,-3.232172,13.122559,115.783691,26.885986,33.183594
53960,-4.869806,3.739743,-0.100556,29.602051,1.861572,-7.781982,33.173828
54000,-6.761226,0.952892,1.493982,17.303467,-36.956787,-3.356934,33.183594
54040,-3.581726,-0.818817,1.086968,2.319336,-26.092529,55.969238,33.171875
54080,-0.962469,-0.900220,-0.842759,14.007568,-20.202637,10.131836,33.177734
54120,-5.942409,8.810662,3.615245,-163.543701,-106.567383,-79.254150,33.171875
54160,-6.119579,28.969841,-2.341529,-25.238037,-8.605957,16.815186,33.210938
54200,-3.093309,22.122423,-7.038953,77.026367,-92.864990,3.723145,33.173828
54240,-0.469264,11.994950,-6.258443,53.131104,-80.139160,27.160645,33.203125
54280,2.777274,6.363788,-3.983952,61.492920,-42.602539,58.593750,33.173828
54320,0.660800,4.050989,1.886631,43.060303,-80.230713,4.364014,33.207031
54360,-0.550666,2.494758,7.388506,61.187744,-31.707764,-28.289795,33.169922
54400,2.279280,0.440533,5.616797,26.214600,66.589355,-10.314941,33.197266
54440,-3.423708,7.977480,4.750096,-145.233154,-36.773682,-68.298340,33.191406
54480,-3.399766,24.966736,-3.011906,-52.398682,92.346191,-18.920898,33.199219
54520,-0.215478,23.094469,-5.908890,-6.164551,166.839600,12.359619,33.216797
54560,1.412579,15.624560,-5.621585,-7.476807,158.905029,31.433105,33.199219
54600,-0.986411,9.054871,-3.773262,38.299561,81.359863,52.581787,33.218750
54640,-6.593631,3.505111,-1.302446,24.719238,19.592285,-23.376465,33.195312
54680,-8.987833,0.598550,0.790087,19.073486,-8.880615,-2.868652,33.197266
54720,-5.056554,-1.125275,0.368707,-8.697510,-66.802979,46.386719,33.191406
54760,-0.584185,-1.015141,-0.545878,18.707275,-30.364990,42.205811,33.210938
54800,-5.051765,9.825804,3.160346,-155.212402,-102.142334,-44.982910,33.193359
54840,-4.654328,28.218061,-4.041412,-6.286621,-14.770508,25.695801,33.197266
54880,-2.882619,20.944477,-7.283162,62.561035,-97.595215,6.988525,33.169922
54920,0.215478,12.871228,-7.393295,58.441162,-104.614258,31.066895,33.179688
54960,2.331953,7.694964,-3.787627,61.157227,-78.155518,53.344727,33.197266
55000,-0.062249,4.544195,2.959233,5.889893,-79.010010,0.579834,33.203125
55040,-1.101333,1.920150,7.326257,65.307617,-62.652588,-5.950928,33.193359
55080,2.700660,-0.421380,4.352659,10.528564,105.743408,-17.852783,33.197266
55120,-0.301669,4.108450,3.112462,-96.130371,-39.947510,-137.512207,33.193359
55160,-5.511452,24.047361,1.685518,-190.124512,78.002930,-48.034668,33.203125
55200,-1.436521,26.221296,-6.368577,7.568359,163.085938,6.347656,33.201172
55240,-0.153229,16.093824,-6.885724,-10.437012,158.508301,16.723633,33.208984
55280,-1.230620,10.165780,-4.132392,20.782471,114.044189,42.388916,33.220703
55320,-4.390966,4.371812,-1.139640,42.785645,11.657715,25.817871,33.214844
55360,-7.216124,0.627281,1.455675,18.768311,-13.671875,-20.782471,33.242188
55400,-4.989516,-0.785298,0.909797,7.873535,-40.802002,61.553955,33.218750
55440,-1.517924,-1.163582,0.225055,5.493164,-33.477783,14.953613,33.234375
55480,-3.476381,5.894525,4.108450,-129.364014,-71.044922,-56.243896,33.222656
55520,-5.702989,27.346571,-1.651999,-73.425293,-11.962891,-6.072998,33.232422
55560,-3.849876,24.588451,-6.469133,91.857910,-66.467285,3.845215,33.212891
55600,-1.929727,13.469779,-6.837840,64.147949,-94.909668,14.739990,33.203125
55640,1.766921,7.541735,-4.707001,72.723389,-50.415039,57.800293,33.220703
55680,0.938527,4.678270,1.364695,13.122559,-57.037354,7.934570,33.220703
55720,-2.044648,2.557007,6.033388,41.290283,-108.673096,-20.233154,33.214844
55760,1.077391,-0.852336,4.874595,58.563232,106.903076,23.498535,33.246094
55800,1.077391,2.705448,3.543418,-64.666748,-17.303467,-144.226074,33.222656
55840,-5.679047,22.151154,4.429273,-196.166992,36.102295,-38.391113,33.203125
55880,-2.236184,28.117504,-6.042965,20.721436,118.194580,23.742676,33.238281
55920,0.316035,17.659632,-7.053318,6.195068,162.384033,28.839111,33.250000
55960,-0.785298,10.141838,-3.821146,14.068604,78.460693,56.182861,33.242188
56000,-4.276044,4.017470,-0.876278,45.837402,-16.265869,41.107178,33.234375
56040,-7.785944,0.344765,2.082955,23.223877,-22.888184,-2.593994,33.234375
56080,-5.808333,-1.125275,1.158794,8.300781,-61.798096,70.678711,33.226562
56120,-1.364695,-1.063026,-0.627281,20.050049,-32.775879,32.745361,33.210938
56160,-1.431733,7.422025,3.744531,-147.216797,-69.091797,-80.932617,33.210938
56200,-2.734178,26.915615,-0.028730,-52.032471,43.792725,-14.068604,33.250000
56240,-3.112462,21.796812,-6.842628,82.183838,-58.105469,6.744385,33.230469
56280,-1.877054,13.704411,-7.704541,55.541992,-96.496582,15.441895,33.230469
56320,1.407791,9.500193,-4.955997,47.485352,-51.147461,44.494629,33.220703
56360,1.058237,5.650316,1.312023,17.700195,-55.541992,17.333984,33.236328
56400,-1.053449,2.183512,6.957550,44.769287,-42.083740,-21.759033,33.214844
56440,1.570596,-0.196325,5.114015,14.831543,110.198975,-46.813965,33.238281
56480,-1.503559,5.645528,4.616021,-120.849609,-39.550781,-129.241943,33.226562
56520,-4.113238,24.545357,0.555455,-113.739014,103.210449,-0.823975,33.216797
56560,-0.608127,24.090458,-6.253655,5.126953,165.283203,-2.960205,33.232422
56600,1.034295,16.539145,-6.392519,-14.251709,151.672363,20.843506,33.246094
56640,-0.799663,10.050858,-3.600879,35.278320,97.717285,48.065186,33.250000
56680,-4.860229,3.552995,-1.417367,45.440674,24.139404,-6.072998,33.253906
56720,-8.446744,0.004788,1.010353,37.017822,-2.227783,-19.104004,33.240234
56760,-6.306327,-1.134852,0.316035,11.871338,-76.538086,44.158936,33.240234
56800,-1.426944,-1.225831,-0.454898,3.723145,-13.092041,70.831299,33.246094
56840,-1.613692,4.884171,1.762132,-97.320557,-140.533447,-77.331543,33.236328
56880,-4.620809,26.570850,-0.383072,-60.821533,-3.479004,-15.625000,33.232422
56920,-2.394202,23.242910,-5.535394,68.542480,-23.498535,13.153076,33.230469
56960,-1.221043,14.623784,-8.245630,52.276611,-93.872070,17.303467,33.248047
57000,1.288081,9.701305,-6.019023,60.974121,-83.831787,40.313721,33.251953
57040,1.029507,5.841852,-0.201113,27.618408,-59.295654,17.547607,33.236328
57080,-1.340753,3.256114,6.449979,18.035889,-85.449219,-16.845703,33.259766
57120,0.972046,-0.129287,6.258443,31.951904,83.068848,-19.012451,33.246094
57160,2.001553,1.393425,2.748544,-17.517090,58.471680,-74.432373,33.240234
57200,-6.143522,17.688362,4.414908,-209.106445,-8.575439,-81.237793,33.236328
57240,-2.446874,28.423962,-4.955997,-1.281738,143.768311,13.366699,33.246094
57280,-0.110133,19.833567,-6.952762,-16.265869,170.349121,8.422852,33.265625
57320,0.263362,12.636597,-4.797980,4.852295,131.469727,25.329590,33.269531
57360,-2.547431,6.636727,-2.284068,46.203613,30.670166,57.922363,33.283203
57400,-6.545747,1.541866,0.143652,22.613525,-10.009766,-18.249512,33.259766
57440,-6.703765,-0.349553,1.493982,31.158447,-59.936523,13.488770,33.281250
57480,-3.251326,-1.110910,0.483629,2.380371,-43.090820,68.481445,33.273438
57520,-1.704672,-0.263362,0.684742,-6.500244,-73.089600,-14.373779,33.275391
57560,-6.157887,14.183250,3.236961,-207.611084,-50.140381,-69.732666,33.246094
57600,-3.869030,31.378407,-4.673482,26.092529,-14.617920,19.500732,33.294922
57640,-3.145981,19.713858,-6.804321,80.139160,-76.385498,5.950928,33.271484
57680,0.038307,10.821792,-6.540959,82.550049,-70.709229,40.283203,33.310547
57720,2.346318,6.119579,-3.031059,60.119629,-36.621094,59.082031,33.279297
57760,-0.411803,4.429273,3.538630,-22.094727,-59.509277,4.058838,33.275391
57800,-2.097321,2.489970,5.516241,14.251709,-93.872070,-3.723145,33.255859
57840,1.455675,-1.350330,3.754108,77.117920,79.254150,40.924072,33.259766
57880,1.642422,4.357447,3.921702,-129.577637,-36.956787,-194.152832,33.289062
57920,-3.131616,25.206156,3.074155,-180.328369,94.238281,-17.974854,33.271484
57960,-1.369483,27.720068,-7.201759,35.156250,170.349121,29.113770,33.275391
58000,-0.775721,16.165649,-7.034164,30.822754,172.424316,40.954590,33.271484
58040,-2.130840,10.208876,-3.754108,15.045166,86.364746,80.230713,33.279297
58080,-5.736507,5.425261,-0.521936,11.138916,-45.959473,78.155518,33.281250
58120,-7.905654,0.287304,1.867477,15.380859,-119.354248,12.023926,33.259766
58160,-3.792415,-1.369483,0.392649,-5.310059,-29.388428,54.504395,33.292969
58200,-1.029507,-1.723825,-0.033519,-1.037598,-23.834229,-17.852783,33.283203
58240,-2.676718,5.760449,2.600103,-129.394531,14.556885,-99.945068,33.294922
58280,-4.616021,28.189331,-0.995988,-75.866699,-82.519531,-10.375977,33.287109
58320,-1.498770,27.174189,-6.483498,69.427490,-48.187256,21.850586,33.271484
58360,0.957681,13.479356,-5.674258,59.295654,-57.464600,23.406982,33.265625
58400,3.241749,6.081272,-2.868254,51.116943,-21.514893,68.664551,33.273438
58440,0.296881,3.442862,2.547431,7.965088,-82.153320,6.103516,33.285156
58480,-2.217031,2.844312,6.737284,13.427734,-97.900391,-49.377441,33.269531
58520,2.341529,-0.086191,4.027047,44.525146,89.691162,15.136719,33.285156
58560,0.761356,5.425261,4.261679,-101.928711,-72.509766,-140.228271,33.316406
58600,-0.186748,23.329102,1.857901,-136.260986,103.332520,3.387451,33.275391
58640,0.397437,24.090458,-6.268020,14.495850,152.130127,8.666992,33.291016
58680,-0.220267,16.778566,-5.329493,12.390137,144.805908,31.951904,33.289062
58720,-1.532289,10.165780,-2.983175,38.574219,80.566406,54.199219,33.302734
58760,-5.003881,3.811569,-0.512359,45.074463,-17.211914,4.119873,33.302734
58800,-8.283937,0.248997,1.067814,34.088135,-4.547119,-19.165039,33.283203
58840,-5.372589,-0.603339,0.311246,7.171631,-61.431885,30.853271,33.292969
58880,-0.483629,0.809240,0.038307,-24.230957,-39.001465,-3.814697,33.312500
58920,-2.303222,13.733141,3.543418,-106.903076,-74.218750,-37.719727,33.300781
58960,-2.604892,24.746469,-1.948880,-11.474609,1.464844,13.061523,33.302734
59000,-1.991976,19.622877,-6.536170,40.649414,-89.019775,-5.157471,33.283203
59040,0.100556,13.335704,-5.880159,57.678223,-105.194092,16.693115,33.289062
59080,2.293645,7.728483,-2.940080,58.929443,-64.880371,29.693604,33.300781
59120,0.234632,4.170700,3.715801,54.290771,-102.935791,-24.688721,33.300781
59160,0.861913,1.350330,7.345411,41.931152,62.255859,-29.235840,33.312500
59200,2.767697,0.483629,3.950433,14.221191,93.231201,-8.697510,33.292969
59240,-2.624045,9.935937,3.323152,-195.068359,-74.584961,-76.873779,33.337891
59280,-0.995988,25.311501,-2.188300,-27.343750,103.271484,1.037598,33.310547
59320,0.167594,22.246922,-4.745308,-24.475098,155.395508,8.697510,33.316406
59360,1.010353,14.887146,-4.817134,-4.577637,123.596191,30.731201,33.328125
59400,-1.393425,8.226477,-2.475605,40.771484,58.502197,52.215576,33.343750
59440,-5.990293,2.523489,-0.019154,24.963379,38.482666,-10.070801,33.314453
59480,-8.049306,-0.095768,0.684742,1.403809,9.063721,10.314941,33.335938
59520,-4.218584,-0.809240,-0.330400,4.669189,-77.056885,18.493652,33.328125
59560,-0.459687,1.067814,0.191536,-23.529053,-4.638672,7.385254,33.332031
59600,-5.133168,15.500062,3.366248,-124.023438,-75.592041,9.643555,33.347656
59640,-2.877831,25.594017,-3.490746,10.986328,-34.393311,-3.570557,33.328125
59680,-1.173159,18.181568,-6.517017,47.149658,-95.458984,0.976562,33.339844
59720,1.517924,12.516887,-5.166687,57.952881,-109.924316,26.611328,33.324219
59760,2.446874,7.345411,-1.853112,46.875000,-70.739746,24.536133,33.347656
59800,-0.536301,4.017470,4.046201,14.404297,-95.184326,-32.379150,33.308594
59840,-0.632069,0.890643,5.631162,72.021484,11.138916,-12.634277,33.335938
59880,3.045424,-0.210690,2.686294,46.661377,107.757568,-13.366699,33.345703
59920,-1.738190,10.280702,5.090073,-181.427002,-69.854736,-134.155273,33.326172
59960,-1.417367,26.068068,0.617704,-87.707520,93.444824,18.432617,33.347656
60000,1.723825,22.816742,-5.784391,1.251221,181.823730,6.500244,33.351562
60040,0.943315,15.184027,-5.525817,0.183105,164.581299,37.994385,33.345703
60080,-2.039860,8.398860,-2.887407,42.144775,77.056885,51.849365,33.341797
60120,-7.134721,2.911349,-0.062249,12.969971,15.563965,-24.597168,33.339844
60160,-8.312668,0.617704,0.746991,13.000488,-24.322510,9.674072,33.341797
60200,-4.783615,-1.101333,-0.684742,17.974854,-104.553223,30.517578,33.357422
60240,-1.393425,2.983175,0.905008,-60.791016,-64.941406,-23.437500,33.373047
60280,-4.879383,17.401058,1.470040,-82.092285,-76.324463,7.781982,33.359375
60320,-3.505111,23.065739,-5.070919,38.574219,-69.305420,4.028320,33.371094
60360,-1.149217,17.630901,-6.114791,63.629150,-115.631104,13.580322,33.351562
60400,1.628057,11.726800,-4.405331,84.533691,-81.665039,33.966064,33.359375
60440,2.729390,7.120356,-0.905008,48.583984,-43.243408,23.620605,33.357422
60480,0.225055,4.309563,5.090073,16.723633,-86.151123,-24.688721,33.347656
60520,0.196325,0.282516,6.210559,43.823242,52.398682,-7.110596,33.333984
60560,2.173935,-0.330400,2.509123,35.858154,79.223633,-15.930176,33.357422
60600,-5.415684,12.880805,5.032612,-199.157715,-72.784424,-107.788086,33.376953
60640,-0.804452,27.399244,-1.829170,-4.272461,158.294678,18.920898,33.363281
60680,2.011129,20.915747,-5.214571,-17.639160,172.424316,-3.967285,33.367188
60720,1.829170,14.384364,-5.712565,-8.117676,147.735596,27.221680,33.378906
60760,-1.235408,8.489840,-3.849876,37.017822,84.503174,49.652100,33.351562
60800,-6.880936,2.662352,-1.201889,23.895264,26.092529,-31.219482,33.353516
60840,-8.485051,0.359130,0.675165,17.272949,-7.537842,-10.894775,33.361328
60880,-4.611232,-0.780510,0.316035,6.011963,-71.105957,45.288086,33.365234
60920,-0.497994,0.397437,0.368707,-14.282227,-65.002441,7.659912,33.365234
60960,-5.659893,16.472107,3.236961,-150.146484,-48.431396,-32.440186,33.357422
61000,-4.659117,26.556486,-4.453215,27.099609,-24.810791,9.368896,33.361328
61040,-2.461239,18.277336,-6.818686,42.602539,-100.189209,6.164551,33.376953
61080,0.608127,12.023681,-5.741296,60.150146,-112.243652,28.900146,33.367188
61120,2.102109,6.813898,-2.734178,61.279297,-87.097168,38.177490,33.378906
61160,-0.019154,3.931279,2.925714,8.697510,-86.853027,-3.631592,33.363281
61200,-1.039083,1.575385,5.937620,58.654785,-48.583984,-20.538330,33.394531
61240,2.509123,-0.517148,3.236961,46.295166,111.236572,10.864258,33.402344
61280,0.565032,6.339846,4.161122,-138.885498,-62.133789,-195.465088,33.400391
61320,-4.692636,24.909275,2.806004,-163.848877,56.854248,0.579834,33.396484
61360,-1.546654,24.751257,-6.263232,-3.509521,122.741699,5.554199,33.406250
61400,-0.287304,16.309301,-6.435614,-10.131836,141.784668,20.263672,33.402344
61440,-1.503559,10.352529,-2.758120,34.240723,98.510742,50.598145,33.406250
61480,-4.209007,3.888184,-0.234632,36.102295,12.023926,16.784668,33.419922
61520,-6.732495,0.354342,1.532289,11.352539,-18.310547,-13.916016,33.437500
61560,-4.730943,-0.833182,0.895431,4.974365,-52.612305,54.901123,33.406250
61600,-1.719037,-0.924162,0.000000,9.033203,-44.464111,29.541016,33.412109
61640,-4.587290,7.709330,4.496311,-160.522461,-73.608398,-61.920166,33.417969
61680,-5.865794,29.439104,-1.268927,-32.104492,-28.289795,-7.354736,33.421875
61720,-3.672705,22.960394,-6.224925,69.732666,-64.697266,-7.965088,33.400391
61760,-0.809240,13.460202,-5.971139,61.370850,-92.102051,11.291504,33.414062
61800,2.456451,7.776367,-3.246537,58.654785,-48.492432,40.435791,33.400391
61840,1.221043,3.591303,1.493982,48.065186,-57.312012,19.592285,33.419922
61880,-1.192312,1.613692,5.971139,48.858643,-79.467773,-26.947021,33.427734
61920,1.489193,-0.311246,4.778827,32.287598,110.015869,-3.692627,33.410156
61960,2.796427,1.288081,1.637634,8.758545,99.273682,-44.525146,33.406250
62000,-6.133945,17.822437,6.435614,-212.402344,-71.716309,-72.662354,33.400391
62040,-2.389413,28.706478,-3.878607,-16.143799,127.655029,32.531738,33.402344
62080,-0.392649,19.661184,-7.843405,13.671875,141.845703,19.927979,33.404297
62120,-0.397437,12.033257,-5.348647,33.752441,114.410400,45.898438,33.406250
62160,-3.711013,6.272809,-1.393425,54.718018,30.212402,23.132324,33.421875
62200,-7.613562,2.245761,1.235408,20.782471,-24.505615,-28.991699,33.404297
62240,-6.028600,-0.110133,1.599327,20.019531,-31.097412,44.372559,33.414062
62280,-2.351106,-1.388637,0.608127,12.329102,-29.968262,57.464600,33.419922
62320,-1.292869,3.361459,2.226608,-76.110840,-75.866699,-50.994873,33.435547
62360,-5.463568,24.392126,-0.244209,-88.073730,-40.466309,-5.371094,33.435547
62400,-4.161122,24.416069,-6.876147,63.629150,-43.243408,9.552002,33.421875
62440,-1.862689,15.796943,-7.829040,63.018799,-111.480713,14.465332,33.425781
62480,1.786075,9.739613,-5.267244,63.446045,-81.909180,39.215088,33.414062
62520,1.225831,5.099649,0.421380,24.688721,-72.448730,12.207031,33.435547
62560,-0.636858,3.155558,6.421249,45.135498,-97.229004,-31.738281,33.445312
62600,2.135628,0.081403,5.798757,29.022217,123.840332,3.143311,33.433594
62640,1.747767,1.537078,2.839523,-23.315430,15.686035,-56.121826,33.429688
62680,-5.497087,19.809626,3.825934,-220.336914,10.101318,-43.701172,33.437500
62720,-1.446098,26.355371,-5.492299,18.280029,156.982422,6.195068,33.406250
62760,0.153229,17.836803,-7.187394,-19.897461,135.742188,10.009766,33.439453
62800,-0.746991,11.942278,-3.979163,13.824463,94.757080,35.736084,33.412109
62840,-3.399766,5.564125,-1.388637,45.227051,45.532227,17.974854,33.414062
62880,-7.541735,0.828394,1.034295,16.754150,15.686035,-19.012451,33.425781
62920,-6.895301,-1.268927,0.866701,-2.227783,-39.459229,29.388428,33.445312
62960,-2.442086,-1.244985,-0.368707,22.644043,-73.150635,31.066895,33.441406
63000,-2.274492,6.071695,3.251326,-118.133545,-66.040039,-53.985596,33.419922
63040,-4.343082,25.325865,-1.240196,-36.712646,-36.987305,-3.540039,33.423828
63080,-3.600879,22.304382,-5.650316,47.851562,-44.860840,-0.091553,33.453125
63120,-1.513135,15.102624,-7.287950,61.309814,-108.215332,9.887695,33.433594
63160,1.244985,10.103531,-4.946421,74.523926,-92.163086,41.961670,33.427734
63200,0.718261,5.406107,0.354342,27.893066,-57.189941,14.343262,33.433594
63240,-1.072602,2.959233,5.856217,29.876709,-84.686279,-24.597168,33.472656
63280,0.837971,-0.244209,5.746084,28.839111,86.242676,-12.023926,33.457031
63320,2.149993,1.656788,2.375048,-6.378174,66.253662,-64.849854,33.437500
63360,-4.223372,18.215086,5.267244,-206.268311,-2.624512,-67.565918,33.453125
63400,-1.604115,27.289110,-4.050989,-5.767822,137.939453,29.541016,33.435547
63440,-0.095768,19.455282,-6.813898,-18.554688,159.759521,16.784668,33.437500
63480,-1.350330,11.745954,-4.592079,8.026123,125.091553,38.879395,33.453125
63520,-3.711013,5.544971,-1.508347,34.729004,41.809082,26.000977,33.449219
63560,-6.483498,1.096544,0.708684,13.122559,2.868652,-10.162354,33.476562
63600,-5.726931,-0.651223,1.201889,20.935059,-47.973633,49.224854,33.451172
63640,-2.542642,-1.302446,0.196325,-4.455566,-29.785156,53.802490,33.464844
63680,-2.695871,2.173935,2.025495,-57.342529,-40.618896,-67.993164,33.425781
63720,-7.062895,23.894133,0.713472,-149.841309,-23.925781,-23.712158,33.462891
63760,-2.935291,28.280310,-5.444415,85.021973,-68.389893,5.035400,33.437500
63800,-2.346318,15.945383,-6.588843,78.125000,-105.163574,2.227783,33.472656
63840,1.489193,8.571242,-5.315128,57.342529,-32.226562,40.832520,33.470703
63880,2.001553,3.983952,-1.053449,46.081543,-55.480957,37.841797,33.472656
63920,-1.651999,3.074155,5.425261,0.732422,-120.544434,-34.851074,33.462891
63960,0.354342,0.790087,6.708553,82.763672,26.489258,0.091553,33.486328
64000,3.490746,1.177947,3.902549,-6.225586,107.757568,-34.606934,33.466797
64040,-1.690306,14.417883,4.917690,-209.411621,11.383057,-127.838135,33.468750
64080,-2.485181,27.030537,-4.132392,-16.876221,115.600586,24.780273,33.453125
64120,-0.842759,21.188684,-8.188169,13.336182,176.116943,18.218994,33.488281
64160,-0.972046,13.163321,-5.889736,22.583008,132.049561,43.609619,33.455078
64200,-3.457227,6.612785,-1.905785,51.605225,38.848877,27.587891,33.482422
64240,-7.340622,2.030283,1.359907,13.519287,-2.441406,-41.442871,33.472656
64280,-6.335058,-0.488417,1.948880,13.854980,-23.284912,40.863037,33.464844
64320,-2.250550,-1.599327,0.397437,13.183594,12.298584,62.133789,33.458984
64360,-1.541866,2.188300,0.928950,-65.093994,-91.796875,-76.751709,33.451172
64400,-6.780379,22.136789,-0.474052,-113.830566,-34.301758,-7.385254,33.419922
64440,-4.376601,25.493460,-7.173028,65.093994,-64.239502,6.927490,33.472656
64480,-1.594538,15.734694,-7.896077,66.894531,-103.912354,24.566650,33.470703
64520,1.991976,10.309433,-5.516241,71.685791,-93.811035,48.370361,33.484375
64560,1.192312,6.421249,0.057461,17.791748,-89.599609,16.052246,33.462891
64600,-1.086968,3.883395,5.731719,14.648438,-106.781006,-29.479980,33.488281
64640,1.508347,-0.407014,5.841852,44.067383,119.567871,-1.342773,33.480469
64680,1.580173,2.035071,3.969586,-38.696289,-3.845215,-96.099854,33.482422
64720,-4.007894,20.058622,3.117251,-207.458496,22.766113,-58.959961,33.490234
64760,-2.030283,26.020184,-5.353435,2.502441,145.935059,0.671387,33.478516
64800,-0.023942,17.587805,-6.876147,-19.317627,148.651123,16.601562,33.488281
64840,-0.713472,11.166556,-4.520253,15.991211,109.863281,40.985107,33.458984
64880,-3.643975,5.568913,-2.073379,49.926758,47.607422,19.653320,33.494141
64920,-8.073248,0.933739,0.641646,30.029297,7.110596,-18.280029,33.482422
64960,-6.564901,-1.077391,0.584185,3.906250,-39.672852,42.480469,33.468750
65000,-2.097321,-1.379060,-0.287304,23.773193,-22.796631,56.030273,33.472656
65040,-1.905785,3.940856,2.700660,-99.792480,-100.585938,-80.841064,33.480469
65080,-5.837064,25.431210,0.435745,-52.459717,-7.629395,-7.263184,33.464844
65120,-4.635174,22.965183,-6.880936,54.809570,-45.257568,0.030518,33.486328
65160,-2.647987,14.877569,-8.552089,44.921875,-123.474121,9.613037,33.494141
65200,0.651223,9.821015,-5.803545,78.094482,-89.935303,25.177002,33.488281
65240,1.848324,5.956774,-0.919373,62.377930,-48.645020,32.501221,33.511719
65280,0.138864,3.936068,6.430826,36.834717,-67.230225,-28.656006,33.509766
65320,3.016694,1.139640,6.852205,30.548096,137.420654,-12.023926,33.484375
65360,3.045424,0.450110,2.422932,6.378174,64.422607,1.220703,33.533203
65400,-7.848193,12.636597,2.633622,-233.245850,-57.922363,-73.394775,33.519531
65440,-3.758897,27.873297,-6.287174,-15.319824,93.353271,7.019043,33.509766
65480,-0.071826,20.920534,-6.382942,-25.512695,132.812500,17.547607,33.511719
65520,1.206678,13.129802,-5.137957,-1.525879,120.239258,23.223877,33.533203
65560,-2.403779,7.503428,-2.513912,33.355713,64.544678,10.314941,33.513672
65600,-7.896077,2.264915,0.143652,23.437500,13.244629,-20.935059,33.515625
65640,-7.929596,-0.608127,0.699107,9.033203,-24.597168,23.559570,33.515625
65680,-3.552995,-1.264138,-0.057461,13.793945,-73.822021,52.764893,33.517578
65720,-0.172383,0.718261,0.253785,-10.589600,-79.528809,11.932373,33.525391
65760,-4.888960,17.573441,2.786851,-194.366455,-44.128418,-30.944824,33.513672
65800,-4.434062,27.054480,-4.352659,43.701172,-34.210205,7.049561,33.488281
65840,-3.246537,17.721882,-7.331046,69.641113,-103.302002,1.373291,33.517578
65880,0.277727,11.161768,-6.823475,74.584961,-100.036621,36.102295,33.531250
65920,1.594538,6.449979,-2.418144,53.710938,-67.749023,33.966064,33.527344
65960,-0.502782,4.462792,4.031836,-10.101318,-88.989258,-25.451660,33.501953
66000,-0.483629,1.460463,6.181829,72.601318,0.823975,-32.379150,33.529297
66040,2.600103,-0.225055,3.552995,26.489258,106.658936,-9.155273,33.505859
66080,-0.866701,10.438720,5.209783,-197.784424,-50.140381,-168.548584,33.500000
66120,-3.691859,26.910828,-0.636858,-84.503174,80.108643,11.749268,33.525391
66160,-1.838747,23.003490,-7.153875,-20.080566,158.935547,2.502441,33.517578
66200,-1.024718,14.312538,-6.703765,-9.063721,142.425537,25.726318,33.511719
66240,-2.647987,8.125920,-3.174711,41.625977,72.875977,62.927246,33.517578
66280,-5.880159,2.398990,-0.550666,28.930664,9.063721,-0.946045,33.501953
66320,-6.866570,0.124498,1.460463,30.120850,-27.008057,11.901855,33.490234
66360,-4.055778,-1.197101,1.091756,0.549316,-29.388428,61.279297,33.529297
66400,-1.996764,-0.497994,1.048660,-12.512207,-60.546875,5.889893,33.509766
66440,-7.182605,11.789049,2.834735,-163.848877,-38.330078,-39.184570,33.501953
66480,-4.539406,28.878860,-4.994305,20.050049,-50.201416,2.044678,33.511719
66520,-3.323152,19.910181,-6.742072,66.894531,-85.937500,8.697510,33.517578
66560,0.162806,11.966220,-6.411672,79.681396,-84.716797,33.264160,33.525391
66600,2.020706,7.105990,-3.241749,55.786133,-66.864014,43.762207,33.517578
66640,-0.196325,4.951209,3.318364,-2.288818,-90.026855,-6.896973,33.531250
66680,-0.823605,2.456451,5.784391,66.467285,-52.703857,-22.216797,33.521484
66720,2.695871,-0.651223,3.744531,37.384033,134.643555,5.645752,33.517578
66760,-0.287304,6.507440,4.525041,-149.688721,-58.868408,-165.985107,33.546875
66800,-4.094085,24.698586,1.651999,-143.676758,65.093994,13.366699,33.513672
66840,-1.393425,23.467964,-6.742072,9.033203,135.406494,7.690430,33.531250
66880,-0.909797,15.595830,-6.493075,-3.143311,134.704590,25.421143,33.533203
66920,-2.207454,9.414001,-3.179500,36.895752,86.303711,48.553467,33.537109
66960,-5.324705,3.629610,-0.842759,46.966553,13.000488,8.544922,33.515625
67000,-7.259220,0.407014,1.154005,30.761719,-28.076172,-8.636475,33.529297
67040,-4.841076,-1.221043,0.823605,13.671875,-43.945312,52.062988,33.501953
67080,-1.637634,0.268151,1.063026,-1.251221,-61.676025,10.681152,33.513672
67120,-4.424485,14.963760,2.671929,-157.318115,-5.249023,-17.944336,33.513672
67160,-3.471592,27.303476,-4.544195,34.332275,-29.754639,-0.732422,33.521484
67200,-3.069367,18.205509,-7.445967,61.614990,-83.404541,-0.061035,33.550781
67240,-0.153229,11.664551,-6.856994,56.976318,-97.625732,37.384033,33.556641
67280,1.805228,6.794744,-2.604892,44.799805,-64.361572,36.895752,33.554688
67320,-0.253785,3.687071,3.672705,8.575439,-71.990967,-12.481689,33.566406
67360,-0.268151,0.656011,6.229713,64.208984,4.333496,-12.207031,33.570312
67400,2.571373,-0.330400,3.356671,22.186279,126.159668,-17.120361,33.564453
67440,-2.126051,8.614338,4.678270,-171.752930,-69.122314,-141.174316,33.541016
67480,-3.418920,26.374525,-1.642422,-97.412109,59.478760,-2.166748,33.564453
67520,-1.896208,23.501484,-6.703765,-7.781982,146.148682,-4.730225,33.550781
67560,-0.306458,15.246277,-6.133945,-13.641357,122.070312,23.864746,33.548828
67600,-1.460463,9.169792,-3.485958,31.341553,86.975098,37.963867,33.541016
67640,-5.276821,2.959233,-0.914585,35.034180,16.662598,-5.798340,33.574219
67680,-7.278373,0.047884,1.661576,22.094727,-11.901855,1.708984,33.558594
67720,-4.534618,-0.967257,0.684742,11.108398,-56.243896,59.143066,33.542969
67760,-1.522712,0.023942,0.344765,-11.016846,-50.872803,8.239746,33.564453
67800,-5.363012,11.396400,4.314352,-187.011719,-28.869629,-63.232422,33.564453
67840,-4.390966,27.964275,-3.418920,18.676758,-37.322998,13.153076,33.556641
67880,-3.624821,19.651608,-6.837840,64.605713,-86.975098,-1.556396,33.572266
67920,-1.019930,11.913548,-6.507440,62.011719,-92.651367,24.139404,33.562500
67960,1.613692,7.264008,-3.418920,59.356689,-78.399658,38.574219,33.546875
68000,0.416591,4.481946,2.173935,27.709961,-61.645508,8.544922,33.564453
68040,-0.426168,2.226608,6.368577,63.659668,-64.270020,-26.458740,33.578125
68080,1.982399,-0.057461,4.965574,24.383545,103.942871,-28.594971,33.589844
68120,-0.866701,7.321469,4.927267,-146.850586,-4.730225,-122.131348,33.570312
68160,-4.309563,25.201366,0.507571,-107.940674,39.215088,-2.990723,33.558594
68200,-1.972822,24.037785,-5.975927,-3.845215,137.512207,-3.570557,33.558594
68240,-0.517148,15.337256,-5.918467,-16.174316,134.735107,21.667480,33.578125
68280,-1.187524,9.232041,-2.896984,29.296875,95.520020,43.334961,33.548828
68320,-3.998317,3.327940,-0.732626,33.050537,42.236328,10.559082,33.570312
68360,-6.708553,0.090980,1.240196,31.616211,-11.749268,-0.061035,33.574219
68400,-5.137957,-1.326388,1.024718,4.058838,-46.325684,50.201416,33.560547
68440,-2.178724,-0.426168,0.651223,-5.035400,-56.701660,9.246826,33.576172
68480,-5.530606,9.107543,3.390190,-125.732422,-53.771973,-25.726318,33.550781
68520,-4.860229,26.992229,-3.538630,-3.814697,-58.074951,-14.160156,33.568359
68560,-3.572149,21.193474,-5.382165,65.124512,-72.540283,-0.976562,33.560547
68600,-0.900220,13.555970,-6.545747,83.099365,-102.722168,18.585205,33.574219
68640,1.417367,8.192958,-4.534618,79.223633,-92.437744,39.672852,33.564453
68680,0.991199,4.912902,0.962469,24.780273,-55.786133,9.216309,33.572266
68720,-0.833182,2.968810,5.276821,27.618408,-101.989746,-25.604248,33.568359
68760,1.503559,-0.234632,4.922479,60.089111,89.813232,-3.143311,33.576172
68800,1.867477,4.525041,4.094085,-73.028564,13.732910,-114.166260,33.570312
68840,-4.424485,24.339455,4.070143,-173.278809,22.735596,-17.456055,33.568359
68880,-1.604115,25.268404,-5.908890,11.108398,143.188477,2.655029,33.583984
68920,-1.039083,15.691598,-7.010222,-7.629395,124.847412,13.977051,33.593750
68960,-1.862689,9.567230,-4.103662,25.482178,82.305908,23.559570,33.564453
69000,-4.118027,3.998317,-1.407791,57.525635,5.767822,13.305664,33.576172
69040,-6.727707,0.603339,1.307234,28.381348,-26.519775,-5.706787,33.566406
69080,-5.262455,-1.211466,1.503559,13.061523,-48.858643,48.126221,33.576172
69120,-1.728614,-0.497994,0.699107,8.453369,-44.036865,22.827148,33.591797
69160,-4.525041,9.720459,3.050213,-133.544922,-60.852051,-32.226562,33.595703
69200,-4.812346,26.628311,-3.145981,9.155273,-24.475098,2.502441,33.603516
69240,-3.112462,20.690691,-7.484274,58.776855,-86.395264,6.225586,33.599609
69280,-0.497994,13.474567,-6.833052,58.258057,-116.363525,15.594482,33.574219
69320,2.183512,7.685388,-4.098873,76.202393,-84.808350,38.482666,33.589844
69360,1.230620,4.438850,1.474828,27.191162,-55.175781,2.044678,33.589844
69400,-0.363919,2.987964,6.981492,48.645020,-83.435059,-20.660400,33.583984
69440,2.322376,0.220267,4.917690,16.906738,118.377686,-12.329102,33.603516
69480,1.484405,3.189077,2.001553,-48.797607,52.612305,-83.068848,33.591797
69520,-6.493075,22.792801,0.670376,-126.861572,-29.113770,-13.397217,33.576172
69560,-2.576161,24.574087,-5.573701,12.084961,134.246826,-8.880615,33.589844
69600,0.076614,15.514427,-6.564901,-14.709473,102.478027,16.387939,33.603516
69640,-0.215478,10.251971,-4.553771,17.333984,83.618164,24.169922,33.609375
69680,-3.734955,5.425261,-1.580173,42.510986,21.331787,5.493164,33.613281
69720,-7.125144,1.527501,0.976834,27.862549,-18.005371,-12.786865,33.603516
69760,-5.908890,-0.689530,1.197101,6.896973,-45.349121,46.691895,33.599609
69800,-1.493982,-0.090980,0.220267,13.214111,-66.436768,30.944824,33.617188
69840,-5.090073,9.935937,2.308010,-133.148193,-80.352783,-37.109375,33.585938
69880,-5.607220,25.761610,-3.806781,8.941650,-69.976807,0.946045,33.593750
69920,-3.069367,19.809626,-6.727707,46.875000,-94.360352,10.955811,33.605469
69960,0.766145,13.675680,-6.952762,48.889160,-138.763428,16.876221,33.591797
70000,3.313575,8.451532,-4.070143,69.915771,-92.926025,33.691406,33.589844
70040,1.704672,3.739743,0.694318,55.633545,-72.326660,13.946533,33.605469
70080,-0.742203,1.637634,6.493075,50.140381,-107.666016,-17.761230,33.601562
70120,1.254562,0.229843,4.879383,23.101807,53.985596,-10.650635,33.623047
70160,0.636858,4.405331,2.528277,-64.422607,17.395020,-86.151123,33.619141
70200,-6.224925,24.827871,1.010353,-84.381104,-45.471191,5.004883,33.632812
70240,-1.910573,24.224533,-3.854665,-0.183105,128.814697,-13.549805,33.580078
70280,1.417367,15.337256,-5.597643,-17.181396,95.855713,10.009766,33.591797
70320,-0.062249,10.524911,-3.414132,29.052734,48.950195,12.390137,33.603516
70360,-2.638410,5.161899,-1.537078,50.079346,7.781982,16.571045,33.601562
70400,-5.655105,1.814805,0.622492,19.378662,-20.568848,-6.347656,33.599609
70440,-6.033388,-0.119710,1.561020,4.608154,-59.387207,31.250000,33.626953
70480,-3.198653,0.119710,0.766145,-4.669189,-88.378906,11.688232,33.603516
70520,-6.296751,9.011775,1.177947,-111.022949,-138.580322,-30.212402,33.619141
70560,-4.012682,25.421633,-3.174711,13.488770,-87.524414,8.209229,33.615234
70600,-1.608904,20.843920,-6.124368,53.070068,-123.321533,-16.052246,33.597656
70640,0.181959,14.757859,-6.248867,40.008545,-132.354736,1.403809,33.601562
70680,2.212242,9.567230,-3.404555,68.206787,-99.945068,14.068604,33.640625
70720,1.810017,4.888960,0.588974,56.823730,-63.964844,-9.613037,33.609375
70760,0.220267,1.733402,4.390966,64.788818,-61.035156,-25.817871,33.609375
70800,1.766921,-0.009577,4.141969,49.011230,59.051514,-30.029297,33.607422
70840,1.225831,1.991976,2.734178,-0.305176,25.848389,-15.228271,33.613281
70880,-7.594408,19.244593,4.616021,-165.771484,-100.280762,-20.690918,33.613281
70920,-1.403002,24.598028,-4.501099,22.552490,111.694336,8.911133,33.609375
70960,-0.277727,17.448942,-5.650316,-17.028809,85.876465,6.134033,33.615234
71000,0.579397,11.822568,-4.252102,10.711670,80.017090,24.139404,33.628906
71040,-1.900996,7.225701,-2.193089,40.496826,33.416748,35.949707,33.621094
71080,-5.770026,2.877831,-0.258574,25.787354,2.441406,-3.631592,33.621094
71120,-6.895301,-0.100556,1.326388,19.439697,-22.186279,37.048340,33.609375
71160,-3.763685,-1.110910,0.565032,17.211914,-73.852539,53.985596,33.638672
71200,-2.916138,2.331953,0.411803,-28.930664,-100.982666,-9.094238,33.628906
71240,-8.825027,21.504719,-1.264138,-98.815918,-107.727051,-19.134521,33.648438
71280,-3.591303,25.603594,-6.986280,76.019287,-84.777832,5.279541,33.644531
71320,-1.063026,16.414646,-8.762778,55.603027,-143.463135,6.256104,33.658203
71360,2.442086,10.826580,-6.631939,63.873291,-114.135742,29.479980,33.636719
71400,2.566584,6.603208,-0.794875,29.144287,-92.346191,-7.751465,33.632812
71440,0.062249,3.768473,6.019023,48.492432,-126.861572,-25.573730,33.650391
71480,2.020706,0.397437,6.426037,61.614990,48.553467,-22.918701,33.660156
71520,1.517924,1.982399,4.098873,-4.150391,24.810791,-16.693115,33.662109
71560,-5.295974,17.726669,2.159570,-188.964844,-33.142090,-38.665771,33.648438
71600,-3.524265,25.938782,-4.419696,1.129150,105.743408,6.164551,33.658203
71640,-1.029507,17.903841,-5.722142,-41.564941,133.422852,7.568359,33.646484
71680,0.071826,11.702858,-4.774038,4.669189,118.896484,25.451660,33.658203
71720,-2.202666,6.440403,-2.398990,27.984619,69.519043,29.479980,33.648438
71760,-6.172252,2.188300,-0.454898,20.141602,-1.861572,2.288818,33.638672
71800,-7.029376,-0.086191,1.412579,2.807617,-19.134521,32.592773,33.662109
71840,-4.745308,-1.000776,0.780510,-4.547119,-71.075439,49.560547,33.654297
71880,-5.616797,4.065354,1.149217,-63.842773,-72.204590,-20.599365,33.658203
71920,-5.932832,24.358608,-4.204218,-44.799805,-108.642578,28.076172,33.654297
71960,-2.624045,23.372196,-6.335058,65.185547,-97.137451,6.439209,33.667969
72000,-0.857124,13.340492,-6.880936,62.469482,-129.119873,20.050049,33.652344
72040,2.236184,8.188169,-5.104438,61.584473,-105.590820,39.672852,33.646484
72080,1.738190,5.851429,0.636858,-0.762939,-100.646973,-2.624512,33.666016
72120,-0.799663,2.873042,4.865018,46.844482,-131.805420,-30.517578,33.652344
72160,1.824382,-0.742203,5.262455,70.068359,42.083740,-7.324219,33.648438
72200,1.905785,4.098873,5.209783,-61.950684,26.824951,-67.718506,33.660156
72240,-2.868254,22.414516,2.801216,-181.945801,36.407471,-40.130615,33.648438
72280,-3.873818,25.780764,-6.311116,9.735107,142.852783,24.047852,33.683594
72320,-1.561020,16.649279,-7.354988,5.645752,152.374268,22.216797,33.654297
72360,-1.910573,9.758766,-4.041412,8.789062,126.770020,28.350830,33.646484
72400,-5.147533,4.185065,-0.967257,43.395996,33.050537,16.784668,33.658203
72440,-7.129933,0.775721,0.986411,29.724121,-22.796631,4.058838,33.667969
72480,-5.157111,-1.297657,1.316811,-7.171631,-43.029785,69.549561,33.669922
72520,-1.685518,-1.359907,-0.086191,16.754150,-39.642334,52.398682,33.666016
72560,-4.616021,5.750873,2.489970,-121.276855,-95.306396,-55.999756,33.640625
72600,-6.651093,26.748022,-3.165135,-45.684814,-23.162842,4.333496,33.662109
72640,-3.083732,23.046585,-7.685388,94.543457,-85.815430,14.770508,33.667969
72680,-0.684742,13.206416,-8.298303,65.612793,-94.024658,25.573730,33.681641
72720,2.355895,8.418014,-5.204995,61.187744,-58.258057,49.072266,33.667969
72760,0.785298,6.042965,1.714248,2.746582,-70.220947,8.941650,33.666016
72800,-1.106121,3.600879,7.570466,52.185059,-124.572754,-20.690918,33.658203
72840,2.193089,-0.239420,5.233725,29.174805,110.961914,-12.695312,33.662109
72880,-0.426168,4.860229,3.093309,-96.405029,9.826660,-110.626221,33.667969
72920,-5.468357,24.372972,-0.325611,-117.156982,26.824951,-13.366699,33.650391
72960,-1.240196,24.181437,-6.205771,0.701904,154.876709,-0.061035,33.669922
73000,1.019930,15.236700,-6.646304,-11.413574,126.037598,13.580322,33.683594
73040,-0.981623,8.571242,-3.481169,29.083252,91.308594,24.047852,33.677734
73080,-5.544971,2.734178,-0.986411,32.928467,39.428711,0.701904,33.677734
73120,-8.226477,-0.181959,1.168370,18.066406,-9.368896,-1.403809,33.712891
73160,-5.214571,-1.350330,0.153229,11.840820,-71.319580,38.635254,33.708984
73200,-0.641646,0.038307,-0.679953,14.984131,-65.216064,39.550781,33.718750
73240,-5.870583,14.307750,2.978387,-148.406982,-60.607910,-32.043457,33.708984
73280,-3.993528,25.886108,-4.376601,32.714844,-6.042480,0.305176,33.685547
73320,-2.868254,17.946936,-8.183381,47.332764,-110.443115,7.324219,33.714844
73360,0.129287,11.822568,-7.809886,70.343018,-119.598389,22.918701,33.701172
73400,1.685518,7.283162,-3.375824,62.713623,-85.662842,29.113770,33.710938
73440,-0.057461,4.826711,3.591303,13.916016,-92.590332,-9.765625,33.693359
73480,0.220267,2.092532,7.321469,50.292969,-2.105713,-22.277832,33.679688
73520,3.505111,0.378284,3.557784,21.087646,126.892090,-6.896973,33.730469
73560,-1.556231,8.116343,3.600879,-141.143799,-38.970947,-102.111816,33.730469
73600,-4.764462,25.684996,-1.723825,-95.245361,16.754150,-0.152588,33.699219
73640,-2.049437,22.826319,-7.249643,-5.859375,135.772705,-4.669189,33.707031
73680,0.043096,14.489709,-6.909666,-11.383057,141.174316,18.035889,33.712891
73720,-1.302446,9.356541,-3.663129,22.369385,106.536865,24.658203,33.693359
73760,-5.741296,3.940856,-0.746991,20.385742,18.493652,-7.446289,33.701172
73800,-7.086837,0.694318,1.613692,18.707275,-21.636963,-2.471924,33.714844
73840,-4.467580,-1.139640,1.163582,-6.744385,-44.219971,71.838379,33.705078
73880,-2.092532,0.459687,1.024718,-18.127441,-54.199219,1.373291,33.714844
73920,-7.354988,15.006856,1.838747,-179.992676,-39.489746,-42.297363,33.701172
73960,-4.429273,26.925192,-5.128380,48.919678,-57.373047,-0.823975,33.716797
74000,-2.691083,17.841591,-6.876147,58.044434,-92.651367,12.573242,33.712891
74040,0.234632,10.692505,-6.282385,71.380615,-107.818604,31.127930,33.708984
74080,1.867477,6.133945,-2.911349,56.182861,-78.094482,31.616211,33.716797
74120,-0.335188,4.376601,3.548207,-1.464844,-77.941895,-14.862061,33.740234
74160,-0.656011,1.675941,5.995081,83.435059,-53.802490,-11.871338,33.730469
74200,2.566584,-0.282516,3.643975,52.337646,117.492676,-12.329102,33.720703
74240,-1.958457,10.472239,5.784391,-182.861328,-23.406982,-130.859375,33.732422
74280,-3.567361,27.475859,-1.733402,-87.738037,64.056396,19.104004,33.707031
74320,-1.474828,22.328325,-7.091625,1.037598,147.003174,7.995605,33.707031
74360,-0.181959,13.733141,-6.464345,-0.518799,136.138916,23.620605,33.730469
74400,-2.557007,7.876924,-3.088520,37.963867,72.143555,23.284912,33.720703
74440,-6.502652,2.691083,-0.521936,25.390625,5.065918,-0.946045,33.714844
74480,-7.086837,-0.325611,1.671153,26.000977,-24.291992,19.866943,33.720703
74520,-4.185065,-1.824382,0.976834,2.197266,-36.682129,58.624268,33.710938
74560,-1.733402,1.551443,1.139640,-27.862549,-50.506592,-8.605957,33.738281
74600,-6.900089,17.554287,-1.149217,-106.689453,-42.022705,-4.699707,33.740234
74640,-4.419696,25.493460,-6.746861,52.673340,-72.296143,14.556885,33.720703
74680,-2.202666,17.314867,-7.843405,55.511475,-113.220215,14.923096,33.722656
74720,1.101333,11.104307,-6.229713,65.521240,-106.964111,34.515381,33.716797
74760,1.723825,7.010222,-1.465251,22.857666,-84.075928,11.108398,33.710938
74800,-0.287304,4.185065,4.783615,36.926270,-113.586426,-10.894775,33.724609
74840,1.302446,0.201113,6.205771,42.480469,108.184814,-7.171631,33.710938
74880,2.542642,0.430956,3.418920,14.556885,59.967041,-20.080566,33.705078
74920,-4.783615,16.893488,4.338294,-234.710693,-7.537842,-91.033936,33.708984
74960,-2.978387,27.169401,-5.080496,-16.693115,126.708984,-11.413574,33.732422
75000,-1.374272,18.933348,-6.861782,-38.604736,134.338379,4.486084,33.714844
75040,-0.919373,11.305421,-5.966351,-14.556885,122.406006,15.167236,33.724609
75080,-2.968810,5.918467,-3.088520,33.996582,90.118408,29.296875,33.714844
75120,-7.005434,1.177947,-0.205901,26.947021,24.047852,-11.230469,33.748047
75160,-7.192182,-1.015141,0.363919,-5.493164,-32.012939,45.593262,33.751953
75200,-3.011906,-1.168370,-0.608127,24.353027,-88.134766,46.539307,33.746094
75240,-1.589750,1.527501,0.861913,-42.266846,-88.073730,-15.106201,33.748047
75280,-7.326257,19.464859,1.838747,-144.683838,-5.828857,-12.207031,33.761719
75320,-3.447650,26.388891,-5.477933,73.242188,-47.119141,12.451172,33.751953
75360,-2.475605,15.701175,-7.805098,47.851562,-95.428467,9.857178,33.757812
75400,0.550666,9.926360,-6.315904,64.849854,-77.606201,31.463623,33.744141
75440,1.340753,6.651093,-1.517924,51.025391,-44.372559,29.357910,33.742188
75480,-0.957681,4.697424,5.224148,16.571045,-88.867188,-22.216797,33.720703
75520,-0.100556,0.924162,6.560112,38.848877,58.013916,-9.155273,33.736328
75560,2.600103,0.004788,2.657564,14.678955,118.377686,-24.810791,33.755859
75600,-4.898537,12.306197,4.194642,-226.226807,-39.825439,-123.321533,33.763672
75640,-4.304775,28.931534,-4.328717,-58.990479,73.883057,18.310547,33.744141
75680,-1.177947,21.739351,-7.149086,-15.991211,151.367188,-2.960205,33.728516
75720,-0.100556,12.559982,-6.617573,-6.469727,131.805420,26.580811,33.759766
75760,-2.786851,7.584831,-3.174711,20.416260,89.294434,22.796631,33.746094
75800,-6.517017,2.786851,-0.229843,10.101318,14.221191,-15.289307,33.771484
75840,-6.325481,-0.172383,1.556231,23.559570,-28.747559,28.228760,33.750000
75880,-3.490746,-1.527501,0.732626,6.164551,-25.787354,66.070557,33.746094
75920,-2.920926,1.484405,1.968034,-39.428711,-39.276123,-27.679443,33.755859
75960,-7.905654,18.181568,0.153229,-164.825439,-20.812988,-11.627197,33.753906
76000,-4.477157,27.921181,-5.913678,72.143555,-80.261230,-7.781982,33.736328
76040,-2.892196,16.117765,-6.804321,60.882568,-90.698242,13.793945,33.732422
76080,1.000776,8.748413,-5.736507,80.596924,-84.655762,40.893555,33.736328
76120,2.049437,4.965574,-1.666364,50.689697,-58.563232,38.574219,33.726562
76160,-0.732626,3.667917,4.381389,-1.495361,-84.259033,-7.598877,33.767578
76200,-0.833182,0.837971,6.320693,65.429688,-29.846191,-8.056641,33.751953
76240,2.365471,0.095768,3.179500,29.022217,111.816406,-23.468018,33.730469
76280,-2.509123,12.780249,5.214571,-209.320068,-10.833740,-140.930176,33.736328
76320,-3.380613,28.783092,-2.375048,-45.928955,98.236084,26.885986,33.742188
76360,-1.187524,21.672314,-7.316680,-11.016846,158.721924,5.828857,33.767578
76400,-0.574608,13.479356,-6.746861,-3.570557,133.514404,22.735596,33.746094
76440,-2.585738,7.450756,-3.098097,39.764404,82.763672,28.137207,33.750000
76480,-6.397307,2.126051,-0.301669,23.437500,11.901855,-7.049561,33.769531
76520,-6.569689,-0.282516,1.661576,19.317627,-22.705078,24.536133,33.765625
76560,-3.509900,-1.403002,0.670376,7.324219,-30.609131,66.345215,33.755859
76600,-1.460463,0.857124,0.521936,-4.547119,-45.074463,-6.591797,33.755859
76640,-7.211336,17.970879,1.948880,-166.595459,-22.399902,-51.177979,33.746094
76680,-3.936068,26.604370,-5.698200,60.852051,-29.022217,10.925293,33.759766
76720,-2.662352,16.448166,-7.824251,44.708252,-97.686768,14.373779,33.750000
76760,0.526724,10.563218,-6.464345,63.476562,-85.723877,35.186768,33.740234
76800,2.020706,6.560112,-2.810793,57.037354,-54.107666,43.212891,33.759766
76840,-1.000776,4.572925,3.964798,-1.342773,-78.796387,-17.120361,33.771484
76880,-0.905008,2.197877,6.785168,51.330566,-22.857666,-18.493652,33.746094
76920,2.571373,-0.047884,3.787627,34.393311,103.546143,4.211426,33.736328
76960,-3.165135,9.821015,4.050989,-191.955566,-24.566650,-137.634277,33.738281
77000,-3.576937,25.771187,-3.916914,-39.459229,77.239990,5.310059,33.753906
77040,-0.799663,22.333113,-6.962338,-6.805420,135.223389,0.610352,33.755859
77120,-2.025495,9.212888,-3.442862,31.097412,99.334717,22.155762,33.777344
77160,-6.296751,3.102885,-1.259350,17.852783,49.346924,-12.023926,33.777344
77200,-8.336611,-0.713472,0.435745,9.735107,-11.840820,17.425537,33.751953
77240,-4.673482,-1.714248,-0.205901,10.864258,-63.812256,41.168213,33.763672
77280,0.100556,-0.277727,-0.670376,32.623291,-60.455322,38.635254,33.777344
77320,-4.189853,11.994950,3.830723,-176.300049,-37.963867,-88.867188,33.767578
77360,-5.401319,24.741680,-3.792415,1.617432,-29.296875,11.901855,33.753906
77400,-3.974375,19.426552,-7.781156,37.414551,-88.317871,3.173828,33.767578
77440,-0.684742,13.144167,-7.809886,58.685303,-114.807129,25.543213,33.767578
77480,1.168370,8.494628,-4.606444,76.232910,-88.378906,51.910400,33.753906
77520,0.330400,5.583278,1.321599,6.774902,-76.934814,6.927490,33.769531
77560,-0.565032,3.327940,6.220136,44.738770,-67.047119,-20.568848,33.769531
77600,1.824382,0.201113,5.329493,35.217285,81.878662,-29.846191,33.769531
77640,-0.258574,7.082048,5.530606,-138.244629,38.482666,-117.523193,33.767578
77680,-3.620033,23.611618,0.191536,-126.708984,45.501709,-11.657715,33.750000
77720,-2.624045,23.630772,-5.875371,-30.456543,156.341553,0.244141,33.761719
77760,-0.541090,15.480908,-6.871359,-26.489258,148.834229,13.824463,33.785156
77800,-1.920150,9.624691,-3.888184,0.274658,124.084473,22.491455,33.767578
77840,-4.127604,4.060566,-1.561020,38.421631,55.175781,16.326904,33.789062
77880,-6.392519,0.670376,0.565032,27.069092,14.251709,-3.387451,33.787109
77920,-5.669470,-1.230620,0.905008,-9.124756,-22.430420,52.093506,33.779297
77960,-2.853889,-1.254562,0.411803,-4.241943,-53.100586,15.411377,33.798828
78000,-6.234501,6.057330,2.557007,-92.895508,-73.791504,-25.299072,33.783203
78040,-5.822699,26.613947,-3.639187,-36.743164,-45.867920,0.366211,33.785156
78080,-2.906561,23.606829,-5.315128,78.308105,-68.206787,7.843018,33.767578
78120,-0.723049,13.488933,-6.780379,75.439453,-102.752686,14.556885,33.767578
78160,1.666364,7.220912,-4.965574,81.298828,-86.029053,47.882080,33.771484
78200,0.933739,4.299986,0.823605,20.080566,-69.976807,7.415771,33.769531
78240,-1.819593,2.887407,6.033388,15.411377,-130.004883,-27.984619,33.781250
78280,0.991199,-0.158017,5.224148,69.824219,75.286865,9.246826,33.787109
78320,2.403779,3.371036,3.538630,-32.135010,41.320801,-91.430664,33.775391
78360,-3.394978,21.983561,4.587290,-188.415527,19.866943,-70.556641,33.773438
78400,-1.929727,26.551697,-5.348647,0.518799,153.930664,12.207031,33.806641
78440,-0.426168,17.463306,-7.766790,-11.047363,151.153564,13.366699,33.769531
78480,-1.647211,11.200075,-5.272032,8.056641,109.985352,22.033691,33.785156
78520,-4.616021,5.137957,-1.900996,41.351318,31.829834,14.801025,33.802734
78560,-7.220912,0.895431,0.746991,25.604248,-16.906738,-9.033203,33.798828
78600,-5.765238,-1.115698,1.379060,-6.042480,-35.827637,60.638428,33.779297
78640,-2.078167,-1.110910,-0.067038,12.634277,-48.706055,37.628174,33.787109
78680,-3.462016,5.980716,2.691083,-109.344482,-58.013916,-62.957764,33.767578
78720,-5.755661,25.412056,-1.613692,-36.346436,-37.078857,5.798340,33.779297
78760,-3.557784,22.548592,-6.809110,64.422607,-63.812256,1.464844,33.798828
78800,-0.943315,14.039598,-7.445967,56.488037,-105.377197,22.247314,33.779297
78840,1.886631,8.628703,-4.908113,68.817139,-87.219238,53.771973,33.779297
78880,0.948104,4.817134,0.871489,23.284912,-65.704346,13.458252,33.783203
78920,-1.268927,3.189077,6.670246,41.351318,-105.651855,-25.726318,33.783203
78960,1.900996,-0.014365,5.305551,41.534424,129.089355,2.441406,33.765625
79000,0.871489,2.547431,3.380613,-26.062012,29.449463,-79.254150,33.777344
79040,-5.200206,21.514296,0.962469,-162.078857,-9.674072,-54.229736,33.779297
79080,-2.403779,26.211720,-6.157887,14.404297,130.493164,-4.058838,33.796875
79120,0.636858,17.171215,-6.454768,-25.451660,139.099121,11.993408,33.777344
79160,-0.512359,10.764331,-4.137180,16.510010,93.017578,14.923096,33.783203
79200,-4.558560,4.955997,-1.685518,32.379150,47.515869,-0.122070,33.767578
79240,-7.666234,0.560243,0.502782,29.296875,-4.577637,-18.066406,33.791016
79280,-6.148310,-1.661576,0.201113,-1.037598,-57.434082,49.865723,33.802734
79320,-1.374272,-1.283292,-0.488417,27.496338,-57.891846,49.163818,33.808594
79360,-3.586514,5.975927,2.772485,-120.025635,-81.024170,-70.861816,33.806641
79400,-5.597643,26.245239,-2.791639,-26.458740,-56.304932,17.425537,33.777344
79440,-3.327940,22.601265,-6.612785,53.314209,-80.169678,-1.586914,33.787109
79480,-0.699107,13.819332,-7.393295,60.882568,-114.196777,18.737793,33.783203
79520,1.819593,8.010999,-5.094861,80.932617,-87.097168,47.698975,33.771484
79560,0.852336,4.539406,0.727837,19.409180,-66.986084,9.704590,33.785156
79600,-1.398214,2.973598,6.569689,39.337158,-105.834961,-19.531250,33.783203
79640,1.316811,0.124498,5.688623,30.029297,87.524414,-10.345459,33.791016
79680,1.436521,3.572149,3.169923,-50.628662,65.795898,-100.494385,33.783203
79720,-4.879383,21.902157,2.240973,-178.375244,-2.227783,-56.701660,33.796875
79760,-3.246537,26.345795,-4.994305,-10.925293,143.737793,2.746582,33.787109
79800,-0.335188,17.008410,-7.139510,-25.054932,151.550293,11.077881,33.781250
79840,-1.182736,10.927136,-5.056554,-1.068115,120.147705,28.228760,33.794922
79880,-3.816358,5.688623,-1.867477,27.557373,59.600830,20.019531,33.789062
79920,-6.478710,1.192312,0.608127,13.000488,-3.051758,-15.106201,33.785156
79960,-5.391742,-0.981623,1.422156,2.441406,-24.719238,66.192627,33.787109
80000,-2.403779,-1.513135,0.311246,5.798340,-25.299072,49.285889,33.769531
80040,-4.855441,4.309563,3.184288,-93.750000,-77.575684,-78.063965,33.802734
80080,-7.536947,25.014620,-1.848324,-85.998535,-36.987305,-13.671875,33.792969
80120,-4.936844,24.746469,-5.980716,83.129883,-87.341309,9.704590,33.802734
80160,-1.886631,14.302961,-6.809110,61.767578,-99.243164,14.434814,33.794922
80200,1.426944,8.805874,-5.276821,80.230713,-79.040527,51.727295,33.826172
80240,1.637634,5.358223,-0.325611,33.966064,-64.178467,23.712158,33.791016
80280,-1.024718,3.615245,5.372589,24.414062,-102.416992,-19.134521,33.806641
80320,1.197101,0.138864,6.157887,65.246582,102.813721,0.305176,33.798828
80360,3.409343,1.225831,3.256114,14.556885,120.239258,-45.867920,33.789062
80400,-5.908890,15.907076,5.683835,-231.536865,-35.003662,-83.343506,33.812500
80440,-3.744531,27.595570,-5.568913,-27.313232,79.071045,18.554688,33.783203
80480,-1.254562,20.221428,-7.469909,2.532959,142.608643,9.643555,33.785156
80520,-0.981623,12.430696,-5.434838,0.946045,109.100342,29.571533,33.802734
80560,-3.031059,6.315904,-2.197877,51.513672,61.401367,32.104492,33.812500
80600,-6.952762,1.541866,0.306458,29.022217,-6.835938,-6.011963,33.802734
80640,-7.024588,-1.005565,1.680730,2.807617,-24.444580,45.928955,33.818359
80680,-2.954445,-1.623269,0.344765,25.756836,-63.201904,54.656982,33.783203
80720,-0.359130,3.543418,0.928950,-56.610107,-36.499023,-15.655518,33.808594
80760,-5.688623,23.712173,-0.148441,-92.651367,-37.017822,-38.360596,33.812500
80800,-3.447650,24.425646,-5.291186,62.805176,-8.728027,15.106201,33.828125
80840,-1.958457,15.796943,-7.991845,34.118652,-103.057861,12.603760,33.816406
80880,0.660800,10.151415,-5.837064,58.685303,-101.806641,30.334473,33.798828
80920,1.029507,5.760449,-0.881066,36.651611,-69.641113,24.627686,33.812500
80960,-0.919373,2.777274,4.965574,32.501221,-77.789307,-17.700195,33.808594
81000,0.842759,0.100556,6.019023,53.436279,82.611084,-17.944336,33.816406
81040,3.117251,-0.081403,2.796427,20.965576,124.114990,-11.505127,33.814453
81080,-5.655105,10.357317,4.094085,-200.347900,-71.960449,-106.628418,33.832031
81120,-4.467580,27.892450,-4.448427,-61.767578,77.972412,-2.746582,33.832031
81160,-1.364695,23.329102,-6.670246,-17.852783,122.161865,-2.624512,33.804688
81200,0.660800,13.962984,-6.354211,-9.399414,111.907959,20.721436,33.832031
81240,-1.666364,8.489840,-3.596091,36.193848,73.883057,26.611328,33.818359
81280,-5.870583,3.093309,-0.957681,29.632568,23.803711,-0.579834,33.839844
81320,-7.704541,-0.335188,0.861913,14.526367,-18.402100,24.169922,33.832031
81360,-4.141969,-1.364695,0.138864,19.287109,-70.739746,48.828125,33.835938
81400,-0.114922,-0.248997,-0.148441,26.641846,-66.528320,36.773682,33.847656
81440,-4.635174,12.152967,5.061342,-192.199707,-28.442383,-70.434570,33.851562
81480,-4.587290,28.083986,-3.964798,23.101807,0.671387,12.329102,33.837891
81520,-3.624821,19.536686,-8.312668,62.103271,-78.887939,5.218506,33.830078
81560,-0.651223,11.616667,-7.699753,50.018311,-98.876953,32.531738,33.818359
81600,1.345541,7.436390,-3.763685,53.283691,-77.911377,39.398193,33.832031
81640,-0.124498,4.673482,2.825158,14.038086,-61.553955,0.793457,33.845703
81680,-0.775721,1.944092,6.737284,58.654785,-37.628174,-17.150879,33.818359
81720,2.422932,0.062249,3.960010,6.927490,125.946045,-41.320801,33.832031
81760,-0.924162,3.892972,2.724602,-54.748535,13.000488,-77.392578,33.820312
81800,-7.244854,24.095245,1.455675,-160.827637,-13.580322,-22.277832,33.830078
81840,-2.365471,25.526979,-6.095637,-0.427246,137.573242,-12.939453,33.845703
81880,0.330400,16.563087,-7.038953,-32.806396,128.143311,9.124756,33.830078
81920,-0.100556,10.912771,-4.510676,1.770020,106.506348,24.688721,33.855469
81960,-3.529053,5.262455,-1.843535,35.827637,41.748047,20.172119,33.828125
82000,-6.967127,1.259350,0.790087,11.810303,2.563477,-9.002686,33.824219
82040,-6.229713,-1.048660,0.962469,-6.896973,-43.243408,60.455322,33.828125
82080,-2.121263,-1.312023,-0.316035,26.123047,-57.220459,50.781250,33.841797
82120,-3.433285,4.865018,2.772485,-97.076416,-77.545166,-55.786133,33.820312
82160,-5.712565,25.206156,-0.761356,-88.470459,-9.399414,-24.047852,33.837891
82200,-3.720589,24.152706,-5.880159,73.516846,-61.096191,5.035400,33.822266
82240,-1.771709,14.671668,-7.575254,56.823730,-93.566895,11.840820,33.843750
82280,1.082179,8.963891,-5.085284,64.453125,-80.657959,45.776367,33.818359
82320,1.163582,5.377377,-0.043096,14.068604,-56.182861,8.911133,33.847656
82360,-1.230620,3.265691,5.023035,-0.061035,-88.012695,-22.857666,33.867188
82400,0.033519,0.004788,5.382165,65.551758,26.611328,-14.556885,33.851562
82440,2.178724,1.063026,3.174711,15.869141,85.998535,-51.666260,33.841797
82480,-3.653552,15.705963,5.832275,-204.742432,-9.094238,-97.198486,33.851562
82520,-2.695871,27.451916,-3.758897,-16.204834,110.382080,22.857666,33.845703
82560,-1.762132,20.949265,-6.804321,-14.068604,142.120361,3.387451,33.835938
82600,-1.110910,13.512875,-5.228937,-6.744385,131.317139,22.064209,33.861328
82640,-2.518700,6.976704,-2.279280,45.623779,79.406738,34.088135,33.845703
82680,-5.908890,1.613692,-0.205901,16.967773,15.350342,-2.044678,33.832031
82720,-6.521805,-0.641646,1.383849,20.263672,-25.543213,34.637451,33.855469
82760,-3.672705,-1.565808,-0.076614,23.956299,-44.189453,68.054199,33.875000
82800,-1.503559,0.177171,-0.363919,-4.150391,-66.741943,1.220703,33.843750
82840,-5.865794,15.528792,3.519476,-169.158936,-13.854980,-63.690186,33.832031
82880,-3.227384,27.571627,-4.596867,51.055908,-24.566650,16.326904,33.843750
82920,-3.021482,17.520767,-8.173804,50.537109,-83.221436,2.471924,33.851562
82960,0.062249,11.659762,-7.110779,65.795898,-99.578857,27.648926,33.839844
83000,1.604115,7.785944,-2.930503,55.450439,-84.930420,38.391113,33.845703
83040,-0.387861,5.386954,3.687071,7.324219,-84.289551,-6.195068,33.876953
83080,-0.344765,2.001553,6.679823,58.135986,-23.681641,-21.697998,33.869141
83120,2.954445,-0.248997,3.351882,29.602051,132.232666,-5.096436,33.855469
83160,-2.006341,8.638280,4.165911,-159.515381,-65.063477,-143.096924,33.875000
83200,-3.643975,25.819071,-1.647211,-64.361572,79.925537,17.974854,33.876953
83240,-0.790087,22.639572,-6.976704,3.906250,148.956299,-4.699707,33.861328
83280,0.469264,14.556746,-6.291962,-17.517090,137.054443,13.519287,33.855469
83320,-1.690306,8.542512,-3.208230,33.874512,83.435059,21.240234,33.890625
83360,-5.717354,2.825158,-1.154005,21.881104,25.543213,-3.875732,33.871094
83400,-7.757214,-0.502782,1.182736,15.869141,-5.889893,5.798340,33.884766
83440,-4.951209,-1.733402,0.426168,12.084961,-61.248779,47.332764,33.861328
83480,-0.847547,0.770933,0.162806,-2.899170,-64.392090,17.700195,33.900391
83520,-5.185841,16.012421,2.370260,-136.566162,-46.875000,-36.987305,33.875000
83560,-4.213795,24.693796,-4.544195,16.998291,-22.705078,4.821777,33.861328
83600,-3.045424,17.784130,-7.498640,39.398193,-84.594727,1.495361,33.875000
83640,-0.158017,12.564771,-7.795521,66.009521,-121.093750,23.468018,33.880859
83680,1.144428,7.996634,-3.696647,65.643311,-94.390869,41.442871,33.876953
83720,0.205901,5.157111,2.657564,-2.288818,-69.702148,-8.422852,33.871094
83760,-0.335188,2.293645,6.694188,65.643311,-59.600830,-26.031494,33.876953
83800,2.183512,0.363919,4.759673,25.939941,84.594727,-42.846680,33.886719
83840,-0.100556,7.431602,3.773262,-136.230469,45.288086,-93.994141,33.888672
83880,-5.233725,24.516624,-1.029507,-95.611572,19.989014,-7.415771,33.880859
83920,-2.422932,24.258051,-5.568913,-23.376465,167.724609,0.213623,33.855469
83960,0.483629,15.011644,-6.224925,-20.538330,149.536133,25.329590,33.859375
84000,-1.120486,8.552089,-3.768473,14.312744,104.644775,38.818359,33.876953
84040,-5.142745,3.308787,-1.350330,24.017334,19.683838,10.772705,33.876953
84080,-7.206547,0.670376,0.991199,30.792236,-15.380859,1.861572,33.875000
84120,-5.501875,-1.225831,0.799663,-4.211426,-45.318604,77.239990,33.869141
84160,-1.920150,-1.015141,-0.277727,8.728027,-54.504395,29.083252,33.863281
84200,-5.453991,6.641516,3.031059,-135.681152,-69.488525,-68.908691,33.871094
84240,-6.114791,29.075186,-2.557007,-60.485840,-35.614014,-3.234863,33.898438
84280,-1.881842,24.234110,-6.746861,100.341797,-98.663330,5.859375,33.892578
84320,-0.775721,12.914324,-6.909666,75.469971,-93.139648,16.632080,33.900391
84360,1.805228,6.430826,-4.826711,76.629639,-61.553955,49.987793,33.894531
84400,0.723049,3.869030,0.938527,27.282715,-74.920654,9.826660,33.886719
84440,-1.987187,3.529053,6.229713,15.899658,-135.864258,-42.480469,33.900391
84480,1.742979,0.411803,5.568913,56.701660,96.649170,-4.119873,33.875000
84520,1.513135,4.659117,5.281609,-97.961426,21.148682,-137.634277,33.884766
84560,-3.998317,21.969194,2.997540,-205.780029,38.909912,-33.996582,33.888672
84600,-2.944868,25.555710,-6.746861,-0.579834,149.841309,11.474609,33.888672
84640,-1.345541,17.530344,-6.986280,-0.640869,125.885010,24.902344,33.884766
84680,-1.364695,10.625467,-4.271256,17.211914,104.858398,40.496826,33.880859
84720,-4.525041,4.941632,-1.594538,51.910400,40.496826,28.442383,33.892578
84760,-7.527370,0.895431,1.067814,33.599854,-17.700195,-8.087158,33.898438
84800,-5.760449,-1.249773,1.340753,-4.730225,-24.475098,66.467285,33.875000
84840,-1.886631,-1.584962,0.057461,24.108887,-42.968750,50.903320,33.884766
84880,-2.964022,5.133168,1.982399,-97.686768,-70.037842,-69.122314,33.890625
84920,-5.875371,25.795130,-1.829170,-45.684814,-40.618896,-9.277344,33.900391
84960,-3.754108,23.013067,-7.757214,72.784424,-73.486328,16.418457,33.888672
85000,-1.508347,14.389153,-8.135497,64.117432,-117.309570,23.559570,33.896484
85040,1.781286,8.968679,-5.046977,70.404053,-85.113525,48.675537,33.925781
85080,1.187524,5.999869,1.000776,8.972168,-75.683594,12.878418,33.896484
85120,-0.799663,3.758897,6.454768,37.872314,-106.781006,-22.125244,33.923828
85160,1.810017,-0.359130,5.473145,32.470703,112.915039,11.840820,33.929688
85200,3.169923,0.579397,1.872266,3.448486,98.785400,-37.628174,33.925781
85240,-6.291962,17.501614,4.405331,-236.846924,-59.967041,-96.038818,33.908203
85280,-2.370260,28.672960,-5.319916,-11.260986,134.887695,5.737305,33.912109
85320,0.296881,19.005173,-6.957550,-7.843018,133.850098,4.608154,33.939453
85360,-0.009577,11.319786,-5.171476,-7.781982,120.086670,22.613525,33.916016
85400,-3.112462,6.114791,-2.394202,35.919189,73.364258,20.263672,33.904297
85440,-7.278373,1.651999,0.450110,16.143799,9.338379,-17.608643,33.912109
85480,-6.770802,-0.675165,0.938527,6.286621,-34.362793,45.654297,33.925781
85520,-2.959233,-1.154005,0.004788,15.289307,-61.859131,34.149170,33.927734
85560,-2.734178,3.849876,2.475605,-74.401855,-74.066162,-37.048340,33.906250
85600,-5.248090,24.100035,-0.426168,-90.850830,-21.789551,-4.821777,33.910156
85640,-3.476381,24.847025,-5.880159,72.235107,-51.849365,-8.056641,33.894531
85680,-1.632846,14.867992,-7.220912,48.248291,-104.278564,10.559082,33.921875
85720,0.952892,9.045294,-4.903325,67.199707,-102.081299,43.426514,33.929688
85760,1.527501,4.922479,-0.574608,43.975830,-59.509277,28.320312,33.929688
85800,-0.823605,2.724602,4.730943,19.622803,-80.627441,-20.080566,33.916016
85840,0.114922,0.397437,5.774815,44.555664,19.714355,-40.893555,33.925781
85880,2.868254,0.766145,2.418144,10.742188,125.061035,-50.415039,33.914062
85920,-5.243302,13.306973,6.339846,-201.141357,-43.060303,-65.734863,33.917969
85960,-3.634398,28.232426,-2.173935,-69.000244,87.524414,35.430908,33.919922
86000,-0.387861,21.552603,-7.364564,1.953125,129.943848,-7.293701,33.929688
86040,0.052672,13.623008,-6.603208,-1.007080,126.037598,30.029297,33.937500
86080,-1.580173,8.312668,-3.327940,28.625488,99.395752,33.874512,33.927734
86120,-5.774815,3.150769,-0.699107,20.355225,29.205322,1.129150,33.904297
86160,-7.091625,0.550666,1.580173,23.254395,-25.756836,0.274658,33.935547
86200,-4.548983,-1.235408,1.302446,-11.871338,-43.304443,62.988281,33.933594
86240,-2.102109,0.914585,1.752556,-28.106689,-46.752930,-15.075684,33.947266
86280,-6.359000,17.410635,0.253785,-132.110596,-30.700684,-22.460938,33.943359
86320,-4.199430,25.708939,-5.023035,46.966553,-50.994873,6.530762,33.943359
86360,-2.255338,17.741035,-7.364564,53.680420,-90.362549,12.176514,33.937500
86400,0.545878,11.678916,-6.291962,69.885254,-110.534668,33.843994,33.941406
86440,1.666364,7.153875,-2.355895,48.980713,-88.531494,37.963867,33.939453
86480,-0.110133,4.194642,3.505111,1.770020,-81.054688,-13.183594,33.923828
86520,-0.550666,1.173159,5.693412,80.505371,-53.375244,-18.829346,33.941406
86560,2.499547,-0.282516,3.485958,25.482178,125.000000,-33.386230,33.943359
86600,-1.216254,7.704541,4.319140,-141.906738,0.854492,-98.052979,33.941406
86640,-3.064578,25.277981,-0.296881,-100.128174,46.661377,6.042480,33.929688
86680,-0.986411,23.937229,-6.943185,4.516602,153.472900,-1.098633,33.923828
86720,-0.172383,15.236700,-6.651093,-17.883301,135.559082,22.430420,33.931641
86760,-1.541866,8.944737,-3.782839,36.132812,99.700928,37.231445,33.929688
86800,-5.568913,3.299210,-1.561020,27.770996,44.342041,0.183105,33.929688
86840,-7.570466,0.239420,1.244985,29.022217,-27.069092,-5.798340,33.935547
86880,-4.831499,-1.297657,0.828394,8.026123,-51.757812,62.561035,33.949219
86920,-1.192312,-0.545878,0.019154,4.089355,-27.496338,24.383545,33.937500
86960,-5.789180,11.880029,2.073379,-155.975342,-40.130615,-47.668457,33.933594
87000,-4.094085,28.203695,-4.127604,20.355225,-6.866455,15.319824,33.953125
87040,-2.327164,19.579781,-7.656657,46.936035,-90.606689,9.887695,33.951172
87080,-0.047884,12.023681,-6.981492,39.886475,-107.177734,22.369385,33.929688
87120,1.900996,7.201759,-3.691859,49.743652,-71.441650,40.863037,33.943359
87160,0.172383,4.362236,2.408567,9.704590,-69.458008,-4.302979,33.957031
87200,-0.656011,2.054225,6.938396,47.973633,-41.320801,-16.784668,33.960938
87240,2.576161,-0.201113,4.256891,-5.126953,165.283203,-42.785645,33.966797
87280,1.211466,2.437297,1.570596,-7.324219,56.762695,-40.832520,33.958984
87320,-6.785168,22.414516,1.393425,-175.506592,-28.594971,-49.041748,33.949219
87360,-1.029507,26.977865,-6.263232,8.148193,156.188965,-11.016846,33.951172
87400,1.623269,16.759413,-7.058106,-24.902344,146.514893,21.423340,33.964844
87440,0.110133,10.170568,-5.401319,4.791260,120.208740,25.848389,33.966797
87480,-4.898537,5.200206,-2.834735,21.484375,53.192139,13.153076,33.972656
87520,-7.987057,1.125275,-0.019154,23.834229,16.082764,-8.514404,33.951172
87560,-6.579266,-1.063026,0.421380,-4.913330,-40.069580,45.776367,33.966797
87600,-2.336741,-0.454898,0.023942,-9.307861,-68.267822,16.571045,33.943359
87640,-4.994305,8.221688,2.068590,-123.260498,-51.483154,-32.531738,33.947266
87680,-3.394978,27.380091,-2.533065,-15.106201,-26.733398,-3.082275,33.941406
87720,-2.513912,21.255722,-5.200206,47.241211,-42.510986,-9.429932,33.966797
87760,-1.470040,12.301409,-7.240066,47.668457,-102.386475,13.763428,33.957031
87800,0.536301,7.776367,-5.037400,54.138184,-87.188721,39.764404,33.978516
87840,0.794875,4.874595,0.512359,3.204346,-59.051514,0.915527,33.935547
87880,-1.110910,2.480393,5.286397,41.931152,-76.721191,-18.615723,33.951172
87920,1.048660,-0.057461,5.003881,43.151855,73.516846,-54.779053,33.947266
87960,0.881066,3.926491,4.209007,-57.403564,96.038818,-73.303223,33.953125
88000,-5.137957,22.955606,3.198653,-182.556152,41.351318,-38.116455,33.978516
88040,-1.905785,27.164612,-5.837064,-4.364014,164.031982,6.500244,33.984375
88080,0.387861,17.089811,-6.852205,-22.430420,172.271729,12.664795,33.935547
88120,-1.771709,9.380483,-4.261679,3.448486,115.692139,33.782959,33.957031
88160,-4.103662,3.648763,-1.738190,21.759033,53.894043,24.078369,33.980469
88200,-6.220136,0.220267,0.560243,32.104492,-1.068115,23.590088,33.945312
88240,-5.707777,-1.977611,0.210690,-3.814697,-32.409668,74.798584,33.974609
88280,-2.370260,-1.225831,-0.407014,19.256592,-41.198730,29.632568,33.966797
88320,-5.870583,6.138733,2.274492,-88.897705,-63.415527,-58.990479,33.968750
88360,-4.328717,27.231649,-2.365471,-62.316895,-32.043457,-18.951416,33.960938
88400,-1.479617,24.492683,-3.691859,61.431885,-14.373779,1.373291,33.958984
88440,-0.847547,14.207192,-6.890512,68.267822,-42.480469,0.457764,33.958984
88480,0.737414,8.403648,-5.157111,60.852051,-43.457031,40.466309,33.966797
88520,0.373495,5.085284,0.311246,23.406982,-35.644531,18.585205,33.949219
88560,-2.126051,3.217807,5.659893,18.798828,-104.125977,-25.360107,33.982422
88600,-0.114922,-0.210690,5.042189,44.342041,71.563721,3.601074,33.966797
88640,2.264915,0.368707,1.599327,20.843506,99.456787,-33.721924,33.947266
88680,-4.271256,17.362751,3.275268,-203.826904,-25.787354,-124.176025,33.974609
88720,-2.403779,28.064833,-3.696647,21.850586,118.957520,4.943848,33.978516
88760,0.612916,19.144037,-5.975927,-2.593994,136.901855,-10.498047,33.962891
88800,-0.229843,11.530476,-4.620809,2.532959,83.435059,8.148193,33.968750
88840,-2.518700,5.468357,-2.078167,58.013916,15.136719,18.829346,33.972656
88880,-6.066907,1.154005,0.287304,30.609131,-18.402100,-18.310547,33.951172
88920,-6.746861,-1.115698,1.465251,10.131836,-54.107666,24.810791,33.972656
88960,-2.978387,-1.024718,-0.067038,28.686523,-87.493896,22.949219,33.962891
89000,-2.782062,5.200206,1.216254,-79.376221,-89.263916,-49.682617,33.966797
89040,-5.477933,23.956383,-0.775721,-43.945312,-79.833984,1.708984,33.972656
89080,-1.680730,23.080105,-5.899313,52.947998,-90.545654,-10.101318,33.998047
89120,-0.028730,15.854403,-6.904878,27.557373,-124.847412,-0.335693,33.978516
89160,2.260126,11.133038,-4.563348,58.349609,-111.480713,28.656006,33.994141
89200,1.953669,6.277597,-0.459687,39.916992,-76.446533,4.241943,33.974609
89240,-0.478840,2.839523,4.577713,56.762695,-110.595703,-36.560059,33.982422
89280,0.330400,0.100556,5.540183,29.846191,8.575439,-45.745850,33.984375
89320,1.972822,1.134852,2.336741,20.721436,52.398682,-27.282715,33.998047
89360,-5.070919,16.519991,4.649539,-190.643311,-33.905029,-52.429199,33.972656
89400,-3.323152,27.696125,-2.772485,-9.155273,95.947266,3.967285,34.000000
89440,0.090980,19.421764,-5.516241,-15.563965,124.206543,-10.772705,33.986328
89480,0.933739,11.793838,-4.611232,-7.934570,101.959229,25.115967,33.986328
89520,-1.455675,6.593631,-2.140416,22.888184,55.206299,27.404785,33.996094
89560,-5.947197,2.049437,0.282516,20.263672,6.744385,2.075195,33.980469
89600,-6.641516,-0.339977,1.584962,14.617920,-13.000488,49.468994,33.996094
89640,-3.739743,-1.154005,0.311246,12.817383,-55.755615,50.933838,33.988281
89680,-2.873042,2.446874,0.756568,-38.421631,-92.651367,-4.821777,33.998047
89720,-7.809886,19.771318,-0.009577,-125.183105,-52.337646,-15.136719,34.005859
89760,-3.011906,25.483883,-5.090073,71.746826,-80.322266,9.307861,33.986328
89800,-1.604115,16.074671,-7.082048,47.119141,-114.471436,18.707275,33.994141
89840,1.450886,10.620679,-5.899313,76.934814,-104.919434,42.907715,34.021484
89880,1.968034,6.890512,-1.225831,39.459229,-69.000244,28.533936,33.974609
89920,-0.579397,4.726154,4.510676,-5.218506,-103.424072,-22.338867,34.007812
89960,0.071826,1.110910,5.257667,80.169678,-38.757324,-25.329590,33.996094
90000,2.375048,0.608127,3.639187,35.949707,77.178955,-37.506104,33.978516
90040,-3.768473,15.500062,6.387730,-202.667236,22.216797,-85.723877,33.976562
90080,-1.733402,26.815060,-3.869030,-13.519287,107.696533,21.423340,34.007812
90120,-0.823605,20.015526,-6.909666,-8.666992,138.397217,5.371094,34.001953
90160,-0.531513,12.545617,-5.473145,-4.974365,121.856689,26.214600,34.007812
90200,-2.537854,6.818686,-2.456451,38.116455,57.281494,30.792236,33.998047
90240,-6.531382,1.963245,-0.081403,21.392822,0.610352,-1.281738,33.998047
90280,-6.708553,-0.296881,1.479617,9.063721,-38.970947,39.367676,34.005859
90320,-3.605668,-1.594538,0.316035,6.561279,-58.715820,55.603027,34.007812
90360,-0.933739,1.374272,0.148441,-6.134033,-75.897217,4.577637,34.017578
90400,-7.072472,20.446482,2.284068,-143.981934,-16.448975,-36.132812,34.013672
90440,-3.792415,25.522190,-4.970363,58.563232,-12.054443,8.880615,34.009766
90480,-2.494758,16.232687,-7.977480,35.980225,-108.367920,16.815186,33.990234
90520,0.588974,11.233594,-6.526594,64.239502,-95.306396,34.240723,34.013672
90560,1.915361,6.670246,-2.609680,60.058594,-44.097900,45.623779,34.011719
90600,-0.612916,4.711789,4.405331,-5.950928,-74.310303,-8.575439,34.011719
90640,-0.138864,2.140416,7.048530,37.994385,4.150391,-21.575928,33.998047
90680,2.264915,0.541090,3.854665,7.507324,102.050781,-36.590576,33.998047
90720,-2.916138,11.942278,3.615245,-187.652588,17.700195,-89.263916,34.007812
90760,-2.983175,24.305935,-4.793192,-16.265869,118.957520,-9.368896,33.982422
90800,-1.264138,20.039469,-7.182605,-29.327393,131.713867,-2.136230,34.005859
90840,0.608127,14.164097,-5.784391,-16.662598,129.394531,19.104004,34.021484
90880,-1.369483,8.710106,-3.184288,19.805908,99.670410,30.090332,34.019531
90920,-5.568913,2.887407,-1.331176,16.387939,49.194336,-8.056641,34.009766
90960,-7.685388,-0.114922,0.679953,7.141113,9.307861,10.253906,34.011719
91000,-5.003881,-1.273715,0.215478,-6.774902,-57.800293,32.745361,34.015625
91040,-0.924162,0.081403,-0.272939,-0.640869,-36.865234,31.921387,34.027344
91080,-7.541735,13.723564,0.684742,-145.172119,-69.366455,-13.580322,33.998047
91120,-4.204218,26.537333,-4.213795,11.199951,-19.927979,17.974854,34.001953
91160,-1.766921,18.569427,-6.919243,34.606934,-87.188721,1.251221,34.017578
91200,0.550666,11.382035,-7.345411,54.779053,-114.044189,24.200439,34.019531
91240,1.656788,7.196970,-3.466804,56.304932,-92.010498,35.614014,34.011719
91280,0.229843,4.797980,2.308010,7.781982,-89.813232,-4.516602,34.021484
91320,-0.986411,2.078167,5.616797,51.269531,-66.925049,-27.221680,34.009766
91360,1.570596,0.114922,4.031836,29.113770,76.324463,-58.380127,33.996094
91400,-0.526724,8.006210,4.807557,-141.082764,92.254639,-90.057373,34.015625
91440,-3.883395,24.325089,-0.876278,-84.259033,70.190430,-3.845215,34.015625
91480,-2.561796,23.932440,-5.841852,-22.308350,154.388428,-3.356934,34.013672
91520,-0.043096,15.768212,-6.387730,-32.592773,172.210693,11.657715,33.998047
91560,-1.857901,9.528923,-4.285621,7.263184,111.968994,38.818359,34.005859
91600,-4.654328,3.720589,-2.049437,8.483887,44.372559,16.784668,34.041016
91640,-6.162675,0.660800,0.560243,11.962891,-9.429932,3.601074,34.025391
91680,-4.912902,-1.508347,0.612916,-4.974365,-45.989990,83.862305,34.005859
91720,-2.877831,-1.063026,0.244209,-16.326904,-28.198242,32.135010,34.023438
91760,-8.078036,7.843405,1.757344,-101.135254,-16.815186,-49.865723,34.015625
91800,-4.371812,26.657042,-4.812346,-8.697510,-56.945801,4.211426,34.005859
91840,-1.944092,21.610065,-6.162675,54.168701,-68.023682,0.213623,34.033203
91880,-0.100556,12.646173,-6.550536,66.314697,-77.178955,14.373779,34.037109
91920,1.623269,7.857770,-4.084508,67.413330,-75.744629,38.452148,34.017578
91960,0.656011,5.626374,1.833959,14.526367,-76.477051,-10.559082,34.042969
92000,-0.919373,2.930503,6.129156,78.857422,-70.220947,-28.289795,34.035156
92040,2.437297,0.047884,4.553771,52.490234,141.174316,-20.782471,34.007812
92080,-1.268927,4.941632,4.687847,-89.324951,15.075684,-105.895996,34.003906
92120,-4.941632,22.725763,-1.067814,-122.406006,47.149658,-19.439697,34.019531
92160,-0.785298,23.405716,-6.919243,6.591797,142.059326,1.770020,34.009766
92200,0.483629,15.337256,-7.067683,-22.644043,141.510010,17.700195,34.017578
92240,-1.503559,10.285490,-5.008670,8.697510,114.807129,32.012939,34.025391
92280,-4.989516,5.334281,-2.647987,26.855469,54.687500,10.498047,34.041016
92320,-8.341399,1.335965,0.277727,24.658203,-7.690430,-19.714355,34.015625
92360,-6.042965,-0.804452,0.110133,-5.920410,-50.750732,47.180176,34.011719
92400,-1.527501,-0.766145,-0.435745,0.671387,-57.922363,22.552490,34.001953
92440,-3.385401,7.465121,2.475605,-119.964600,-75.927734,-45.043945,34.021484
92480,-4.256891,26.738445,-1.910573,-10.101318,-10.101318,10.101318,34.009766
92520,-2.753332,21.298819,-6.876147,61.340332,-39.550781,5.737305,34.031250
92560,-0.493206,12.966996,-7.876924,38.574219,-110.046387,18.707275,34.019531
92600,1.642422,8.092402,-4.687847,54.504395,-93.566895,38.146973,34.019531
92640,0.588974,5.544971,1.077391,12.969971,-56.732178,11.749268,34.011719
92680,-1.173159,3.117251,6.071695,36.773682,-81.359863,-26.153564,34.027344
92720,1.297657,-0.205901,4.189853,31.799316,80.413818,-40.496826,34.015625
92760,0.909797,2.164358,2.025495,-4.943848,69.091797,-64.300537,34.009766
92800,-6.387730,20.379444,2.911349,-147.125244,-20.477295,-49.835205,34.007812
92840,-0.464475,26.283546,-4.601655,12.023926,161.407471,-4.180908,34.031250
92880,1.235408,17.846380,-6.502652,-22.399902,136.840820,13.244629,34.023438
92920,-0.181959,11.405977,-5.521029,22.399902,99.945068,26.031494,34.029297
92960,-4.180276,5.252879,-3.074155,36.712646,44.433594,4.211426,34.050781
