MS,Accel X (m/s²),Accel Y (m/s²),Accel Z (m/s²),Gyro X (°/s),Gyro Y (°/s),Gyro Z (°/s),Temp (°C)
1040,8.734048,1.039083,0.991199,3.417969,-33.813477,11.413574,38.980469
1080,8.034941,0.474052,1.101333,0.671387,-17.486572,15.045166,39.000000
1120,8.561666,0.612916,0.823605,7.720947,-19.378662,12.573242,39.023438
1160,9.294291,0.612916,0.799663,9.490967,-15.411377,10.223389,39.011719
1200,9.873688,0.277727,0.823605,15.594482,-20.690918,10.284424,39.017578
1240,10.237606,0.268151,0.833182,10.162354,-18.768311,10.986328,39.011719
1280,11.152191,0.574608,0.881066,10.223389,-10.314941,2.258301,39.021484
1320,12.339716,0.756568,1.374272,20.751953,-1.342773,-9.429932,39.019531
1360,11.994950,0.737414,1.273715,3.143311,8.575439,-14.739990,39.003906
1400,11.262324,0.316035,-0.622492,24.444580,12.756348,-13.153076,39.019531
1440,9.859323,1.316811,-1.886631,-26.916504,0.152588,-3.112793,39.005859
1480,8.968679,2.834735,-2.954445,-45.501709,-21.270752,-6.011963,39.015625
1520,10.453085,2.116474,-2.461239,-46.539307,-35.064697,-1.037598,39.003906
1560,10.793061,1.230620,-1.312023,-26.245117,-36.102295,5.310059,39.031250
1600,8.508993,1.015141,-0.828394,-25.909424,-31.219482,10.406494,39.005859
1640,7.015011,1.216254,-0.790087,-48.675537,-17.852783,15.228271,39.023438
1680,7.216124,1.379060,-1.264138,-40.130615,-9.368896,7.781982,39.009766
1720,8.815451,1.508347,-1.699883,-14.404297,-1.068115,-5.004883,39.005859
1760,10.960655,1.565808,-1.628057,4.089355,5.401611,-7.080078,39.005859
1800,10.864887,1.431733,-1.096544,-10.192871,0.427246,8.544922,38.996094
1840,8.643068,1.431733,-0.890643,30.853271,-0.671387,5.279541,39.019531
1880,5.099649,-0.268151,-1.594538,71.380615,-27.557373,0.701904,39.011719
1920,3.739743,-2.298434,-3.169923,50.903320,-1.037598,3.753662,39.044922
1960,10.017340,-3.222595,-3.059790,-7.080078,25.482178,15.045166,39.029297
2000,18.301277,-1.216254,-3.102885,93.811035,8.422852,9.643555,39.021484
2040,18.579004,0.526724,-1.810017,87.707520,4.180908,-1.861572,39.021484
2080,17.448942,1.211466,-2.082955,103.363037,-59.661865,-18.646240,39.005859
2120,14.369999,2.303222,-0.761356,127.563477,-82.122803,-39.154053,39.021484
2160,7.752425,2.561796,0.799663,45.349121,14.129639,-38.452148,39.015625
2200,0.852336,1.412579,0.158017,-2.471924,33.660889,-15.106201,39.019531
2240,-2.858677,1.800440,-0.210690,-30.151367,5.310059,-12.390137,39.021484
2280,-1.086968,1.522712,-1.086968,-74.310303,44.830322,16.967773,39.021484
2320,7.742848,0.914585,-3.548207,-131.866455,27.252197,11.840820,39.033203
2360,18.550274,1.814805,-2.983175,-85.662842,-40.344238,23.986816,39.037109
2400,19.977219,3.141193,-1.728614,-146.301270,-4.028320,28.686523,39.011719
2440,20.183121,2.442086,-1.604115,-111.328125,-6.408691,22.064209,39.017578
2480,17.611748,0.962469,-1.465251,-100.646973,25.665283,33.660889,39.013672
2520,10.070012,-0.445322,-3.375824,-25.054932,10.467529,12.145996,38.996094
2560,1.489193,-1.948880,-3.308787,46.997070,47.088623,18.188477,39.009766
2600,-4.994305,-3.332729,-1.086968,73.394775,-10.559082,-38.360596,39.015625
2640,-4.448427,-3.715801,-1.278504,73.333740,-65.734863,-10.040283,39.029297
2680,7.220912,-2.188300,-2.868254,56.091309,62.286377,-1.647949,39.021484
2720,20.834343,-2.355895,-5.975927,156.982422,-67.016602,-23.651123,39.025391
2760,23.506271,-1.106121,-3.653552,118.347168,15.747070,-31.097412,39.025391
2800,19.450495,1.125275,-3.864242,126.190186,-38.085938,-55.725098,39.019531
2840,12.627020,2.657564,-1.455675,119.445801,9.887695,-71.441650,39.001953
2880,4.687847,2.916138,0.919373,18.493652,42.999268,-43.853760,39.033203
2920,-3.107674,3.912126,0.023942,-49.957275,40.557861,-22.186279,39.029297
2960,-3.979163,2.446874,-1.201889,-82.061768,25.177002,8.911133,39.035156
3000,2.384625,1.465251,-2.580950,-66.436768,-17.608643,23.803711,39.031250
3040,15.433024,1.886631,-3.663129,-76.477051,-46.722412,18.035889,39.035156
3080,24.138342,3.663129,-3.744531,-143.157959,4.394531,12.634277,39.048828
3120,23.903709,2.327164,-1.991976,-146.179199,17.395020,46.447754,39.017578
3160,16.443377,1.388637,-2.221819,-122.344971,10.925293,62.011719,39.039062
3200,7.010222,1.345541,-2.351106,-64.544678,48.919678,26.855469,39.035156
3240,-0.488417,-1.982399,-2.815581,62.713623,-27.832031,15.045166,39.033203
3280,-4.395754,-3.792415,-2.604892,196.136475,50.201416,52.246094,39.044922
3320,-4.290410,-2.609680,-0.373495,8.483887,-149.719238,-36.773682,39.033203
3360,7.551312,-2.384625,-1.307234,-14.099121,129.058838,-34.973145,39.009766
3400,24.526203,-1.651999,-6.488286,175.445557,-102.233887,-35.430908,39.033203
3440,25.756823,-1.259350,-4.295198,129.058838,59.539795,-29.571533,39.042969
3480,18.210299,3.102885,-4.228160,165.405273,-10.101318,-79.589844,39.023438
3520,10.572795,4.027047,-0.114922,99.182129,44.433594,-65.185547,39.054688
3560,2.566584,4.276044,0.723049,3.936768,41.168213,-44.982910,39.048828
3600,-4.137180,2.456451,-0.842759,-61.157227,21.728516,-2.136230,39.029297
3640,-2.442086,1.474828,-0.569820,-80.505371,16.265869,14.709473,39.029297
3680,1.570596,1.905785,-1.192312,-98.144531,-2.777100,21.728516,39.031250
3720,10.433931,2.638410,-2.844312,-114.898682,-38.024902,36.987305,39.033203
3760,24.277205,2.839523,-2.719813,-124.572754,-71.289062,19.226074,39.029297
3800,25.732880,2.437297,-0.723049,-151.306152,41.381836,54.168701,39.033203
3840,18.756176,2.676718,-1.331176,-115.295410,19.958496,73.730469,39.025391
3880,8.116343,2.858677,-1.762132,-56.762695,42.541504,35.980225,39.023438
3920,0.488417,-0.742203,-1.685518,-0.457764,-27.709961,35.736084,39.023438
3960,-3.385401,-4.386178,-2.240973,147.857666,49.316406,117.736816,39.039062
4000,-4.343082,-2.738967,-2.762909,105.377197,-85.235596,20.874023,39.050781
4040,3.955221,-2.748544,0.622492,-65.277100,88.073730,-108.947754,39.019531
4080,23.353043,-1.441309,-4.759673,144.775391,-97.747803,-75.653076,39.050781
4120,28.404808,-3.624821,-2.035071,151.031494,48.736572,-22.827148,39.027344
4160,19.077000,1.857901,-3.064578,142.028809,-31.158447,-73.699951,39.029297
4200,10.481815,3.466804,0.330400,112.884521,18.310547,-66.345215,39.031250
4240,1.752556,3.189077,0.699107,14.343262,47.790527,-50.323486,39.046875
4280,-5.683835,2.097321,-0.751779,-72.265625,21.728516,3.601074,39.035156
4320,-2.494758,1.843535,-0.995988,-71.533203,8.911133,15.625000,39.044922
4360,4.271256,2.116474,-1.216254,-90.118408,16.387939,27.526855,39.039062
4400,14.662091,2.892196,-1.355118,-107.055664,-83.190918,-7.141113,39.060547
4440,27.241226,3.002329,-1.058237,-113.342285,-15.960693,-2.960205,39.054688
4480,25.459940,1.690306,0.890643,-140.625000,48.278809,49.682617,39.050781
4520,14.695610,2.068590,-1.024718,-93.475342,7.507324,52.978516,39.054688
4560,5.037400,1.800440,-1.130063,-24.230957,55.816650,25.756836,39.039062
4600,-2.102109,-1.771709,-2.494758,16.876221,-26.336670,51.727295,39.044922
4640,-4.338294,-3.059790,-3.093309,129.180908,-9.826660,75.592041,39.025391
4680,-3.725378,-1.838747,-0.919373,110.321045,-107.971191,-21.881104,39.048828
4720,6.579266,-3.873818,2.700660,-69.152832,87.310791,-40.161133,39.050781
4760,25.632324,-0.416591,-4.323928,143.646240,-105.438232,-75.073242,39.039062
4800,27.255592,-2.322376,-2.149993,112.243652,28.137207,-21.148682,39.050781
4840,18.420988,1.991976,-2.197877,165.710449,5.432129,-74.432373,39.039062
4880,10.371682,3.098097,0.967257,98.480225,27.496338,-53.466797,39.048828
4920,0.828394,3.495534,0.081403,3.112793,39.672852,-33.721924,39.044922
4960,-5.679047,2.030283,-1.288081,-63.781738,6.774902,11.260986,39.054688
5000,-1.819593,1.675941,-0.656011,-62.011719,-0.335693,24.200439,39.039062
5040,4.678270,2.331953,-1.268927,-77.728271,-25.421143,30.609131,39.029297
5080,17.032351,2.892196,-1.848324,-97.869873,-102.325439,-6.866455,39.048828
5120,27.016172,4.141969,-1.072602,-133.483887,-4.852295,22.277832,39.029297
5160,24.449587,2.609680,0.713472,-149.780273,45.257568,58.532715,39.035156
5200,14.240712,2.710236,-1.546654,-109.832764,26.672363,36.285400,39.025391
5240,4.668694,1.292869,-2.078167,-60.241699,66.528320,20.141602,39.035156
5280,-2.422932,-3.246537,-2.940080,38.574219,10.314941,71.136475,39.044922
5320,-4.836287,-4.376601,-3.854665,180.572510,-54.962158,113.647461,39.031250
5360,-4.381389,-1.359907,-0.660800,46.875000,-169.097900,-35.156250,39.039062
5400,8.987833,-3.083732,0.497994,-18.096924,104.156494,-65.826416,39.035156
5440,28.232426,-2.394202,-4.975151,155.883789,-124.267578,-66.162109,39.039062
5480,27.911604,-1.613692,-3.294421,110.015869,34.423828,-38.299561,39.048828
5520,17.257406,3.873818,-2.916138,156.860352,18.981934,-103.088379,39.048828
5560,8.255207,3.864242,0.986411,52.886963,46.691895,-61.950684,39.048828
5600,-1.216254,3.648763,0.828394,-29.968262,10.650635,-32.623291,39.039062
5640,-4.429273,2.006341,-1.034295,-81.268311,-12.268066,19.409180,39.017578
5680,-0.359130,1.685518,-2.001553,-92.864990,-12.725830,33.935547,39.050781
5720,7.522582,2.212242,-2.341529,-89.904785,-46.600342,14.648438,39.039062
5760,21.159954,4.841076,-3.414132,-119.293213,-74.645996,-23.559570,39.044922
5800,26.269180,4.118027,-1.843535,-145.568848,29.449463,35.736084,39.019531
5840,21.188684,2.829947,-0.593762,-148.345947,37.170410,71.289062,39.041016
5880,10.457873,3.055001,-2.408567,-121.704102,30.395508,53.863525,39.029297
5920,1.019930,0.708684,-3.112462,8.117676,-7.446289,15.411377,39.029297
5960,-3.667917,-4.606444,-2.863465,114.929199,-46.661377,101.928711,39.033203
6000,-4.606444,-4.151546,-1.618480,100.677490,32.745361,64.361572,39.064453
6040,-0.617704,-2.279280,0.521936,-42.572021,-95.397949,-45.440674,39.046875
6080,15.629349,-2.025495,-3.476381,52.337646,57.739258,-10.894775,39.009766
6120,28.505365,-1.019930,-3.102885,146.179199,-36.499023,-48.187256,39.042969
6160,25.067291,-1.891419,-3.500323,118.377686,24.536133,-27.069092,39.041016
6200,14.978126,3.916914,-2.269703,147.216797,-0.244141,-90.332031,39.060547
6240,6.397307,3.495534,1.331176,40.527344,36.224365,-46.997070,39.019531
6280,-2.954445,3.093309,0.402226,-32.623291,3.234863,-17.333984,39.027344
6320,-3.797204,1.340753,-0.991199,-60.485840,-0.274658,25.512695,39.035156
6360,0.799663,1.335965,-1.149217,-70.800781,-12.420654,39.611816,39.029297
6400,8.796297,2.600103,-2.025495,-81.359863,-39.672852,11.047363,39.035156
6440,21.859062,4.606444,-3.356671,-147.125244,-55.572510,1.068115,39.050781
6480,26.666618,2.729390,-1.987187,-164.611816,21.148682,49.560547,39.031250
6520,20.408175,1.599327,-1.000776,-154.663086,61.950684,74.279785,39.048828
6560,8.997410,2.173935,-2.964022,-88.623047,58.746338,27.313232,39.035156
6600,-0.095768,-1.235408,-3.797204,18.188477,16.937256,6.103516,39.042969
6640,-5.090073,-5.042189,-3.299210,123.596191,-37.689209,14.190674,39.035156
6680,-4.510676,-3.892972,-0.057461,50.689697,-22.216797,-30.914307,39.054688
6720,4.194642,-3.495534,0.512359,39.093018,25.665283,-8.911133,39.056641
6760,18.679562,-0.196325,-5.300763,121.124268,-120.849609,-13.000488,39.058594
6800,26.503813,-0.387861,-3.031059,109.497070,22.308350,-43.914795,39.058594
6840,22.448034,1.015141,-3.572149,129.455566,-17.730713,-79.559326,39.054688
6880,14.978126,3.299210,-0.785298,117.645264,12.390137,-77.026367,39.035156
6920,5.779603,4.232949,1.154005,35.644531,16.784668,-64.300537,39.050781
6960,-3.801992,2.820370,0.588974,-56.304932,0.000000,-22.033691,39.052734
7000,-3.371036,1.211466,-0.071826,-79.162598,10.986328,13.458252,39.031250
7040,0.852336,0.584185,-0.454898,-65.490723,-8.453369,22.979736,39.037109
7080,3.845088,1.479617,-1.685518,-93.475342,-18.615723,34.881592,39.033203
7120,16.452953,3.998317,-3.045424,-93.200684,-102.874756,8.728027,39.054688
7160,28.400021,3.490746,-2.470816,-131.408691,-12.054443,45.654297,39.019531
7200,24.751257,2.987964,-0.043096,-144.165039,60.638428,67.047119,39.046875
7240,13.350069,2.624045,-2.054225,-116.302490,50.842285,49.591064,39.044922
7280,3.227384,0.119710,-2.930503,-8.148193,52.276611,20.324707,39.066406
7320,-3.950433,-3.940856,-3.936068,149.993896,-46.386719,33.142090,39.035156
7360,-6.320693,-4.271256,-0.857124,87.280273,-21.545410,-2.960205,39.035156
7400,0.234632,-2.992752,0.483629,37.567139,-41.412354,-32.775879,39.068359
7440,14.815320,-2.633622,-3.892972,84.838867,-30.975342,15.350342,39.048828
7480,26.245239,-0.411803,-4.007894,138.610840,-39.794922,-28.320312,39.052734
7520,24.708162,-0.761356,-4.237737,113.677979,-7.080078,-35.522461,39.042969
7560,16.615759,2.499547,-2.322376,145.660400,-13.824463,-74.859619,39.054688
7600,8.949526,2.475605,1.048660,76.171875,40.100098,-59.936523,39.048828
7640,-0.991199,3.414132,0.550666,-4.394531,27.343750,-41.046143,39.060547
7680,-5.032612,1.881842,-0.579397,-66.070557,8.789062,7.171631,39.039062
7720,-0.517148,1.043872,-0.138864,-50.811768,-13.061523,16.296387,39.058594
7760,3.414132,1.163582,-1.110910,-86.181641,-9.704590,28.411865,39.054688
7800,14.154520,3.313575,-3.112462,-73.974609,-60.729980,-3.387451,39.054688
7840,25.900475,3.763685,-2.590526,-125.671387,-36.804199,23.590088,39.056641
7880,25.795130,3.236961,-0.545878,-165.527344,74.249268,51.239014,39.031250
7920,16.424223,2.375048,-2.059013,-144.317627,56.335449,54.138184,39.046875
7960,5.104438,0.890643,-2.868254,-37.200928,58.227539,10.162354,39.070312
8000,-2.398990,-3.596091,-3.907337,154.296875,-49.255371,20.263672,39.083984
8040,-5.540183,-5.473145,-2.379837,149.719238,-49.072266,26.153564,39.041016
8080,-1.862689,-3.332729,0.914585,-9.185791,-44.982910,-61.798096,39.025391
8120,13.292608,-2.140416,-2.135628,52.947998,48.858643,23.315430,39.048828
8160,26.336218,-0.210690,-4.812346,153.533936,-43.182373,-35.827637,39.048828
8200,25.052927,-0.454898,-3.964798,117.828369,1.708984,-22.827148,39.054688
8240,15.964537,4.673482,-1.833959,155.273438,-4.882812,-92.956543,39.062500
8280,7.623138,4.127604,1.781286,62.011719,60.394287,-64.270020,39.054688
8320,-2.355895,2.710236,1.168370,-30.426025,6.896973,-25.543213,39.044922
8360,-4.338294,1.288081,-1.120486,-68.634033,1.953125,17.242432,39.064453
8400,0.172383,1.594538,-1.666364,-81.604004,-18.707275,26.611328,39.025391
8440,7.675811,2.461239,-2.035071,-95.031738,-39.794922,27.679443,39.054688
8480,20.298042,4.261679,-3.543418,-126.342773,-70.495605,17.211914,39.058594
8520,26.269180,4.596867,-2.614468,-171.997070,10.559082,42.846680,39.074219
8560,22.644360,2.877831,-0.981623,-186.157227,68.145752,67.230225,39.050781
8600,11.836933,2.513912,-2.403779,-119.354248,57.220459,42.602539,39.060547
8640,1.522712,-0.885855,-3.342306,-13.244629,40.100098,18.951416,39.056641
8680,-5.233725,-4.807557,-3.854665,82.519531,-18.280029,40.313721,39.058594
8720,-5.492299,-3.562572,-1.522712,72.662354,-48.706055,-25.177002,39.048828
8760,2.983175,-2.652776,0.814029,24.871826,3.356934,-27.099609,39.052734
8800,15.940595,-1.144428,-4.357447,118.438721,-64.819336,-10.650635,39.054688
8840,25.981876,-1.857901,-3.715801,162.963867,4.089355,-32.043457,39.046875
8880,23.865402,0.239420,-3.634398,147.186279,12.298584,-29.815674,39.044922
8920,15.026010,5.315128,-1.872266,170.074463,2.471924,-80.352783,39.039062
8960,6.837840,3.993528,1.244985,71.807861,53.710938,-54.992676,39.048828
9000,-2.748544,3.169923,0.770933,-15.228271,18.341064,-27.282715,39.046875
9040,-4.218584,1.613692,-1.005565,-55.999756,-8.270264,14.343262,39.044922
9080,0.330400,1.312023,-0.785298,-67.199707,-26.458740,28.717041,39.039062
9120,6.995857,1.900996,-1.719037,-89.996338,-37.353516,32.745361,39.074219
9160,19.637243,4.170700,-3.160346,-107.391357,-71.258545,18.157959,39.048828
9200,26.671408,5.592855,-3.026271,-166.625977,7.690430,39.642334,39.029297
9240,22.682667,3.514688,-0.588974,-182.556152,81.024170,61.950684,39.050781
9280,11.405977,1.709460,-2.681506,-118.286133,45.623779,38.177490,39.070312
9320,1.742979,-0.258574,-3.107674,11.444092,34.790039,-2.227783,39.072266
9360,-4.065354,-4.678270,-3.155558,123.474121,-24.200439,38.116455,39.068359
9400,-5.109226,-4.611232,-1.556231,44.525146,-43.670654,-8.178711,39.066406
9440,1.580173,-2.691083,0.215478,22.277832,-24.749756,-22.125244,39.074219
9480,14.073117,-1.340753,-2.853889,71.990967,18.768311,6.591797,39.054688
9520,26.350584,-0.780510,-3.974375,160.156250,-44.891357,-29.449463,39.044922
9560,26.024973,-0.038307,-3.538630,115.692139,1.983643,-28.289795,39.037109
9600,16.452953,4.429273,-1.881842,148.193359,-1.129150,-81.359863,39.062500
9640,7.943961,4.103662,1.460463,80.169678,55.633545,-69.061279,39.082031
9680,-1.991976,3.251326,1.125275,-19.836426,25.054932,-38.360596,39.060547
9720,-4.683059,1.312023,-0.751779,-61.126709,2.502441,12.298584,39.078125
9760,-0.713472,0.928950,-0.972046,-64.270020,-24.627686,27.008057,39.078125
9800,4.434062,2.202666,-1.412579,-85.723877,-35.461426,31.951904,39.064453
9840,16.208746,4.544195,-2.063802,-87.310791,-69.641113,-5.584717,39.068359
9880,26.436775,5.650316,-2.217031,-146.942139,-40.802002,27.404785,39.048828
9920,25.062504,3.845088,-0.071826,-187.103271,46.844482,65.948486,39.064453
9960,14.326903,2.279280,-2.561796,-159.942627,30.639648,65.856934,39.064453
10000,4.386178,0.943315,-2.844312,-19.287109,43.975830,12.817383,39.068359
10040,-2.657564,-3.016694,-3.538630,131.713867,-32.135010,10.772705,39.044922
10080,-5.185841,-5.985504,-2.236184,100.860596,-47.668457,6.866455,39.042969
10120,-0.641646,-4.132392,-0.153229,37.292480,-35.308838,-14.801025,39.066406
10160,10.424355,-1.278504,-1.867477,35.827637,48.645020,23.040771,39.072266
10200,24.162283,0.378284,-5.003881,172.271729,-107.147217,-47.149658,39.060547
10240,26.929981,-1.235408,-3.404555,93.719482,40.435791,0.640869,39.068359
10280,18.267759,4.659117,-2.389413,161.071777,1.922607,-91.735840,39.056641
10320,9.849746,4.199430,0.603339,102.600098,51.757812,-74.768066,39.078125
10360,0.100556,3.299210,1.824382,-3.234863,33.050537,-42.419434,39.058594
10400,-5.252879,1.819593,-0.483629,-57.128906,-5.004883,1.617432,39.072266
10440,-1.302446,1.019930,-1.115698,-70.526123,-4.180908,23.834229,39.070312
10480,3.677494,1.388637,-1.771709,-84.716797,-26.824951,35.827637,39.076172
10520,13.067553,2.183512,-2.188300,-73.760986,-61.523438,19.622803,39.072266
10560,24.167072,5.822699,-2.815581,-146.911621,-55.938721,28.930664,39.066406
10600,25.598804,4.189853,-0.234632,-173.217773,36.590576,55.084229,39.087891
10640,17.219099,2.446874,-1.297657,-156.951904,59.478760,57.434082,39.054688
10680,6.239290,0.833182,-3.313575,-52.612305,62.957764,11.016846,39.048828
10720,-2.049437,-3.337517,-3.845088,101.257324,-1.922607,23.590088,39.058594
10760,-5.535394,-4.467580,-2.600103,114.929199,-55.603027,17.578125,39.083984
10800,-2.624045,-2.571373,0.612916,23.376465,-36.010742,-42.388916,39.083984
10840,8.877700,-3.088520,-0.129287,9.979248,24.505615,3.723145,39.060547
10880,22.898146,0.090980,-5.482722,169.403076,-116.302490,-26.672363,39.060547
10920,26.652254,-0.852336,-3.265691,125.671387,39.550781,-17.364502,39.078125
10960,19.771318,3.112462,-3.069367,153.228760,-19.714355,-64.697266,39.054688
11000,11.180922,4.601655,-0.052672,125.152588,41.107178,-67.657471,39.058594
11040,2.054225,3.936068,1.508347,20.690918,44.891357,-52.124023,39.060547
11080,-5.214571,2.006341,-0.296881,-46.325684,1.312256,-2.502441,39.070312
11120,-1.963245,1.192312,-0.847547,-64.361572,-7.263184,23.712158,39.087891
11160,3.050213,2.217031,-1.584962,-79.864502,-35.278320,28.686523,39.103516
11200,12.574347,3.797204,-2.130840,-114.318848,-50.079346,15.136719,39.064453
11240,24.047361,5.310339,-3.754108,-122.131348,-61.431885,8.666992,39.076172
11280,25.761610,3.552995,-1.086968,-171.813965,32.348633,51.910400,39.070312
11320,17.822437,3.193865,-0.426168,-178.894043,80.902100,70.098877,39.072266
11360,6.560112,2.413355,-2.782062,-97.351074,53.985596,33.294678,39.068359
11400,-1.091756,-1.589750,-3.385401,73.608398,4.699707,47.149658,39.082031
11440,-4.309563,-5.511452,-4.194642,165.527344,-64.819336,66.589355,39.087891
11480,-3.548207,-4.419696,0.014365,28.472900,-44.311523,-36.437988,39.099609
11520,7.316680,-3.878607,0.181959,-19.500732,17.395020,-38.330078,39.105469
11560,22.706610,1.005565,-5.932832,164.978027,-127.716064,-40.100098,39.080078
11600,27.930758,-1.331176,-2.930503,107.177734,66.070557,-6.500244,39.091797
11640,19.479225,3.849876,-3.500323,162.506104,-35.736084,-84.472656,39.093750
11680,11.085154,4.668694,-0.296881,117.034912,17.791748,-76.049805,39.082031
11720,2.686294,3.495534,2.092532,4.974365,36.773682,-49.438477,39.070312
11760,-4.520253,1.910573,-0.301669,-50.720215,-0.549316,-7.141113,39.078125
11800,-2.585738,0.967257,-1.216254,-66.864014,-1.190186,20.202637,39.078125
11840,2.044648,1.599327,-1.288081,-80.261230,-22.766113,30.975342,39.099609
11880,11.506534,2.700660,-1.810017,-81.176758,-37.261963,19.531250,39.066406
11920,22.414516,5.492299,-3.303998,-133.209229,-70.068359,17.486572,39.072266
11960,26.182989,4.141969,-1.134852,-173.980713,14.343262,56.213379,39.078125
12000,19.325996,2.394202,-1.125275,-162.109375,72.418213,67.016602,39.093750
12040,8.537724,2.082955,-2.504335,-74.310303,55.114746,20.965576,39.087891
12080,-0.067038,-1.920150,-3.136404,23.803711,24.658203,18.402100,39.070312
12120,-5.702989,-5.224148,-3.921702,122.711182,-72.143555,35.491943,39.093750
12160,-4.027047,-3.591303,-0.565032,73.852539,-54.107666,-44.372559,39.066406
12200,6.957550,-2.542642,-0.282516,2.777100,9.857178,-11.779785,39.078125
12240,21.164743,-0.062249,-6.493075,163.269043,-120.147705,-33.508301,39.074219
12280,27.044903,-2.154782,-3.505111,130.493164,50.384521,-16.326904,39.087891
12320,20.087353,3.208230,-3.390190,169.097900,-3.570557,-68.847656,39.064453
12360,11.496957,5.382165,-0.713472,134.948730,34.332275,-87.341309,39.070312
12400,3.375824,3.600879,1.403002,23.742676,59.143066,-52.398682,39.091797
12440,-4.505888,2.341529,-0.263362,-41.778564,8.605957,-4.760742,39.097656
12480,-2.676718,1.225831,-1.221043,-63.140869,-12.573242,20.355225,39.060547
12520,2.437297,1.297657,-1.853112,-72.113037,-39.611816,27.526855,39.078125
12560,11.429919,2.442086,-1.508347,-96.923828,-39.825439,11.444092,39.064453
12600,22.390574,6.406884,-3.347094,-107.513428,-67.749023,8.300781,39.083984
12640,25.479094,4.750096,-1.254562,-167.785645,21.057129,56.274414,39.068359
12680,18.966866,3.533842,-0.416591,-179.962158,74.920654,73.638916,39.078125
12720,8.274361,2.015918,-2.959233,-110.656738,36.193848,39.520264,39.083984
12760,0.646434,-1.383849,-2.911349,41.198730,24.566650,26.062012,39.085938
12800,-3.715801,-4.687847,-3.830723,178.710938,-46.813965,52.642822,39.087891
12840,-4.271256,-3.969586,-0.809240,46.234131,-42.419434,-6.225586,39.087891
12880,4.170700,-3.064578,0.067038,-13.549805,-15.502930,-62.561035,39.082031
12920,19.929335,-0.225055,-5.056554,126.678467,-53.558350,-16.571045,39.080078
12960,27.083210,-0.636858,-3.064578,151.947021,53.039551,-23.651123,39.097656
13000,21.543026,2.638410,-3.270479,142.333984,-18.920898,-54.016113,39.082031
13040,12.981361,4.606444,-0.660800,140.625000,18.829346,-72.784424,39.093750
13080,4.438850,4.189853,2.001553,38.696289,41.595459,-62.622070,39.099609
13120,-4.280833,2.647987,0.699107,-42.114258,5.523682,-19.226074,39.091797
13160,-2.853889,0.995988,-1.331176,-70.465088,-1.708984,24.780273,39.093750
13200,1.335965,1.388637,-2.020706,-79.223633,-41.412354,31.158447,39.091797
13240,10.237606,3.624821,-1.757344,-112.213135,-43.060303,11.596680,39.082031
13280,22.400150,5.410896,-3.385401,-121.032715,-77.148438,14.801025,39.093750
13320,25.991453,4.922479,-1.484405,-177.429199,22.735596,47.027588,39.093750
13360,20.058622,2.925714,-0.972046,-176.422119,71.044922,77.423096,39.089844
13400,8.705317,1.891419,-3.055001,-78.704834,42.419434,37.536621,39.101562
13440,0.459687,-0.636858,-2.743755,48.522949,14.038086,18.310547,39.095703
13480,-4.601655,-4.687847,-3.193865,133.544922,-56.274414,28.656006,39.109375
13520,-3.969586,-4.544195,-0.775721,38.787842,-16.418457,-10.498047,39.091797
13560,3.672705,-3.088520,-0.067038,19.653320,0.305176,2.655029,39.109375
13600,17.621325,0.196325,-4.582502,122.222900,-72.021484,-27.069092,39.107422
13640,27.892450,-1.058237,-2.868254,124.969482,33.050537,-16.784668,39.105469
13680,22.625206,2.494758,-3.055001,141.479492,-17.730713,-63.446045,39.095703
13720,13.934254,4.783615,-1.005565,149.353027,10.894775,-90.637207,39.117188
13760,5.683835,3.332729,1.623269,47.760010,48.614502,-60.058594,39.093750
13800,-3.117251,2.365471,0.263362,-31.219482,17.395020,-7.659912,39.078125
13840,-3.605668,1.426944,-1.067814,-60.455322,-2.624512,15.625000,39.099609
13880,0.565032,1.235408,-1.019930,-67.626953,-14.251709,26.275635,39.105469
13920,7.302315,2.202666,-1.474828,-92.773438,-30.334473,28.198242,39.105469
13960,20.269312,4.443638,-2.834735,-117.431641,-79.620361,21.697998,39.093750
14000,25.656265,5.023035,-1.810017,-161.590576,-1.281738,45.196533,39.107422
14040,21.533449,3.538630,0.244209,-157.073975,75.347900,53.527832,39.111328
14080,11.113884,2.284068,-1.819593,-104.858398,59.875488,30.364990,39.111328
14120,1.345541,-0.684742,-3.098097,3.936768,35.827637,16.845703,39.097656
14160,-4.472369,-4.467580,-3.993528,144.256592,-62.347412,26.641846,39.091797
14200,-4.295198,-4.697424,-1.326388,82.214355,-42.724609,-22.369385,39.097656
14240,2.973598,-3.438074,0.627281,12.145996,-22.583008,-24.658203,39.107422
14280,16.304514,-0.512359,-3.476381,77.362061,-13.214111,6.347656,39.111328
14320,26.015396,-0.368707,-2.887407,140.350342,-17.028809,-29.388428,39.107422
14360,23.745693,1.039083,-3.064578,136.230469,-3.112793,-43.304443,39.097656
14400,15.342045,4.209007,-1.470040,134.399414,-7.995605,-64.453125,39.109375
14440,7.311892,4.156334,1.498770,63.446045,35.430908,-63.690186,39.105469
14480,-2.695871,3.045424,0.775721,-25.238037,9.429932,-35.980225,39.111328
14520,-4.405331,1.288081,-0.584185,-66.101074,17.974854,7.629395,39.103516
14560,0.833182,1.273715,-2.049437,-68.023682,-24.108887,20.050049,39.103516
14600,9.864111,2.308010,-1.848324,-110.229492,-17.608643,14.648438,39.107422
14640,19.412188,4.467580,-2.322376,-100.524902,-92.956543,2.532959,39.117188
14680,25.330654,5.501875,-1.053449,-157.043457,21.514893,43.304443,39.121094
14720,21.198261,3.849876,-0.335188,-180.877686,73.730469,64.575195,39.099609
14760,10.122684,2.001553,-2.734178,-122.619629,39.916992,46.478271,39.105469
14800,0.943315,-0.603339,-2.839523,4.943848,22.674561,23.345947,39.105469
14840,-3.529053,-4.395754,-4.041412,177.612305,-70.404053,58.990479,39.126953
14880,-4.007894,-4.228160,-1.498770,83.496094,-28.228760,9.552002,39.107422
14920,1.216254,-2.959233,1.053449,-7.568359,-18.432617,-49.652100,39.101562
14960,15.428236,-1.948880,-2.772485,64.361572,26.855469,-13.885498,39.097656
15000,27.126305,0.531513,-3.174711,147.735596,-6.988525,-31.341553,39.083984
15040,24.310724,1.264138,-3.169923,123.168945,-11.505127,-36.163330,39.095703
15080,14.978126,4.611232,-1.211466,152.954102,13.153076,-84.594727,39.093750
15120,6.507440,3.677494,1.647211,60.638428,43.792725,-60.668945,39.097656
15160,-2.351106,2.968810,0.804452,-29.022217,2.349854,-26.855469,39.113281
15200,-3.835511,1.225831,-1.034295,-63.629150,9.246826,14.007568,39.123047
15240,0.019154,1.446098,-1.177947,-71.105957,-11.016846,23.071289,39.097656
15280,7.426814,2.791639,-1.762132,-101.470947,-25.604248,30.334473,39.107422
15320,20.053833,3.739743,-2.470816,-91.888428,-69.702148,10.253906,39.136719
15360,26.345795,5.080496,-1.240196,-150.390625,-25.054932,44.097900,39.103516
15400,22.448034,3.806781,0.699107,-171.752930,81.726074,70.190430,39.126953
15440,11.142614,2.322376,-2.446874,-96.649170,45.989990,35.461426,39.132812
15480,1.455675,-0.407014,-3.529053,15.045166,28.869629,7.843018,39.105469
15520,-4.855441,-4.663905,-3.682282,131.256104,-54.382324,40.557861,39.113281
15560,-4.979939,-4.601655,-1.130063,63.720703,-41.900635,-16.174316,39.113281
15600,2.987964,-3.069367,0.019154,32.745361,-17.944336,-17.120361,39.125000
15640,16.692375,-0.062249,-4.400543,100.677490,-49.957275,-15.899658,39.119141
15680,26.934769,-0.244209,-2.973598,146.881104,5.859375,-34.576416,39.117188
15720,24.253263,1.288081,-3.303998,125.854492,-5.615234,-34.545898,39.123047
15760,14.312538,5.334281,-1.359907,145.416260,-1.800537,-83.343506,39.115234
15800,6.133945,4.113238,1.594538,60.394287,52.795410,-67.657471,39.115234
15840,-3.126827,2.341529,0.545878,-32.684326,17.822266,-22.369385,39.103516
15880,-3.734955,0.890643,-0.794875,-64.514160,5.615234,19.989014,39.101562
15920,0.124498,1.259350,-1.019930,-65.460205,-27.893066,29.052734,39.126953
15960,7.445967,2.566584,-1.642422,-104.492188,-34.484863,34.362793,39.103516
16000,19.603724,4.869806,-2.408567,-111.328125,-69.763184,4.272461,39.111328
16040,26.130318,5.621585,-1.824382,-159.545898,4.455566,33.630371,39.128906
16080,22.318748,3.658340,0.067038,-183.258057,89.172363,61.981201,39.136719
16120,10.874464,1.723825,-2.317587,-131.958008,32.470703,48.950195,39.119141
16160,1.766921,-0.474052,-2.609680,-7.476807,30.883789,14.038086,39.121094
16200,-3.600879,-4.094085,-3.773262,162.292480,-57.434082,58.074951,39.123047
16240,-5.003881,-4.367024,-2.188300,120.391846,-55.847168,41.473389,39.111328
16280,-0.047884,-3.241749,0.708684,-29.083252,-83.374023,-91.094971,39.130859
16320,18.104954,-0.727837,-4.003105,82.336426,20.629883,-29.876709,39.111328
16360,28.629864,-1.115698,-4.027047,146.942139,17.456055,-21.087646,39.128906
16400,24.162283,1.699883,-3.816358,125.549316,14.648438,-40.191650,39.130859
16440,14.451402,5.583278,-1.201889,154.785156,17.944336,-89.202881,39.117188
16480,6.363788,3.945644,2.394202,57.800293,67.901611,-65.338135,39.123047
16520,-3.236961,2.590526,0.775721,-28.503418,9.460449,-21.057129,39.111328
16560,-4.156334,1.211466,-1.273715,-63.964844,-6.408691,18.188477,39.125000
16600,0.397437,1.436521,-1.168370,-77.697754,-16.906738,28.869629,39.123047
16640,8.389283,2.796427,-1.704672,-88.867188,-53.894043,24.291992,39.113281
16680,20.321983,4.501099,-2.054225,-104.095459,-48.370361,8.087158,39.132812
16720,25.426422,5.195418,-1.273715,-169.708252,-28.625488,43.334961,39.125000
16760,21.408951,3.035848,0.095768,-171.936035,71.258545,71.411133,39.113281
16800,10.544065,2.274492,-2.145205,-99.029541,52.001953,34.362793,39.105469
16840,1.517924,-0.943315,-3.107674,3.540039,36.743164,14.129639,39.136719
16880,-4.884171,-4.826711,-3.610456,90.545654,-28.442383,43.823242,39.138672
16920,-5.037400,-3.816358,-1.489193,86.730957,-50.201416,-24.749756,39.121094
16960,2.930503,-3.236961,0.603339,39.886475,-1.403809,-24.627686,39.123047
17000,17.875111,-0.574608,-4.874595,117.492676,-63.354492,0.915527,39.126953
17040,26.929981,-0.339977,-2.308010,146.514893,17.791748,-23.284912,39.123047
17080,23.266851,2.351106,-2.485181,142.669678,-18.554688,-56.701660,39.123047
17120,14.389153,5.200206,-0.828394,143.676758,0.030518,-81.481934,39.117188
17160,6.066907,3.351882,1.580173,65.521240,56.610107,-55.999756,39.121094
17200,-2.906561,2.336741,0.459687,-25.970459,11.474609,-15.228271,39.097656
17240,-3.567361,1.316811,-1.235408,-59.509277,-7.049561,16.021729,39.117188
17280,0.799663,1.580173,-1.268927,-77.514648,-28.961182,26.519775,39.103516
17320,8.585608,2.537854,-1.963245,-102.050781,-52.093506,19.531250,39.113281
17360,20.987572,4.932055,-3.141193,-95.062256,-78.582764,9.918213,39.132812
17400,25.052927,5.444415,-1.709460,-159.362793,15.563965,30.456543,39.130859
17440,20.863073,3.428497,0.043096,-185.302734,63.934326,64.636230,39.107422
17480,10.156203,2.327164,-2.274492,-137.268066,58.441162,51.666260,39.126953
17520,1.359907,-0.201113,-2.920926,13.977051,30.639648,20.751953,39.111328
17560,-3.500323,-4.692636,-4.276044,184.448242,-56.671143,57.983398,39.140625
17600,-4.453215,-4.611232,-1.690306,79.864502,-29.296875,2.929688,39.123047
17640,2.638410,-3.495534,0.555455,-18.981934,-41.687012,-62.683105,39.130859
17680,19.560627,-0.430956,-4.520253,96.191406,-25.909424,-20.050049,39.107422
17720,27.523743,-0.028730,-2.576161,145.599365,40.344238,-20.660400,39.121094
17760,22.740128,2.533065,-3.280056,150.756836,-1.861572,-53.588867,39.103516
17800,12.526464,5.760449,-1.010353,151.794434,8.453369,-86.639404,39.130859
17840,4.199430,4.180276,2.398990,42.358398,33.050537,-59.326172,39.103516
17880,-3.720589,2.475605,0.478840,-38.360596,-6.072998,-14.556885,39.126953
17920,-2.595315,1.039083,-1.580173,-71.044922,-6.134033,21.972656,39.130859
17960,1.527501,1.757344,-1.728614,-83.679199,-15.258789,25.909424,39.126953
18000,8.796297,3.179500,-1.685518,-102.508545,-33.691406,19.042969,39.119141
18040,19.948488,5.252879,-2.135628,-105.773926,-40.039062,-4.150391,39.121094
18080,25.483883,4.898537,-0.746991,-158.874512,-19.500732,42.480469,39.126953
18120,21.021091,3.921702,0.440533,-177.978516,62.164307,69.580078,39.125000
18160,10.132261,3.107674,-2.461239,-113.342285,44.708252,33.813477,39.130859
18200,1.891419,-0.952892,-3.323152,28.900146,8.209229,14.221191,39.150391
18240,-4.113238,-4.855441,-3.514688,143.066406,-33.660889,32.714844,39.115234
18280,-4.505888,-4.118027,-0.924162,54.016113,-43.426514,-21.301270,39.117188
18320,3.715801,-3.481169,0.660800,6.103516,1.647949,-8.117676,39.115234
18360,18.631678,0.780510,-4.955997,125.396729,-54.718018,-14.892578,39.146484
18400,26.815060,-0.488417,-2.504335,122.375488,22.186279,-12.969971,39.140625
18440,22.079329,3.418920,-2.365471,140.625000,1.495361,-61.187744,39.115234
18480,13.062764,5.276821,-0.426168,137.603760,23.040771,-79.803467,39.130859
18520,5.363012,3.189077,1.853112,41.717529,35.034180,-50.750732,39.126953
18560,-4.185065,2.442086,0.086191,-42.785645,-7.476807,-10.925293,39.144531
18600,-3.739743,1.493982,-0.948104,-66.711426,-8.392334,25.573730,39.109375
18640,1.455675,1.623269,-1.000776,-75.164795,-25.726318,34.667969,39.109375
18680,9.591172,2.671929,-1.924938,-97.106934,-35.552979,30.364990,39.123047
18720,21.796812,4.812346,-3.529053,-115.112305,-64.392090,21.423340,39.113281
18760,25.187002,4.683059,-1.738190,-149.627686,-11.260986,43.945312,39.117188
18800,20.135237,3.490746,0.387861,-161.956787,77.301025,60.394287,39.125000
18840,9.337387,2.667141,-2.274492,-98.571777,50.018311,24.139404,39.123047
18880,0.517148,-1.771709,-3.452439,48.034668,26.275635,23.406982,39.103516
18920,-5.204995,-5.793968,-3.734955,152.130127,-37.536621,47.790527,39.128906
18960,-4.362236,-3.945644,-0.737414,44.555664,-42.449951,-36.621094,39.132812
19000,6.876147,-2.236184,0.426168,-0.152588,14.038086,-28.411865,39.126953
19040,23.104046,0.770933,-5.315128,159.301758,-110.748291,-17.242432,39.111328
19080,27.370514,-1.067814,-2.547431,114.532471,57.769775,-4.882812,39.117188
19120,19.258959,4.395754,-2.580950,158.355713,-16.998291,-76.690674,39.121094
19160,10.649409,5.401319,0.339977,111.450195,25.665283,-76.477051,39.125000
19200,2.006341,3.414132,1.690306,20.812988,29.449463,-57.037354,39.121094
19240,-4.630386,1.771709,-0.205901,-43.670654,-2.288818,-4.730225,39.111328
19280,-2.015918,0.703895,-1.149217,-62.866211,-7.598877,30.395508,39.115234
19320,2.054225,1.144428,-1.091756,-71.929932,-29.754639,34.637451,39.126953
19360,10.352529,3.462016,-1.920150,-99.792480,-54.382324,22.430420,39.117188
19400,22.764071,6.837840,-2.269703,-122.528076,-62.683105,-2.990723,39.126953
19440,25.397692,4.429273,-0.560243,-167.846680,24.810791,44.525146,39.121094
19480,18.933348,3.533842,-0.191536,-178.741455,65.795898,62.408447,39.103516
19520,7.833828,3.107674,-1.776498,-93.414307,53.710938,18.737793,39.136719
19560,-0.177171,-1.436521,-3.117251,97.656250,-31.921387,24.078369,39.130859
19600,-3.960010,-5.415684,-4.223372,165.374756,-63.171387,25.573730,39.113281
19640,-2.030283,-4.644751,-0.933739,-11.230469,-65.612793,-47.637939,39.130859
19680,11.722012,-3.356671,-0.474052,-8.758545,52.612305,1.678467,39.123047
19720,24.655489,0.842759,-5.544971,200.500488,-89.324951,-32.653809,39.150391
19760,25.335442,0.588974,-3.433285,104.064941,79.223633,-1.892090,39.130859
19800,16.108189,5.458780,-2.829947,156.280518,-32.226562,-74.920654,39.105469
19840,8.844181,4.711789,1.340753,88.073730,55.572510,-67.840576,39.113281
19880,-0.234632,3.548207,1.206678,-18.951416,30.731201,-37.109375,39.123047
19920,-5.252879,1.532289,-1.019930,-64.880371,-0.244141,12.084961,39.119141
19960,-1.345541,1.771709,-1.101333,-74.890137,-7.049561,24.200439,39.136719
20000,4.635174,2.719813,-1.417367,-93.811035,-44.738770,29.510498,39.123047
20040,15.849615,4.137180,-1.953669,-97.930908,-43.701172,16.174316,39.121094
20080,25.392902,6.196194,-2.408567,-152.160645,-22.705078,27.130127,39.125000
20120,23.870192,4.213795,0.167594,-178.649902,33.447266,64.514160,39.121094
20160,14.025233,3.390190,-1.441309,-152.465820,52.398682,44.525146,39.111328
20200,4.625597,0.004788,-2.825158,-35.400391,51.696777,16.204834,39.099609
20240,-2.930503,-4.721366,-4.395754,83.648682,-1.129150,41.870117,39.125000
20280,-6.042965,-4.084508,-2.317587,86.395264,-49.224854,-4.425049,39.132812
20320,-0.033519,-2.978387,0.670376,43.212891,-30.822754,-18.554688,39.123047
20360,13.852851,-1.781286,-3.289633,68.145752,-0.274658,17.456055,39.142578
20400,25.028984,1.316811,-3.438074,144.866943,-28.076172,-21.026611,39.117188
20440,25.306711,0.311246,-2.724602,150.817871,-5.554199,-24.810791,39.128906
20480,16.567875,4.548983,-1.316811,192.077637,7.720947,-86.090088,39.126953
20520,8.858546,3.643975,2.073379,100.158691,65.643311,-62.896729,39.126953
20560,-0.967257,2.954445,0.536301,-0.305176,32.623291,-27.801514,39.117188
20600,-4.960786,1.613692,-0.972046,-56.945801,-2.410889,13.916016,39.142578
20640,-0.636858,1.642422,-0.421380,-67.779541,-19.744873,24.291992,39.117188
20680,4.405331,2.408567,-1.848324,-102.752686,-52.886963,33.599854,39.132812
20720,16.630125,3.701436,-2.671929,-72.723389,-80.505371,1.892090,39.144531
20760,25.493460,4.505888,-2.231396,-102.355957,-42.358398,25.390625,39.128906
20800,24.085669,4.170700,0.354342,-178.253174,51.483154,61.157227,39.126953
20840,14.283808,2.489970,-1.623269,-150.482178,62.622070,66.650391,39.130859
20880,4.041412,1.034295,-2.906561,-33.508301,74.554443,16.632080,39.136719
20920,-2.370260,-3.792415,-4.261679,178.253174,-34.149170,16.479492,39.144531
20960,-5.439626,-5.204995,-2.092532,102.416992,-37.628174,9.124756,39.132812
21000,-0.186748,-3.447650,0.526724,27.099609,-46.051025,-38.085938,39.142578
21040,14.738706,-0.766145,-3.524265,73.852539,22.460938,-6.195068,39.130859
21080,25.191790,0.938527,-3.543418,134.857178,-33.905029,-16.448975,39.117188
21120,24.607605,1.221043,-2.738967,116.516113,-3.906250,-30.883789,39.132812
21160,15.878345,4.424485,-1.355118,154.083252,-5.432129,-84.197998,39.109375
21200,7.771579,4.285621,1.819593,76.385498,58.807373,-65.887451,39.109375
21240,-1.632846,3.155558,1.077391,-28.381348,14.434814,-32.806396,39.130859
21280,-3.658340,0.900220,-1.244985,-69.427490,-2.502441,21.148682,39.132812
21320,0.339977,1.063026,-1.364695,-81.481934,-22.033691,38.146973,39.117188
21360,7.943961,3.337517,-1.580173,-97.778320,-39.947510,23.071289,39.126953
21400,18.631678,5.228937,-2.111686,-105.255127,-58.807373,-6.652832,39.132812
21440,25.306711,4.649539,-1.364695,-154.205322,1.800537,37.078857,39.150391
21480,21.413740,3.117251,-0.162806,-184.967041,81.878662,68.145752,39.142578
21520,10.405201,2.403779,-2.442086,-131.591797,55.572510,44.189453,39.136719
21560,2.006341,-0.033519,-2.700660,-9.704590,47.821045,9.460449,39.132812
21600,-3.620033,-5.008670,-3.931279,168.457031,-48.034668,50.903320,39.136719
21640,-5.118803,-3.955221,-1.613692,90.454102,-41.564941,-12.023926,39.123047
21680,0.507571,-2.571373,1.551443,31.402588,-24.017334,-28.472900,39.152344
21720,14.949395,-1.910573,-1.383849,44.006348,7.934570,1.800537,39.117188
21760,28.280310,2.274492,-3.476381,104.522705,-20.355225,-28.533936,39.166016
21800,24.598028,1.924938,-2.901772,131.683350,6.195068,-54.443359,39.144531
21840,15.289372,3.969586,-0.694318,139.404297,36.651611,-78.277588,39.130859
21880,6.181829,3.639187,1.948880,57.281494,47.271729,-58.013916,39.160156
21920,-3.098097,3.031059,0.483629,-33.355713,-10.772705,-22.766113,39.146484
21960,-4.094085,1.230620,-1.053449,-75.561523,-2.960205,22.186279,39.134766
22000,0.387861,1.407791,-1.570596,-70.861816,-16.815186,30.273438,39.123047
22040,9.236830,2.523489,-2.092532,-81.634521,-53.527832,24.322510,39.130859
22080,20.321983,4.290410,-2.552219,-103.851318,-88.500977,21.453857,39.130859
22120,25.785553,6.253655,-0.746991,-170.104980,-27.862549,41.137695,39.140625
22160,21.868639,3.749320,0.828394,-175.109863,100.097656,65.856934,39.136719
22200,10.098742,2.537854,-2.504335,-118.103027,55.603027,34.027100,39.126953
22240,1.187524,-1.479617,-3.572149,23.803711,26.794434,18.524170,39.130859
22280,-4.343082,-4.888960,-4.079720,141.632080,-56.732178,35.675049,39.134766
22320,-4.438850,-3.883395,-0.981623,72.631836,-46.813965,-32.287598,39.134766
22360,4.223372,-3.452439,0.407014,26.000977,-22.003174,-29.205322,39.140625
22400,20.216639,-1.019930,-5.042189,138.000488,-67.443848,0.427246,39.146484
22440,27.035326,0.124498,-2.317587,145.996094,24.597168,-28.747559,39.123047
22480,21.030668,3.418920,-3.275268,158.203125,-44.738770,-61.706543,39.128906
22520,12.157756,5.252879,-0.598550,139.648438,-5.401611,-76.599121,39.142578
22560,4.132392,3.816358,1.537078,26.855469,17.974854,-46.539307,39.132812
22600,-2.738967,2.786851,-0.344765,-56.762695,6.042480,-14.190674,39.130859
22640,-2.504335,1.000776,-1.216254,-83.190918,5.310059,20.690918,39.146484
22680,1.388637,0.928950,-0.675165,-70.556641,-7.659912,19.256592,39.144531
22720,9.390059,2.456451,-2.202666,-118.591309,-20.996094,27.404785,39.136719
22760,22.026655,4.563348,-2.662352,-103.576660,-60.150146,14.312744,39.132812
22800,25.057714,4.678270,-1.058237,-166.351318,17.089844,43.426514,39.142578
22840,19.637243,3.198653,-0.320823,-165.405273,82.885742,59.356689,39.132812
22880,8.513782,1.742979,-2.552219,-102.996826,56.610107,36.529541,39.140625
22920,0.713472,-1.675941,-3.165135,62.133789,13.916016,14.984131,39.130859
22960,-4.644751,-4.697424,-3.672705,162.414551,-61.645508,13.732910,39.123047
23000,-3.892972,-4.113238,-0.387861,49.926758,-41.778564,-25.299072,39.138672
23040,6.497863,-4.132392,0.205901,2.563477,15.747070,0.579834,39.134766
23080,21.720198,1.331176,-5.564125,164.428711,-94.573975,-23.254395,39.164062
23120,26.906038,0.019154,-2.451663,108.917236,39.154053,-11.108398,39.148438
23160,20.633230,4.228160,-2.293645,158.935547,5.798340,-81.237793,39.134766
23200,11.760319,4.223372,0.502782,124.084473,36.590576,-75.378418,39.150391
23240,2.389413,3.169923,1.714248,31.951904,17.517090,-45.928955,39.152344
23280,-4.750096,1.896208,-0.354342,-48.400879,-13.122559,3.692627,39.156250
23320,-1.795651,1.230620,-1.254562,-63.018799,-2.685547,27.404785,39.160156
23360,3.074155,1.671153,-1.307234,-67.382812,-23.071289,28.778076,39.142578
23400,11.516110,3.016694,-1.584962,-79.376221,-33.599854,16.784668,39.152344
23440,23.415293,6.871359,-3.169923,-130.065918,-63.903809,4.486084,39.115234
23480,25.038561,4.165911,-0.962469,-178.924561,28.076172,55.114746,39.154297
23520,17.017986,1.747767,-1.302446,-155.456543,38.940430,69.976807,39.142578
23560,6.459556,1.853112,-2.149993,-70.922852,47.088623,21.423340,39.140625
23600,-1.493982,-2.513912,-3.428497,82.794189,-12.084961,13.854980,39.130859
23640,-5.243302,-5.612009,-2.906561,130.493164,-54.870605,-6.011963,39.138672
23680,-0.282516,-3.375824,0.110133,43.273926,5.035400,-38.146973,39.152344
23720,11.319786,-1.340753,-2.422932,26.458740,26.855469,12.420654,39.144531
23760,23.429657,0.632069,-4.405331,158.996582,-74.279785,-35.308838,39.144531
23800,24.981100,-0.038307,-3.452439,117.523193,38.604736,-8.331299,39.146484
23840,16.893488,5.444415,-2.054225,163.330078,-3.387451,-80.108643,39.148438
23880,9.064447,4.553771,1.326388,96.893311,45.074463,-68.481445,39.154297
23920,-0.488417,3.179500,1.288081,1.495361,29.510498,-37.139893,39.181641
23960,-4.419696,1.848324,-0.857124,-61.706543,-1.739502,14.038086,39.162109
24000,-0.435745,1.048660,-1.369483,-77.880859,-15.808105,38.909912,39.144531
24040,7.005434,2.116474,-2.044648,-99.365234,-35.339355,36.193848,39.148438
24080,18.425776,4.979939,-2.858677,-90.179443,-71.899414,12.542725,39.126953
24120,24.674643,5.760449,-2.164358,-134.765625,-6.500244,24.932861,39.136719
24160,22.500708,3.442862,0.081403,-180.603027,67.596436,64.208984,39.150391
24200,11.971008,2.676718,-1.513135,-157.745361,83.038330,54.870605,39.166016
24240,1.881842,0.301669,-2.873042,-8.148193,38.024902,15.167236,39.164062
24280,-3.533842,-4.774038,-4.333505,164.703369,-21.514893,59.020996,39.173828
24320,-4.908113,-4.611232,-2.624045,89.752197,-42.175293,-9.552002,39.150391
24360,1.034295,-2.786851,0.483629,7.171631,-53.375244,-69.305420,39.148438
24400,16.807297,-0.952892,-2.829947,72.204590,5.035400,8.483887,39.162109
24440,26.130318,0.995988,-2.398990,158.477783,2.563477,-28.503418,39.150391
24480,24.521414,1.201889,-3.260903,136.749268,4.760742,-24.719238,39.169922
24520,14.762648,5.463568,-1.273715,163.024902,14.984131,-87.402344,39.154297
24560,5.837064,4.280833,2.212242,63.110352,59.875488,-64.147949,39.175781
24600,-2.849100,2.925714,0.641646,-15.655518,3.570557,-23.773193,39.146484
24640,-2.973598,1.345541,-1.465251,-62.347412,-11.535645,23.468018,39.121094
24680,1.584962,1.292869,-1.517924,-83.374023,-19.805908,39.886475,39.142578
24720,9.806650,4.237737,-0.981623,-100.524902,-49.804688,11.810303,39.162109
24760,20.159178,6.809110,-2.188300,-110.473633,-72.540283,2.319336,39.177734
24800,25.555710,4.458004,-0.517148,-173.248291,8.819580,57.434082,39.142578
24840,19.306843,3.883395,0.129287,-199.523926,93.811035,70.068359,39.162109
24880,7.833828,2.480393,-2.925714,-107.421875,35.858154,29.663086,39.173828
24920,-0.052672,-2.576161,-3.830723,61.370850,-4.150391,27.862549,39.173828
24960,-4.659117,-5.305551,-3.782839,151.702881,-66.802979,23.010254,39.154297
25000,-2.671929,-4.079720,-0.282516,34.820557,-35.369873,-33.294678,39.162109
25040,8.451532,-3.007117,-0.172383,-0.274658,42.907715,8.361816,39.152344
25080,22.591688,1.369483,-5.137957,178.283691,-108.795166,-32.043457,39.152344
25120,26.815060,-1.201889,-2.068590,108.215332,54.687500,-1.068115,39.152344
25160,19.565416,4.400543,-2.054225,171.142578,1.190186,-87.707520,39.167969
25200,10.271125,5.262455,0.794875,122.955322,51.086426,-86.486816,39.148438
25240,0.646434,3.399766,1.302446,6.530762,23.590088,-41.351318,39.162109
25280,-4.189853,1.805228,-0.588974,-51.574707,-6.530762,5.432129,39.162109
25320,-1.177947,1.187524,-1.053449,-74.890137,-7.781982,25.238037,39.148438
25360,3.136404,1.857901,-1.307234,-86.181641,-11.199951,29.174805,39.152344
25400,11.362882,2.643199,-1.699883,-68.054199,-56.396484,10.314941,39.156250
25440,23.286005,5.449203,-1.426944,-132.934570,-68.878174,24.963379,39.136719
25480,24.765623,5.061342,0.536301,-166.992188,-5.554199,53.253174,39.177734
25520,17.832014,4.577713,0.914585,-178.924561,83.282471,53.771973,39.140625
25560,6.967127,2.264915,-2.863465,-91.156006,54.595947,21.820068,39.169922
25600,-1.292869,-3.078943,-4.400543,57.037354,-10.620117,43.823242,39.160156
25640,-4.424485,-4.697424,-3.979163,152.099609,-65.673828,32.714844,39.150391
25680,-2.633622,-3.323152,0.545878,37.048340,-67.626953,-43.182373,39.146484
25720,9.318233,-3.840300,0.268151,1.800537,29.602051,-7.965088,39.173828
25760,23.137566,0.794875,-5.616797,154.449463,-107.360840,-25.115967,39.144531
25800,25.919628,0.545878,-3.007117,116.546631,37.445068,-14.129639,39.177734
25840,18.880674,3.624821,-2.269703,155.487061,3.540039,-69.824219,39.169922
25880,10.022128,4.376601,0.967257,105.926514,40.802002,-69.671631,39.156250
25920,0.067038,3.734955,1.283292,2.868652,20.751953,-50.292969,39.140625
25960,-4.888960,1.819593,-0.560243,-59.570312,-2.471924,5.981445,39.158203
26000,-1.086968,1.063026,-1.197101,-71.258545,-13.671875,26.550293,39.166016
26040,4.376601,1.857901,-2.346318,-84.228516,-34.240723,31.951904,39.160156
26080,15.840038,3.471592,-2.408567,-78.948975,-56.823730,0.762939,39.150391
26120,24.329878,5.554548,-2.284068,-120.910645,-46.661377,24.200439,39.166016
26160,24.578875,4.764462,0.311246,-168.731689,58.288574,55.572510,39.150391
26200,15.878345,3.227384,-0.565032,-169.281006,78.033447,64.788818,39.173828
26240,4.036624,0.790087,-2.671929,-64.025879,41.992188,32.531738,39.167969
26280,-2.671929,-2.944868,-3.639187,134.002686,-25.054932,47.760010,39.138672
26320,-4.309563,-4.716578,-3.964798,171.569824,-74.005127,16.052246,39.156250
26360,-0.330400,-4.343082,0.330400,-13.946533,-66.101074,-76.568604,39.146484
26400,17.190369,-1.953669,-2.724602,35.675049,72.113037,11.932373,39.169922
26440,24.368185,1.580173,-3.074155,168.762207,-41.595459,-32.989502,39.130859
26480,23.252487,0.689530,-2.901772,113.769531,24.505615,-21.423340,39.158203
26520,14.906300,4.821922,-1.877054,175.537109,-16.326904,-81.298828,39.162109
26560,7.058106,3.873818,1.584962,82.824707,53.222656,-58.624268,39.146484
26600,-1.589750,3.342306,1.173159,-11.108398,-0.549316,-29.235840,39.150391
26640,-3.672705,1.848324,-1.398214,-58.685303,-9.155273,12.359619,39.150391
26680,0.526724,1.508347,-1.403002,-79.071045,-9.582520,27.191162,39.166016
26720,7.474698,2.801216,-1.915361,-103.668213,-49.804688,27.618408,39.152344
26760,18.234240,5.329493,-1.613692,-107.482910,-8.758545,-10.894775,39.140625
26800,24.214956,5.602432,-2.298434,-155.914307,-72.814941,27.221680,39.140625
26840,22.309172,3.155558,0.660800,-197.021484,74.157715,84.625244,39.142578
26880,11.415554,2.604892,-2.451663,-104.431152,29.846191,46.264648,39.152344
26920,2.858677,0.234632,-3.375824,-3.234863,32.104492,11.688232,39.152344
26960,-3.031059,-4.558560,-3.955221,107.849121,-17.517090,30.273438,39.150391
27000,-4.256891,-4.946421,-2.106898,94.055176,-36.437988,-17.791748,39.144531
27040,2.384625,-3.495534,0.833182,30.151367,3.356934,-9.185791,39.142578
27080,14.925453,0.814029,-3.591303,91.156006,-24.017334,6.835938,39.171875
27120,23.889345,0.407014,-3.256114,145.843506,-38.177490,-33.660889,39.123047
27160,23.731327,1.187524,-2.978387,119.415283,-7.659912,-27.557373,39.160156
27200,16.055517,5.066131,-0.991199,150.512695,7.812500,-80.657959,39.150391
27240,7.536947,4.199430,1.695095,84.045410,74.737549,-70.495605,39.169922
27280,-2.456451,2.542642,0.675165,-15.441895,6.103516,-30.700684,39.162109
27320,-4.041412,0.976834,-0.995988,-57.403564,7.019043,14.709473,39.150391
27360,0.205901,1.197101,-0.871489,-65.948486,-17.822266,24.719238,39.169922
27400,6.411672,2.456451,-1.982399,-90.362549,-56.243896,21.575928,39.148438
27440,18.416199,4.774038,-1.991976,-97.442627,-52.368164,5.187988,39.146484
27480,24.851814,5.861006,-1.862689,-130.920410,-38.726807,31.585693,39.152344
27520,23.151930,4.592079,0.675165,-182.434082,51.055908,59.356689,39.152344
27560,13.445837,3.284845,-1.288081,-170.013428,61.431885,57.708740,39.169922
27600,3.366248,0.723049,-2.944868,-39.916992,53.436279,24.139404,39.138672
27640,-2.738967,-3.979163,-4.027047,158.630371,-43.853760,66.772461,39.181641
27680,-4.405331,-4.654328,-3.265691,143.951416,-53.802490,28.686523,39.152344
27720,-1.091756,-2.935291,1.034295,-13.305664,-58.074951,-61.950684,39.158203
27760,13.824121,-2.236184,-1.771709,12.847900,62.683105,-13.610840,39.166016
27800,24.756046,1.359907,-3.706224,168.029785,-86.791992,-34.881592,39.162109
27840,25.364172,0.004788,-2.863465,110.504150,33.966064,-10.406494,39.162109
27880,16.132132,4.908113,-2.240973,155.731201,-24.932861,-78.735352,39.173828
27920,8.068460,4.539406,1.273715,88.653564,45.623779,-66.772461,39.173828
27960,-0.976834,3.016694,0.924162,-15.716553,24.169922,-32.409668,39.171875
28000,-3.864242,1.709460,-0.684742,-64.849854,8.575439,14.709473,39.169922
28040,0.162806,1.240196,-1.843535,-85.479736,-11.718750,35.491943,39.160156
28080,8.422802,3.011906,-1.685518,-94.238281,-46.600342,21.301270,39.175781
28120,19.876663,5.544971,-1.704672,-116.485596,-16.296387,0.701904,39.148438
28160,24.933216,5.420473,-1.412579,-155.761719,-19.592285,33.996582,39.156250
28200,20.958841,3.462016,0.287304,-189.544678,52.856445,69.763184,39.144531
28240,10.070012,1.924938,-2.643199,-130.035400,36.621094,48.187256,39.160156
28280,1.843535,-0.205901,-2.997540,7.324219,26.611328,13.214111,39.177734
28320,-3.031059,-4.438850,-3.955221,156.005859,-35.644531,35.705566,39.156250
28360,-3.883395,-4.668694,-1.728614,81.848145,-19.897461,-4.058838,39.166016
28400,1.575385,-3.055001,0.684742,21.209717,-30.578613,-19.378662,39.158203
28440,14.781801,-0.708684,-2.743755,61.706543,20.416260,-13.671875,39.169922
28480,25.771187,0.972046,-2.691083,144.958496,-25.421143,-34.759521,39.166016
28520,24.028208,0.957681,-2.437297,115.509033,1.617432,-24.597168,39.150391
28560,15.720328,5.181053,-0.675165,153.594971,11.962891,-90.057373,39.179688
28600,8.111555,3.404555,1.752556,66.009521,46.600342,-60.546875,39.136719
28640,-1.900996,2.681506,0.349553,-14.190674,-5.126953,-31.127930,39.162109
28680,-4.702212,1.326388,-1.015141,-60.089111,11.505127,12.603760,39.162109
28720,-0.569820,1.369483,-1.805228,-56.884766,-22.766113,22.430420,39.156250
28760,7.685388,2.250550,-1.642422,-70.007324,-54.168701,37.536621,39.154297
28800,19.144037,3.912126,-1.637634,-113.311768,-44.860840,30.822754,39.164062
28840,24.032997,6.689400,-1.527501,-136.138916,-48.278809,27.832031,39.179688
28880,22.165520,3.835511,0.790087,-170.806885,67.230225,67.138672,39.175781
28920,12.004527,2.039860,-2.403779,-121.704102,42.236328,48.461914,39.164062
28960,2.571373,0.292093,-3.136404,-17.822266,41.748047,9.826660,39.150391
29000,-3.198653,-4.386178,-4.036624,139.068604,-32.867432,49.468994,39.166016
29040,-4.434062,-5.128380,-2.403779,101.837158,-32.165527,12.023926,39.162109
29080,0.938527,-3.600879,0.550666,15.747070,-36.621094,-55.023193,39.203125
29120,15.006856,-1.259350,-2.724602,66.528320,28.961182,-4.272461,39.185547
29160,25.153482,0.981623,-2.504335,148.254395,-37.139893,-42.785645,39.142578
29200,24.631548,0.397437,-2.868254,112.579346,-4.638672,-28.656006,39.150391
29240,15.524004,4.434062,-1.211466,153.900146,2.593994,-83.190918,39.171875
29280,6.311116,3.974375,2.092532,69.427490,49.285889,-72.723389,39.171875
29320,-3.155558,2.671929,0.608127,-21.087646,2.563477,-34.240723,39.175781
29360,-3.275268,1.513135,-1.441309,-63.781738,-3.967285,11.474609,39.169922
29400,0.919373,1.556231,-1.273715,-83.801270,-9.124756,25.299072,39.175781
29440,8.480263,3.203442,-2.475605,-117.950439,-15.625000,16.418457,39.152344
29480,20.250158,4.855441,-2.695871,-92.010498,-80.841064,-3.753662,39.171875
29520,25.287558,5.334281,-0.454898,-149.505615,-3.936768,37.200928,39.173828
29560,21.571756,3.797204,0.967257,-185.668945,57.708740,72.723389,39.146484
29600,10.673351,1.900996,-1.996764,-140.533447,45.989990,61.248779,39.193359
29640,1.790863,-0.287304,-2.853889,1.770020,49.102783,42.144775,39.162109
29680,-3.514688,-3.758897,-4.256891,180.297852,-35.949707,88.409424,39.185547
29720,-4.563348,-4.228160,-2.667141,133.789062,-72.723389,29.327393,39.166016
29760,1.647211,-3.371036,1.163582,-66.375732,-51.147461,-145.233154,39.158203
29800,21.667526,-0.205901,-4.711789,126.098633,-59.844971,-14.068604,39.148438
29840,27.068844,-0.402226,-1.934515,151.794434,37.872314,-30.944824,39.156250
29880,21.528662,1.771709,-3.500323,162.292480,-3.692627,-46.905518,39.166016
29920,12.220005,5.449203,-0.445322,159.912109,12.939453,-83.801270,39.175781
29960,3.940856,4.031836,2.015918,50.506592,57.159424,-54.718018,39.175781
30000,-4.141969,2.509123,0.201113,-32.165527,0.488281,-11.413574,39.152344
30040,-3.016694,1.120486,-1.345541,-62.622070,-4.516602,24.719238,39.166016
30080,1.776498,1.733402,-0.866701,-81.848145,-12.420654,34.515381,39.166016
30120,11.382035,4.529830,-1.599327,-118.713379,-33.386230,17.272949,39.169922
30160,21.926100,5.861006,-2.427721,-134.368896,-42.846680,7.141113,39.166016
30200,25.345018,4.194642,-0.450110,-181.304932,-24.353027,49.163818,39.162109
30240,18.847157,2.250550,0.497994,-199.768066,81.542969,83.831787,39.164062
30280,7.972692,1.972822,-2.154782,-88.104248,48.461914,33.477783,39.177734
30320,-0.320823,-1.532289,-3.600879,-8.544922,1.953125,31.127930,39.146484
30360,-5.453991,-4.189853,-4.869806,151.672363,-53.558350,-2.197266,39.181641
30400,-2.288857,-3.806781,0.043096,49.102783,-10.894775,-29.602051,39.162109
30440,8.896853,-3.993528,0.727837,4.058838,42.816162,-14.434814,39.171875
30480,21.432894,0.282516,-6.066907,181.823730,-109.313965,-29.510498,39.191406
30520,26.331430,-0.536301,-1.920150,140.960693,49.194336,-18.432617,39.160156
30560,19.637243,3.797204,-2.370260,178.680420,-13.549805,-70.007324,39.166016
30600,10.151415,5.549759,0.344765,139.953613,39.916992,-81.024170,39.171875
30640,1.120486,3.371036,1.886631,26.489258,38.818359,-47.943115,39.195312
30680,-4.975151,1.857901,-0.746991,-34.576416,-18.981934,0.549316,39.185547
30720,-1.125275,1.249773,-1.091756,-75.317383,-9.918213,29.174805,39.166016
30760,3.701436,2.193089,-1.551443,-89.508057,-20.538330,27.099609,39.154297
30800,13.766660,3.715801,-2.006341,-94.390869,-55.633545,12.847900,39.160156
30840,23.625982,5.334281,-2.130840,-102.813721,-63.018799,14.373779,39.152344
30880,24.210167,4.745308,0.062249,-172.607422,15.106201,57.006836,39.185547
30920,17.075447,3.792415,0.057461,-175.323486,93.902588,65.429688,39.162109
30960,5.750873,1.977611,-3.002329,-79.681396,49.011230,25.604248,39.173828
31000,-1.561020,-2.657564,-3.476381,95.642090,-6.713867,52.154541,39.136719
31040,-4.113238,-5.798757,-4.113238,173.126221,-75.500488,54.656982,39.171875
31080,-2.159570,-4.084508,-0.248997,0.610352,-55.175781,-56.976318,39.177734
31120,12.105083,-1.312023,-0.555455,-0.640869,82.214355,-47.912598,39.156250
31160,23.942017,1.680730,-4.414908,160.797119,-94.360352,-24.505615,39.166016
31200,25.392902,-0.028730,-2.853889,109.863281,27.191162,-5.523682,39.185547
31240,16.816874,5.415684,-1.771709,167.419434,-8.239746,-76.507568,39.181641
31280,8.839393,4.936844,1.498770,110.046387,46.752930,-75.408936,39.148438
31320,-0.330400,2.743755,1.699883,7.324219,5.920410,-43.090820,39.179688
31360,-4.520253,2.135628,-1.077391,-50.628662,4.547119,5.676270,39.183594
31400,-0.368707,1.651999,-1.819593,-82.763672,-8.605957,21.331787,39.158203
31440,4.970363,2.375048,-2.513912,-88.104248,-36.285400,20.629883,39.169922
31480,15.945383,4.424485,-1.570596,-92.742920,-14.556885,-9.796143,39.191406
31520,24.195803,6.239290,-1.699883,-133.666992,-44.158936,24.261475,39.162109
31560,23.309948,4.989516,0.699107,-181.854248,30.639648,68.817139,39.152344
31600,14.475344,3.998317,-0.598550,-171.966553,38.665771,69.274902,39.169922
31640,4.395754,1.149217,-2.547431,-60.791016,33.935547,38.696289,39.171875
31680,-2.959233,-3.251326,-4.199430,97.808838,-27.069092,57.830811,39.171875
31720,-4.778827,-4.596867,-3.816358,131.713867,-53.314209,9.735107,39.167969
31760,-0.344765,-3.256114,0.938527,-16.571045,-23.834229,-64.361572,39.150391
31800,15.567100,-0.397437,-1.709460,33.538818,45.989990,-0.366211,39.166016
31840,25.139118,0.890643,-3.213019,148.040771,-37.689209,-30.944824,39.162109
31880,24.799141,-0.095768,-2.250550,115.936279,20.629883,2.288818,39.175781
31920,15.361198,5.985504,-1.005565,170.959473,4.913330,-88.348389,39.175781
31960,7.264008,4.108450,1.489193,83.068848,44.830322,-66.223145,39.171875
32000,-1.379060,2.762909,0.679953,-13.244629,-6.683350,-30.792236,39.162109
32040,-4.156334,1.594538,-1.244985,-66.467285,-6.744385,19.226074,39.154297
32080,-0.038307,1.221043,-0.928950,-69.854736,-3.295898,29.327393,39.160156
32120,4.510676,1.958457,-1.575385,-91.339111,-32.592773,37.780762,39.175781
32160,15.629349,4.601655,-2.365471,-83.068848,-64.331055,-3.112793,39.169922
32200,25.091234,5.832275,-2.212242,-131.866455,-48.736572,26.245117,39.160156
32240,23.774424,4.558560,0.924162,-164.520264,44.982910,53.588867,39.171875
32280,14.695610,4.074931,-0.493206,-156.768799,49.285889,46.875000,39.164062
32320,4.094085,1.063026,-2.715025,-44.677734,40.985107,18.798828,39.171875
32360,-2.777274,-3.481169,-4.050989,124.877930,-31.188965,50.079346,39.183594
32400,-4.232949,-4.908113,-3.500323,128.234863,-36.743164,12.939453,39.199219
32440,-0.421380,-3.059790,0.512359,-6.561279,-50.659180,-86.303711,39.162109
32480,14.786590,-1.115698,-1.805228,25.115967,55.969238,11.444092,39.162109
32520,24.315512,1.848324,-3.902549,162.261963,-68.145752,-29.907227,39.169922
32560,25.124752,0.746991,-3.055001,123.535156,34.729004,-7.812500,39.156250
32600,15.773001,6.038177,-1.953669,149.078369,-12.359619,-71.685791,39.171875
32640,7.627927,4.716578,1.766921,97.808838,47.698975,-70.465088,39.173828
32680,-1.589750,2.700660,1.072602,5.218506,-0.671387,-31.677246,39.181641
32720,-3.596091,1.599327,-1.139640,-54.565430,3.143311,24.169922,39.160156
32760,0.493206,1.235408,-2.059013,-71.899414,-22.125244,40.374756,39.193359
32800,6.703765,2.566584,-2.169147,-104.522705,-62.866211,33.782959,39.171875
32840,18.262970,5.980716,-2.585738,-114.410400,-25.573730,1.098633,39.156250
32880,25.072081,4.778827,-2.609680,-138.885498,-27.130127,29.357910,39.199219
32920,21.533449,4.170700,-0.435745,-173.828125,43.151855,58.990479,39.193359
32960,11.291056,3.682282,-1.695095,-152.252197,74.310303,41.412354,39.156250
33000,2.705448,1.125275,-2.542642,-31.341553,45.013428,5.523682,39.152344
33040,-2.149993,-5.214571,-4.323928,158.721924,-42.266846,58.715820,39.171875
33080,-3.840300,-5.755661,-3.011906,92.620850,-38.452148,8.575439,39.164062
33120,1.968034,-3.256114,-0.023942,-46.875000,-44.494629,-129.730225,39.183594
33160,20.642807,-0.004788,-3.840300,117.767334,-10.284424,14.739990,39.191406
33200,25.100811,1.149217,-2.327164,145.385742,21.820068,-30.395508,39.162109
33240,21.662737,1.690306,-3.007117,129.394531,21.392822,-22.430420,39.169922
33280,12.325351,5.516241,-0.541090,170.074463,6.164551,-81.115723,39.191406
33320,4.376601,3.840300,2.288857,48.980713,62.866211,-53.558350,39.171875
33360,-3.873818,2.954445,-0.086191,-30.761719,-0.854492,-15.289307,39.175781
33400,-2.758120,1.642422,-1.522712,-70.648193,-2.197266,22.125244,39.166016
33440,2.164358,1.805228,-2.068590,-84.777832,-20.416260,33.569336,39.179688
33480,11.444284,3.754108,-1.709460,-83.923340,-70.892334,13.763428,39.166016
33520,22.242134,5.980716,-2.231396,-118.438721,-36.499023,5.035400,39.185547
33560,25.833437,4.347870,-0.464475,-165.679932,-20.050049,59.814453,39.181641
33600,18.507179,3.706224,0.148441,-194.335938,81.329346,76.812744,39.179688
33640,7.747637,2.782062,-2.825158,-89.904785,49.530029,24.902344,39.173828
33680,0.248997,-2.059013,-3.734955,29.815674,16.967773,34.027100,39.167969
33720,-4.836287,-4.970363,-3.806781,122.589111,-34.851074,57.647705,39.166016
33760,-4.458004,-2.671929,-0.134075,69.580078,-26.367188,-28.503418,39.181641
33800,2.082955,-1.991976,0.598550,53.314209,-35.644531,-26.824951,39.171875
33840,16.529568,-1.403002,-3.361459,78.247070,-13.214111,-26.794434,39.189453
33880,27.107151,2.293645,-3.265691,129.913330,-5.920410,-30.395508,39.169922
33920,24.420856,1.216254,-2.896984,135.345459,-5.249023,-17.120361,39.179688
33960,14.896723,5.147533,-0.617704,156.433105,37.048340,-85.632324,39.179688
34000,7.292738,3.648763,1.838747,62.164307,48.614502,-59.783936,39.189453
34040,-1.709460,2.418144,0.000000,-16.723633,11.535645,-20.751953,39.164062
34080,-4.352659,0.952892,-0.737414,-58.288574,6.286621,25.054932,39.191406
34120,-0.138864,1.948880,-0.962469,-57.312012,-19.317627,30.883789,39.167969
34160,7.656657,2.983175,-1.709460,-79.772949,-59.600830,30.548096,39.177734
34200,18.071434,4.352659,-1.891419,-86.181641,-58.715820,1.251221,39.175781
34240,24.502260,6.133945,-1.340753,-134.674072,-60.546875,33.599854,39.185547
34280,22.625206,4.084508,0.603339,-182.891846,50.689697,76.416016,39.158203
34320,12.392388,3.327940,-1.805228,-134.582520,42.205811,51.879883,39.181641
34360,3.667917,0.282516,-2.772485,-38.665771,45.837402,25.177002,39.181641
34400,-2.355895,-3.983952,-4.328717,97.747803,-15.625000,42.205811,39.160156
34440,-4.314352,-4.242526,-2.877831,132.873535,-46.875000,-1.800537,39.175781
34480,1.508347,-3.260903,0.943315,-5.920410,-17.608643,-36.376953,39.162109
34520,15.983690,-0.339977,-3.835511,47.973633,-0.213623,-4.760742,39.162109
34560,25.043350,-0.555455,-2.681506,163.299561,-6.500244,-37.292480,39.177734
34600,22.778435,-0.076614,-2.810793,118.835449,-6.561279,-22.552490,39.189453
34640,14.499286,5.061342,-1.106121,169.219971,-11.352539,-90.576172,39.179688
34680,7.752425,3.217807,1.838747,74.371338,54.504395,-66.345215,39.171875
34720,-1.235408,2.911349,0.062249,-15.563965,2.075195,-31.158447,39.164062
34760,-4.199430,1.551443,-1.187524,-66.101074,-0.976562,21.392822,39.171875
34800,0.129287,1.441309,-1.120486,-65.002441,-12.969971,27.069092,39.185547
34840,7.527370,2.638410,-2.020706,-89.355469,-46.417236,26.611328,39.158203
34880,18.799273,4.309563,-2.513912,-87.707520,-37.963867,2.014160,39.187500
34920,24.468740,5.410896,-1.814805,-130.035400,-19.439697,33.081055,39.175781
34960,21.514296,3.490746,-0.158017,-166.351318,38.909912,66.101074,39.166016
35000,12.028469,2.968810,-1.833959,-126.739502,44.403076,46.875000,39.187500
35040,3.960010,0.598550,-2.485181,-24.475098,55.603027,10.070801,39.191406
35080,-2.279280,-4.783615,-3.993528,99.731445,2.319336,35.919189,39.195312
35120,-4.831499,-4.802769,-2.844312,109.008789,-32.745361,-1.342773,39.181641
35160,1.077391,-2.633622,0.493206,21.087646,-26.123047,-31.585693,39.187500
35200,17.070658,-0.110133,-3.998317,60.638428,-38.177490,-1.068115,39.166016
35240,25.675419,-0.617704,-2.806004,162.597656,19.378662,-28.381348,39.187500
35280,22.543802,0.967257,-3.031059,135.253906,15.472412,-31.555176,39.191406
35320,13.895947,5.645528,-0.603339,168.548584,17.944336,-91.857910,39.171875
35360,6.138733,4.730943,2.312799,70.312500,51.910400,-66.101074,39.189453
35400,-2.355895,2.624045,0.675165,-23.406982,-5.279541,-19.836426,39.183594
35440,-2.997540,1.316811,-0.732626,-67.047119,-18.035889,23.803711,39.185547
35480,1.283292,1.307234,-0.948104,-87.310791,-3.814697,34.790039,39.181641
35520,7.728483,2.992752,-2.355895,-97.412109,-37.719727,33.355713,39.164062
35560,16.654066,3.897760,-2.643199,-122.619629,-64.300537,15.563965,39.185547
35600,23.898922,4.165911,-1.532289,-117.065430,-27.709961,38.543701,39.179688
35640,22.074539,3.567361,0.387861,-161.560059,34.973145,66.223145,39.185547
35680,13.220781,2.772485,-1.197101,-123.565674,35.491943,44.738770,39.191406
35720,5.027823,0.426168,-2.451663,-57.312012,67.779541,22.125244,39.179688
35760,-2.260126,-4.036624,-4.060566,96.099854,-20.629883,42.114258,39.175781
35800,-5.190629,-4.185065,-2.676718,127.014160,-13.397217,1.678467,39.181641
35840,-0.177171,-3.361459,0.172383,30.731201,-71.685791,-62.713623,39.189453
35880,16.242264,-0.952892,-3.126827,58.319092,26.733398,9.796143,39.189453
35920,23.621195,0.995988,-2.710236,153.350830,-33.233643,-36.163330,39.185547
35960,23.558945,-0.287304,-2.523489,113.037109,3.387451,-21.179199,39.171875
36000,15.911864,5.003881,-1.450886,170.593262,-0.518799,-91.613770,39.195312
36040,8.140285,4.390966,1.335965,97.503662,56.640625,-74.462891,39.183594
36080,-0.545878,3.074155,0.881066,-10.040283,17.425537,-31.311035,39.183594
36120,-4.031836,1.359907,-1.182736,-57.617188,-2.166748,20.294189,39.179688
36160,-0.047884,1.096544,-1.422156,-75.103760,-9.277344,35.705566,39.203125
36200,7.493851,2.130840,-2.087744,-95.520020,-30.700684,30.456543,39.173828
36240,16.788143,3.677494,-2.370260,-84.594727,-57.495117,7.690430,39.181641
36280,23.621195,5.884948,-1.877054,-126.953125,-52.764893,26.794434,39.189453
36320,23.372196,3.897760,0.603339,-172.424316,50.354004,64.239502,39.203125
36360,14.049175,2.873042,-1.072602,-150.451660,71.319580,59.204102,39.173828
36400,4.079720,1.345541,-2.940080,-60.913086,53.253174,10.467529,39.199219
36440,-2.054225,-3.543418,-3.433285,85.540771,-3.814697,69.610596,39.181641
36480,-4.323928,-4.898537,-3.763685,148.254395,-57.159424,61.462402,39.189453
36520,-2.173935,-2.949656,0.143652,14.678955,-78.582764,-84.716797,39.195312
36560,13.397953,-1.853112,-1.144428,-12.176514,73.059082,-35.064697,39.169922
36600,23.855825,1.503559,-2.940080,154.235840,-96.008301,-30.792236,39.189453
36640,25.325865,-0.253785,-1.824382,137.908936,46.936035,-27.862549,39.187500
36680,17.908628,4.022259,-2.020706,168.151855,-10.467529,-71.014404,39.191406
36720,8.877700,4.711789,1.230620,116.973877,43.457031,-75.439453,39.185547
36760,-0.699107,3.442862,1.757344,9.979248,10.192871,-46.691895,39.199219
36800,-4.122815,1.833959,-1.000776,-50.292969,-3.051758,10.803223,39.197266
36840,-0.172383,1.005565,-1.742979,-83.404541,2.655029,40.466309,39.201172
36880,5.645528,2.643199,-2.260126,-89.996338,-39.276123,35.614014,39.183594
36920,15.514427,4.707001,-0.905008,-97.442627,-26.672363,-7.507324,39.203125
36960,22.653936,5.975927,-2.111686,-126.617432,-84.167480,16.357422,39.179688
37000,23.879768,4.802769,0.780510,-185.943604,46.722412,58.227539,39.195312
37040,14.987702,3.313575,-0.809240,-184.173584,57.556152,70.739746,39.181641
37080,4.304775,1.532289,-3.021482,-63.171387,27.679443,24.475098,39.175781
37120,-2.097321,-2.494758,-3.222595,108.093262,-0.946045,52.764893,39.185547
37160,-3.926491,-5.549759,-4.084508,166.168213,-64.514160,36.804199,39.191406
37200,-0.598550,-4.836287,-0.392649,-10.620117,-74.066162,-46.783447,39.189453
37240,15.471332,-1.283292,-1.776498,7.659912,60.333252,-2.655029,39.171875
37280,23.400927,0.919373,-3.495534,169.891357,-72.967529,-42.419434,39.179688
37320,24.028208,-0.272939,-2.604892,110.260010,23.620605,-9.094238,39.185547
37360,16.112978,5.204995,-1.685518,182.067871,6.958008,-88.348389,39.199219
37400,8.403648,4.510676,0.823605,108.459473,30.700684,-77.636719,39.166016
37440,0.205901,3.016694,1.623269,0.701904,10.711670,-37.200928,39.191406
37480,-4.280833,1.690306,-0.761356,-50.872803,0.274658,11.535645,39.169922
37520,-0.392649,1.130063,-1.302446,-69.702148,-1.098633,33.477783,39.205078
37560,5.659893,2.398990,-1.690306,-91.827393,-21.148682,42.022705,39.191406
37600,14.877569,4.237737,-2.149993,-88.073730,-53.497314,2.532959,39.195312
37640,22.409727,5.841852,-2.111686,-149.230957,-48.370361,15.991211,39.205078
37680,23.008278,3.720589,0.181959,-179.748535,-2.746582,58.471680,39.179688
37720,15.136143,2.729390,0.019154,-156.250000,65.582275,52.032471,39.173828
37760,5.458780,0.713472,-3.241749,-33.782959,18.188477,6.774902,39.191406
37800,-2.173935,-4.295198,-4.663905,108.245850,7.110596,48.187256,39.189453
37840,-4.333505,-5.372589,-3.529053,168.151855,-23.559570,14.892578,39.191406
37880,-0.521936,-3.514688,0.421380,9.918213,-36.499023,-58.044434,39.179688
37920,13.306973,-0.421380,-2.221819,20.599365,60.241699,11.688232,39.191406
37960,23.003490,1.158794,-3.983952,169.464111,-83.404541,-44.891357,39.210938
38000,25.258827,-0.584185,-2.614468,121.795654,31.463623,-9.307861,39.193359
38040,17.386692,5.109226,-2.068590,154.724121,-11.474609,-80.749512,39.201172
38080,9.825804,4.711789,1.125275,106.170654,41.900635,-86.212158,39.203125
38120,0.656011,3.366248,1.431733,12.817383,17.120361,-61.584473,39.187500
38160,-4.855441,1.077391,-0.617704,-61.828613,24.810791,9.796143,39.205078
38200,-1.163582,0.857124,-0.900220,-57.983398,13.183594,31.341553,39.189453
38240,3.940856,2.164358,-1.484405,-79.711914,-19.989014,31.860352,39.179688
38280,13.479356,4.050989,-1.723825,-109.161377,-42.297363,7.904053,39.177734
38320,23.214180,5.904101,-2.628834,-106.140137,-80.688477,10.253906,39.189453
38360,25.005043,4.539406,0.359130,-172.943115,7.049561,55.023193,39.185547
38400,17.238253,4.122815,0.416591,-170.776367,62.286377,67.169189,39.191406
38440,6.387730,2.470816,-2.892196,-123.809814,42.968750,40.100098,39.191406
38480,-0.703895,-1.666364,-3.059790,37.841797,46.905518,58.349609,39.189453
38520,-3.303998,-5.607220,-5.511452,212.890625,-94.482422,57.708740,39.181641
38560,-2.279280,-5.118803,-0.957681,59.997559,-62.988281,-33.935547,39.185547
38600,8.762778,-2.734178,1.498770,-54.595947,94.696045,-62.988281,39.173828
38640,22.079329,2.221819,-4.170700,170.776367,-131.988525,-23.376465,39.175781
38680,27.346571,-1.853112,-1.675941,107.788086,73.669434,6.195068,39.199219
38720,18.866310,4.644751,-2.585738,177.978516,-35.949707,-76.782227,39.187500
38760,9.806650,4.778827,0.450110,127.990723,18.035889,-75.347900,39.195312
38800,1.355118,3.284845,2.308010,24.200439,28.411865,-48.736572,39.187500
38840,-3.955221,2.149993,-0.694318,-48.522949,-0.671387,1.922607,39.191406
38880,-1.249773,1.532289,-1.388637,-82.702637,10.528564,25.115967,39.187500
38920,2.652776,2.078167,-1.197101,-96.954346,-3.143311,29.144287,39.195312
38960,11.789049,3.327940,-1.719037,-111.541748,-24.261475,18.890381,39.191406
39000,22.199038,4.367024,-2.183512,-91.461182,-71.166992,4.302979,39.201172
39040,24.794353,4.276044,0.708684,-172.821045,-7.568359,55.358887,39.189453
39080,18.650831,3.758897,0.560243,-180.511475,65.612793,71.472168,39.203125
39120,8.312668,2.614468,-2.217031,-83.526611,68.023682,29.144287,39.205078
39160,0.067038,-1.393425,-3.557784,5.889893,12.390137,27.313232,39.187500
39200,-4.572925,-5.104438,-4.429273,125.427246,-44.464111,31.585693,39.181641
39240,-2.753332,-4.290410,-0.866701,78.033447,-27.465820,-26.794434,39.185547
39280,7.594408,-3.639187,0.550666,-9.002686,30.090332,0.518799,39.205078
39320,20.005949,1.187524,-4.888960,163.696289,-102.600098,-15.472412,39.191406
39360,24.267628,0.914585,-0.435745,118.438721,30.975342,-16.510010,39.199219
39400,19.632454,2.992752,-1.450886,149.688721,-33.325195,-62.927246,39.185547
39440,12.100295,4.242526,0.292093,167.297363,32.775879,-87.524414,39.193359
39480,3.634398,2.944868,1.651999,50.018311,46.234131,-54.016113,39.189453
39520,-3.811569,2.480393,-0.292093,-18.768311,-11.199951,-15.075684,39.185547
39560,-1.920150,1.101333,-1.307234,-64.819336,13.610840,24.108887,39.199219
39600,3.533842,1.613692,-2.322376,-89.691162,-55.541992,30.578613,39.203125
39640,14.571112,4.012682,-0.732626,-100.402832,-35.614014,1.556396,39.189453
39680,22.941240,7.393295,-1.929727,-114.501953,-52.062988,12.878418,39.189453
39720,23.544580,5.875371,0.196325,-175.506592,-4.150391,47.119141,39.195312
39760,16.309301,2.935291,0.220267,-184.173584,60.943604,71.014404,39.191406
39800,5.468357,1.177947,-3.069367,-92.346191,13.336182,40.161133,39.203125
39840,-1.546654,-1.766921,-3.548207,71.044922,1.281738,46.722412,39.191406
39880,-3.045424,-5.358223,-4.553771,157.470703,-74.615479,63.598633,39.185547
39920,-1.398214,-4.989516,-0.565032,41.259766,-49.804688,-30.364990,39.203125
39960,10.587160,-2.523489,0.608127,-39.733887,111.419678,-28.137207,39.203125
40000,23.046585,1.862689,-4.673482,175.689697,-123.291016,-31.707764,39.199219
40040,25.991453,-1.177947,-2.312799,94.787598,69.549561,4.760742,39.181641
40080,17.841591,4.180276,-2.025495,190.490723,-28.320312,-79.589844,39.193359
40120,9.346964,4.941632,0.785298,119.323730,28.656006,-73.486328,39.201172
40160,0.349553,3.610456,2.231396,12.390137,21.911621,-50.323486,39.189453
40200,-4.347870,1.561020,-0.603339,-47.393799,5.706787,1.800537,39.193359
40240,-0.823605,0.694318,-1.608904,-75.134277,3.265381,32.989502,39.171875
40280,5.003881,2.322376,-1.613692,-101.409912,-21.240234,39.489746,39.181641
40320,16.122555,4.955997,-1.450886,-105.133057,-25.604248,0.762939,39.193359
40360,22.725763,5.588067,-2.054225,-146.392822,-54.870605,17.608643,39.191406
40400,23.415293,3.241749,0.737414,-189.697266,16.906738,67.565918,39.203125
40440,14.633361,2.130840,-0.881066,-143.920898,36.956787,64.056396,39.179688
40480,4.558560,1.537078,-2.537854,-54.077148,41.320801,13.641357,39.152344
40520,-2.815581,-3.184288,-3.667917,62.622070,-6.103516,15.563965,39.177734
40560,-4.338294,-5.219360,-3.744531,99.060059,-47.485352,-16.540527,39.189453
40600,1.355118,-3.964798,0.186748,32.104492,-4.730225,-18.432617,39.191406
40640,14.432248,-0.708684,-2.456451,58.105469,5.920410,16.784668,39.185547
40680,22.931664,0.263362,-3.064578,154.907227,-39.672852,-47.027588,39.181641
40720,24.186226,-0.641646,-2.849100,116.912842,1.800537,-21.057129,39.193359
40760,16.812084,4.347870,-1.005565,177.032471,12.115479,-82.611084,39.166016
40800,8.398860,4.031836,1.436521,110.412598,35.308838,-71.258545,39.175781
40840,-1.106121,3.409343,0.756568,5.828857,7.202148,-33.538818,39.207031
40880,-4.548983,2.303222,-0.981623,-64.453125,2.014160,6.378174,39.199219
40920,0.617704,1.752556,-1.072602,-69.183350,-0.305176,17.333984,39.181641
40960,7.182605,1.867477,-1.929727,-88.745117,-20.294189,20.324707,39.181641
41000,16.089035,4.213795,-2.877831,-69.396973,-89.111328,-5.462646,39.203125
41040,24.152706,5.798757,-1.450886,-140.319824,-31.036377,34.515381,39.212891
41080,23.420080,3.481169,-0.076614,-181.213379,30.670166,86.578369,39.187500
41120,13.651738,3.342306,-1.264138,-141.204834,37.963867,69.824219,39.195312
41160,4.127604,1.934515,-2.552219,-44.281006,62.438965,9.796143,39.193359
41200,-2.217031,-3.821146,-4.209007,138.366699,-19.775391,28.198242,39.195312
41240,-4.548983,-5.664681,-2.772485,138.397217,-12.481689,25.970459,39.205078
41280,-0.411803,-2.954445,0.794875,6.195068,-41.564941,-34.454346,39.181641
41320,12.928689,-0.038307,-1.972822,36.437988,19.836426,-0.244141,39.191406
41360,22.788012,0.225055,-3.174711,132.720947,-62.072754,-35.156250,39.210938
41400,24.440010,-0.914585,-2.331953,122.772217,12.176514,-14.160156,39.201172
41440,17.338808,3.902549,-1.824382,154.632568,-28.686523,-72.875977,39.205078
41480,9.342175,3.931279,0.837971,107.635498,40.100098,-70.465088,39.195312
41520,0.474052,3.045424,1.125275,22.094727,16.693115,-45.440674,39.201172
41560,-3.821146,1.656788,-0.857124,-44.860840,0.762939,0.244141,39.199219
41600,-0.622492,0.708684,-1.661576,-62.103271,-4.028320,27.282715,39.185547
41640,5.099649,1.934515,-2.571373,-79.925537,-48.461914,25.329590,39.199219
41680,16.338032,4.419696,-1.805228,-85.784912,-37.811279,-7.690430,39.189453
41720,22.883780,5.717354,-2.461239,-116.668701,-60.821533,12.176514,39.208984
41760,23.415293,3.562572,-0.244209,-159.240723,35.888672,55.877686,39.189453
41800,15.346833,2.547431,-0.967257,-162.231445,70.190430,65.277100,39.195312
41840,5.238513,2.437297,-2.245761,-72.540283,61.614990,18.524170,39.199219
41880,-1.029507,-1.369483,-3.016694,83.404541,18.310547,57.250977,39.207031
41920,-3.059790,-6.023811,-4.592079,182.922363,-80.566406,66.650391,39.226562
41960,-2.298434,-4.836287,-0.282516,10.498047,-60.028076,-32.684326,39.185547
42000,8.786720,-2.355895,0.339977,-44.677734,64.636230,-81.512451,39.179688
42040,23.434446,2.303222,-4.601655,171.569824,-121.337891,-34.515381,39.201172
42080,26.120741,-0.924162,-1.996764,99.029541,68.908691,-3.448486,39.185547
42120,17.927782,4.639963,-2.724602,175.750732,-25.421143,-73.181152,39.195312
42160,9.639056,5.080496,0.684742,117.370605,28.198242,-75.500488,39.193359
42200,1.944092,3.189077,1.714248,13.580322,41.748047,-43.548584,39.189453
42240,-4.113238,1.996764,-0.900220,-47.943115,5.157471,3.997803,39.207031
42280,-1.719037,1.383849,-1.747767,-69.946289,4.272461,27.038574,39.193359
42320,3.280056,2.159570,-2.145205,-83.831787,-36.926270,28.625488,39.203125
42360,15.298949,3.107674,-2.068590,-79.193115,-52.703857,17.395020,39.212891
42400,23.707386,4.659117,-2.006341,-123.138428,-32.165527,36.315918,39.181641
42440,23.319525,4.888960,0.363919,-158.233643,14.556885,62.133789,39.191406
42480,16.678009,4.141969,-0.019154,-159.240723,68.176270,62.561035,39.187500
42520,7.029376,2.987964,-2.408567,-81.420898,44.677734,13.366699,39.191406
42560,-0.679953,-1.972822,-3.438074,-11.901855,4.272461,44.372559,39.195312
42600,-4.975151,-5.099649,-3.945644,102.508545,-35.064697,32.806396,39.185547
42640,-2.930503,-3.921702,-1.493982,50.933838,-69.030762,-33.050537,39.195312
42680,9.916783,-3.284845,0.675165,-13.732910,71.868896,5.096436,39.199219
42720,21.672314,0.392649,-5.219360,169.555664,-102.966309,-22.949219,39.195312
42760,25.115175,-1.383849,-1.790863,115.570068,39.733887,-13.458252,39.167969
42800,19.819202,2.839523,-2.279280,193.176270,6.378174,-82.031250,39.210938
42840,11.271901,4.410120,0.349553,152.740479,25.421143,-79.010010,39.207031
42880,2.877831,3.433285,1.187524,41.687012,43.121338,-35.186768,39.212891
42920,-4.290410,3.126827,-0.512359,-47.882080,-8.087158,-6.896973,39.208984
42960,-2.025495,1.216254,-0.608127,-68.023682,1.037598,15.258789,39.205078
43000,2.221819,0.124498,-0.809240,-58.807373,-13.519287,24.230957,39.210938
43040,9.504981,1.843535,-1.982399,-84.686279,-36.224365,24.780273,39.189453
43080,20.796036,5.396531,-2.389413,-81.420898,-100.830078,-0.030518,39.216797
43120,23.884556,5.339070,0.057461,-148.162842,-18.676758,34.545898,39.214844
43160,20.020315,2.944868,0.952892,-148.651123,55.389404,60.913086,39.218750
43200,10.874464,2.092532,-1.790863,-88.531494,27.770996,45.043945,39.242188
43240,3.217807,0.718261,-2.614468,-25.421143,52.703857,19.958496,39.185547
43280,-2.116474,-2.916138,-3.318364,93.261719,9.796143,59.936523,39.195312
43320,-3.016694,-4.414908,-3.778050,187.438965,-88.989258,23.864746,39.195312
43360,1.685518,-4.563348,-0.067038,-17.791748,-91.491699,-120.544434,39.183594
43400,19.349937,0.114922,-3.275268,65.826416,19.409180,-6.408691,39.205078
43440,24.578875,2.212242,-1.723825,148.071289,-15.502930,-38.574219,39.212891
43480,22.165520,1.704672,-2.394202,117.248535,13.427734,-24.475098,39.199219
43520,13.340492,4.850653,-1.206678,158.996582,-25.604248,-77.362061,39.197266
43560,5.612009,4.098873,2.293645,62.194824,37.322998,-62.500000,39.181641
43600,-2.887407,2.614468,0.272939,-20.172119,8.544922,-23.559570,39.177734
43640,-3.112462,0.881066,-1.335965,-69.671631,23.864746,24.871826,39.195312
43680,1.106121,1.125275,-1.977611,-79.345703,-17.700195,37.048340,39.185547
43720,9.509769,3.744531,-1.915361,-96.801758,-47.790527,20.812988,39.197266
43760,21.772871,5.626374,-2.427721,-107.299805,-64.025879,1.312256,39.199219
43800,24.832661,4.496311,-1.565808,-156.524658,6.103516,44.586182,39.201172
43840,19.771318,4.065354,0.148441,-171.783447,50.903320,64.086914,39.199219
43880,9.782708,2.667141,-1.963245,-139.587402,60.302734,52.124023,39.195312
43920,1.264138,0.014365,-3.351882,17.059326,21.667480,25.573730,39.205078
43960,-4.108450,-4.218584,-4.367024,162.689209,-63.873291,35.217285,39.195312
44000,-4.094085,-4.429273,-0.828394,39.367676,-29.266357,2.502441,39.195312
44040,3.442862,-3.409343,0.723049,-46.020508,-16.632080,-37.902832,39.212891
44080,19.416975,0.363919,-5.477933,122.222900,-50.720215,-37.322998,39.207031
44120,26.604370,-0.713472,-2.384625,112.640381,30.761719,-20.141602,39.185547
44160,21.897369,2.197877,-2.590526,128.204346,2.777100,-42.419434,39.189453
44200,13.139379,5.640739,-1.130063,140.136719,16.845703,-81.024170,39.189453
44240,6.047753,3.112462,1.795651,57.403564,54.046631,-54.443359,39.218750
44280,-3.083732,2.681506,0.229843,-20.538330,-3.845215,-21.270752,39.179688
44320,-4.122815,1.891419,-1.484405,-73.303223,4.119873,23.590088,39.189453
44360,1.613692,1.599327,-2.188300,-78.826904,-29.388428,33.386230,39.207031
44400,10.840945,2.245761,-2.384625,-75.653076,-47.576904,14.038086,39.214844
44440,20.010738,4.740520,-2.513912,-117.034912,-21.362305,20.233154,39.212891
44480,24.080881,5.219360,-1.551443,-145.690918,-30.059814,39.764404,39.222656
44520,21.049822,3.849876,0.742203,-179.138184,72.265625,70.526123,39.199219
44560,10.433931,2.466028,-2.499547,-116.149902,60.150146,44.677734,39.197266
44600,1.886631,-0.976834,-3.524265,26.947021,51.025391,28.564453,39.195312
44640,-3.284845,-4.898537,-3.720589,130.371094,19.287109,117.340088,39.195312
44680,-5.501875,-3.366248,-0.905008,26.977539,-12.420654,8.544922,39.201172
44720,1.312023,-0.679953,-0.636858,70.922852,-169.891357,-41.992188,39.199219
44760,13.790602,-1.671153,-2.437297,82.153320,-16.448975,-106.567383,39.205078
44800,25.684996,-0.474052,-3.098097,122.924805,-25.573730,-13.549805,39.208984
44840,25.632324,-0.148441,-2.873042,112.182617,43.670654,-8.972168,39.201172
44880,16.821661,4.027047,-2.762909,132.904053,-6.744385,-45.684814,39.199219
44920,9.380483,3.849876,1.312023,106.445312,69.396973,-65.124512,39.232422
44960,-0.560243,2.858677,0.526724,10.986328,47.698975,-45.135498,39.208984
45000,-5.832275,1.810017,-1.278504,-52.703857,10.528564,1.739502,39.195312
45040,-1.221043,1.891419,-0.320823,-62.133789,-14.129639,10.101318,39.214844
45080,3.394978,2.044648,-1.383849,-76.873779,-55.450439,23.590088,39.205078
45120,13.924677,2.360683,-2.145205,-82.580566,-66.741943,-2.319336,39.220703
45160,24.942793,5.640739,-2.063802,-92.681885,-61.614990,1.770020,39.222656
45200,25.316288,5.114015,0.574608,-166.107178,18.981934,49.987793,39.216797
45240,17.199945,3.811569,0.158017,-158.020020,82.672119,63.171387,39.197266
45280,5.573701,2.284068,-3.351882,-99.060059,30.975342,23.895264,39.199219
45320,-0.708684,-2.351106,-3.375824,73.638916,10.314941,67.169189,39.210938
45360,-3.241749,-5.233725,-4.788404,210.235596,-89.752197,86.181641,39.218750
45400,-3.232172,-3.940856,-0.378284,89.172363,-34.057617,-27.160645,39.222656
45440,6.186617,-2.949656,1.168370,-55.633545,17.333984,-122.406006,39.234375
45480,22.400150,3.155558,-5.190629,144.439697,-93.414307,-38.696289,39.220703
45520,26.508602,-0.086191,-1.953669,98.266602,71.502686,-4.516602,39.226562
45560,19.019539,4.481946,-3.145981,177.825928,-42.907715,-79.162598,39.185547
45600,11.300632,4.841076,0.421380,127.838135,34.454346,-77.270508,39.207031
45640,3.275268,3.792415,2.140416,19.775391,51.513672,-48.553467,39.191406
45680,-4.328717,1.800440,-0.646434,-42.358398,4.516602,1.190186,39.212891
45720,-2.082955,0.579397,-1.407791,-59.967041,7.965088,34.118652,39.195312
45760,4.707001,2.652776,-1.513135,-85.632324,-38.604736,40.832520,39.212891
45800,15.940595,5.650316,-1.632846,-103.332520,-35.247803,9.460449,39.216797
45840,23.578098,6.971915,-2.489970,-157.348633,-42.327881,19.012451,39.228516
45880,23.218967,3.763685,-0.095768,-193.298340,3.784180,69.061279,39.195312
45920,14.164097,2.825158,-1.086968,-157.257080,67.352295,54.107666,39.197266
45960,4.314352,1.843535,-3.213019,-54.290771,27.374268,4.302979,39.199219
46000,-2.269703,-3.433285,-3.811569,89.630127,-9.399414,7.598877,39.214844
46040,-4.180276,-6.100426,-3.112462,88.439941,-31.311035,1.464844,39.216797
46080,0.881066,-4.185065,0.124498,27.374268,-5.920410,-24.108887,39.205078
46120,14.384364,-0.330400,-2.221819,43.151855,33.416748,9.521484,39.212891
46160,24.262840,0.986411,-3.098097,167.053223,-45.928955,-44.250488,39.208984
46200,23.812731,0.478840,-2.518700,118.743896,9.704590,-15.197754,39.193359
46240,15.409082,5.813122,-1.278504,173.950195,-9.338379,-88.165283,39.197266
46280,7.498640,4.774038,1.848324,89.324951,68.023682,-70.343018,39.214844
46320,-1.154005,3.145981,0.905008,-8.514404,12.451172,-28.900146,39.228516
46360,-3.758897,1.656788,-1.278504,-65.551758,-9.338379,15.228271,39.201172
46400,0.579397,1.182736,-1.374272,-80.841064,-4.119873,31.311035,39.205078
46440,6.138733,1.829170,-2.212242,-99.517822,-58.807373,26.580811,39.218750
46480,16.625336,4.453215,-1.977611,-95.947266,-35.461426,2.868652,39.212891
46520,24.066515,6.483498,-2.135628,-125.640869,-45.166016,21.453857,39.218750
46560,22.965183,5.209783,0.684742,-168.304443,33.813477,56.823730,39.199219
46600,14.135366,3.998317,-0.560243,-162.445068,75.531006,56.274414,39.228516
46640,3.892972,1.728614,-2.901772,-66.589355,42.663574,26.489258,39.199219
46680,-2.207454,-3.711013,-3.859453,112.701416,-8.666992,108.917236,39.216797
46720,-4.089296,-5.602432,-4.228160,177.246094,-74.310303,55.328369,39.203125
46760,-1.771709,-3.174711,0.445322,-11.169434,-58.837891,-69.763184,39.189453
46800,12.416330,-2.240973,-0.885855,0.488281,61.126709,-47.576904,39.218750
46840,23.793577,2.806004,-3.916914,159.851074,-104.187012,-29.113770,39.214844
46880,25.493460,0.608127,-2.135628,107.086182,49.438477,-10.528564,39.222656
46920,17.065870,4.754885,-2.159570,156.616211,-32.897949,-69.702148,39.210938
46960,9.141062,4.649539,1.723825,99.121094,33.874512,-67.016602,39.224609
47000,0.301669,3.390190,1.216254,5.401611,12.573242,-48.461914,39.207031
47040,-4.213795,1.642422,-0.928950,-61.523438,11.260986,8.361816,39.203125
47080,-0.502782,0.852336,-1.910573,-79.162598,6.469727,37.506104,39.201172
47120,6.507440,2.561796,-1.857901,-88.287354,-53.771973,35.278320,39.214844
47160,17.195156,5.583278,-1.283292,-98.419189,-11.505127,-0.671387,39.210938
47200,23.635559,6.224925,-2.341529,-138.092041,-73.272705,18.341064,39.218750
47240,22.850262,3.667917,0.560243,-182.403564,49.621582,64.605713,39.226562
47280,13.460202,2.729390,-1.728614,-162.292480,52.947998,54.595947,39.216797
47320,4.558560,1.082179,-3.136404,-34.362793,42.938232,18.951416,39.214844
47360,-2.245761,-3.653552,-3.773262,112.854004,-25.390625,64.453125,39.222656
47400,-5.056554,-4.716578,-2.456451,136.932373,-33.386230,55.541992,39.205078
47440,-2.537854,-2.877831,0.708684,10.040283,-68.756104,-36.804199,39.228516
47480,12.028469,-2.389413,-1.403002,-25.054932,73.730469,-48.706055,39.207031
47520,24.612394,2.269703,-4.113238,165.435791,-87.554932,-43.395996,39.234375
47560,25.526979,-0.335188,-1.800440,95.672607,30.303955,5.249023,39.208984
47600,17.597382,4.654328,-1.551443,175.231934,12.054443,-81.909180,39.224609
47640,9.610326,3.720589,0.780510,114.288330,29.357910,-67.565918,39.208984
47680,1.714248,2.576161,0.866701,23.834229,21.087646,-33.752441,39.214844
47720,-4.386178,1.953669,-1.039083,-40.771484,1.129150,8.239746,39.205078
47760,-1.503559,1.063026,-1.197101,-53.680420,6.652832,30.059814,39.210938
47800,4.673482,2.135628,-1.316811,-75.775146,-24.383545,41.168213,39.208984
47840,15.160085,4.247314,-1.877054,-94.390869,-63.293457,13.031006,39.210938
47880,22.720974,6.382942,-2.183512,-132.232666,-63.049316,15.106201,39.216797
47920,23.707386,3.979163,0.430956,-168.457031,26.489258,51.940918,39.208984
47960,15.591042,2.331953,-0.569820,-160.766602,35.766602,61.248779,39.222656
48000,5.334281,1.522712,-2.944868,-49.957275,70.343018,7.415771,39.203125
48040,-2.025495,-2.810793,-3.955221,122.680664,-3.967285,26.824951,39.199219
48080,-4.352659,-5.741296,-3.280056,144.744873,-52.642822,12.634277,39.187500
48120,-1.460463,-3.725378,0.732626,15.380859,-40.466309,-41.687012,39.199219
48160,10.443508,-1.575385,-0.622492,6.896973,46.722412,13.061523,39.212891
48200,21.710621,1.747767,-4.405331,153.045654,-100.524902,-30.822754,39.234375
48240,25.301924,0.052672,-2.312799,107.177734,17.150879,-17.730713,39.214844
48280,19.397821,3.691859,-1.915361,144.287109,-17.181396,-71.868896,39.214844
48320,11.018116,4.031836,0.545878,114.562988,18.005371,-74.218750,39.212891
48360,2.576161,3.145981,1.446098,31.768799,33.294678,-54.748535,39.220703
48400,-3.945644,2.011129,-0.785298,-49.743652,7.904053,-0.549316,39.205078
48440,-1.350330,1.455675,-1.144428,-78.002930,14.984131,23.895264,39.205078
48480,3.002329,2.303222,-1.489193,-86.944580,-10.711670,25.756836,39.224609
48520,12.047623,3.385401,-2.245761,-105.590820,-42.846680,9.307861,39.210938
48560,21.595699,4.783615,-2.341529,-103.759766,-81.268311,7.080078,39.207031
48600,24.583664,4.410120,0.090980,-160.736084,14.373779,54.809570,39.214844
48640,18.004396,4.017470,0.234632,-185.150146,67.626953,74.920654,39.214844
48680,7.134721,2.475605,-2.652776,-108.398438,46.386719,37.139893,39.218750
48720,0.512359,-1.910573,-3.198653,41.595459,18.310547,27.099609,39.218750
48760,-3.083732,-5.262455,-5.042189,215.362549,-54.504395,64.575195,39.218750
48800,-3.778050,-3.011906,-0.426168,95.275879,-21.209717,-18.737793,39.216797
48840,3.945644,-3.284845,1.517924,-27.984619,-50.140381,-63.323975,39.224609
48880,21.068975,1.067814,-5.401319,116.485596,-80.688477,-39.764404,39.218750
48920,26.092010,1.766921,-2.207454,87.371826,40.740967,-11.749268,39.212891
48960,21.720198,2.695871,-3.088520,148.162842,-20.629883,-61.157227,39.207031
49000,13.445837,4.237737,0.081403,125.122070,24.902344,-70.770264,39.224609
49040,4.898537,3.916914,1.838747,26.794434,45.562744,-54.260254,39.220703
49080,-3.754108,2.389413,-0.392649,-51.849365,-1.312256,-12.481689,39.228516
49120,-3.074155,1.106121,-1.201889,-78.979492,24.200439,22.705078,39.207031
49160,1.838747,2.451663,-2.011129,-87.615967,-29.907227,26.794434,39.232422
49200,12.536040,2.992752,-2.126051,-82.611084,-62.408447,18.402100,39.232422
49240,22.309172,5.128380,-2.580950,-105.743408,-65.185547,19.714355,39.205078
49280,25.158272,5.114015,-0.335188,-169.311523,-12.207031,59.631348,39.236328
49320,18.938135,3.394978,-0.138864,-178.955078,78.033447,76.202393,39.218750
49360,7.613562,2.676718,-2.485181,-85.357666,63.659668,34.149170,39.224609
49400,-0.732626,-0.914585,-3.347094,-3.295898,7.659912,38.757324,39.212891
49440,-4.558560,-4.319140,-4.572925,136.749268,-78.369141,64.788818,39.218750
49480,-3.246537,-4.462792,-1.292869,95.153809,-43.304443,-24.200439,39.228516
49520,7.929596,-3.873818,0.502782,-10.223389,30.639648,-72.906494,39.228516
49560,24.406492,0.057461,-6.603208,187.927246,-119.812012,-27.099609,39.214844
49600,26.436775,0.679953,-2.911349,128.753662,57.189941,-20.660400,39.218750
49640,17.621325,4.601655,-3.093309,190.124512,-33.447266,-78.430176,39.226562
49680,9.026140,4.687847,1.316811,115.814209,65.734863,-75.836182,39.224609
49720,-0.014365,3.208230,0.751779,13.092041,8.148193,-40.924072,39.212891
49760,-4.491522,1.771709,-1.335965,-48.614502,-6.439209,4.882812,39.210938
49800,-0.756568,1.230620,-1.019930,-68.054199,4.791260,24.810791,39.208984
49840,4.443638,1.628057,-1.848324,-72.052002,-37.872314,26.092529,39.212891
49880,14.006080,3.112462,-2.082955,-96.588135,-39.550781,10.803223,39.220703
49920,23.463177,6.167464,-2.504335,-114.532471,-52.459717,15.258789,39.214844
49960,24.363396,4.505888,-0.105345,-165.435791,21.148682,59.875488,39.228516
50000,16.203957,3.308787,-1.005565,-176.544189,75.286865,69.244385,39.228516
50040,5.544971,1.944092,-2.853889,-79.193115,59.692383,25.054932,39.205078
50080,-1.335965,-3.011906,-3.366248,78.338623,1.190186,70.312500,39.228516
50120,-4.458004,-5.396531,-4.908113,193.542480,-84.106445,59.967041,39.222656
50160,-2.466028,-3.428497,-0.220267,11.901855,-86.975098,-85.754395,39.226562
50200,13.350069,-1.637634,-1.321599,-9.429932,85.968018,-51.513672,39.238281
50240,25.871744,1.072602,-4.558560,175.964355,-84.075928,-21.667480,39.210938
50280,24.909275,0.943315,-3.045424,111.755371,61.248779,-20.996094,39.195312
50320,15.231912,5.425261,-2.533065,166.290283,-37.567139,-71.624756,39.218750
50360,7.843405,4.443638,1.608904,87.921143,52.764893,-67.077637,39.203125
50400,-0.507571,3.155558,1.340753,-3.265381,8.911133,-43.121338,39.218750
50440,-3.955221,1.556231,-1.431733,-66.009521,0.305176,12.481689,39.218750
50480,-0.512359,1.144428,-1.292869,-84.259033,8.392334,31.097412,39.220703
50520,4.290410,2.413355,-1.929727,-97.106934,-22.125244,29.998779,39.203125
50560,16.625336,5.118803,-2.284068,-104.370117,-54.229736,8.880615,39.224609
50600,24.430433,4.769250,-2.111686,-130.798340,-49.255371,23.895264,39.220703
50640,23.807941,3.701436,0.507571,-169.555664,28.167725,65.246582,39.234375
50680,14.355634,2.671929,-0.928950,-176.452637,84.899902,74.707031,39.228516
50720,4.189853,1.479617,-2.930503,-32.775879,41.076660,18.859863,39.230469
50760,-2.370260,-2.585738,-4.022259,112.518311,-37.536621,30.242920,39.212891
50800,-4.563348,-5.616797,-3.610456,149.322510,-61.401367,27.770996,39.222656
50840,-1.173159,-4.151546,0.560243,16.967773,-20.141602,-48.675537,39.212891
50880,12.655750,-1.340753,-1.446098,42.480469,31.097412,-7.476807,39.216797
50920,24.200590,3.198653,-3.964798,156.463623,-65.399170,-38.757324,39.212891
50960,24.473530,0.205901,-2.628834,91.430664,15.808105,-11.413574,39.232422
51000,17.539921,3.552995,-1.695095,166.809082,8.331299,-87.890625,39.214844
51040,8.959103,3.691859,1.278504,99.914551,47.851562,-67.138672,39.214844
51080,-0.857124,2.710236,0.919373,3.143311,22.247314,-25.848389,39.224609
51120,-5.363012,1.853112,-1.201889,-54.229736,-13.244629,10.711670,39.216797
51160,0.014365,1.632846,-1.364695,-63.201904,-8.300781,24.749756,39.244141
51200,6.737284,2.145205,-1.460463,-88.104248,-39.306641,28.228760,39.236328
51240,17.793707,3.806781,-2.547431,-102.630615,-42.236328,14.862061,39.234375
51280,24.076092,5.640739,-2.705448,-127.563477,-63.232422,38.452148,39.234375
51320,22.634783,4.228160,0.320823,-178.314209,47.698975,72.967529,39.230469
51360,13.024457,2.743755,-2.331953,-127.838135,34.576416,49.133301,39.234375
51400,3.615245,0.670376,-2.906561,-34.271240,42.968750,6.622314,39.232422
51440,-2.475605,-3.964798,-3.672705,123.931885,-30.609131,29.602051,39.208984
51480,-4.434062,-5.444415,-2.767697,111.297607,-22.338867,14.465332,39.232422
51520,0.210690,-3.294421,0.430956,1.464844,-6.195068,-77.575684,39.218750
51560,14.800955,0.158017,-3.821146,60.272217,-0.732422,1.037598,39.230469
51600,24.363396,0.134075,-3.351882,154.968262,-24.108887,-29.052734,39.232422
51640,24.143129,0.603339,-3.208230,131.347656,-10.894775,-20.965576,39.224609
51680,15.978902,5.051765,-1.958457,153.533936,-7.263184,-73.944092,39.218750
51720,8.781932,4.146757,1.268927,89.233398,40.740967,-68.908691,39.199219
51760,-0.550666,3.112462,1.197101,-3.631592,10.833740,-43.945312,39.222656
51800,-3.974375,1.345541,-0.938527,-59.204102,10.498047,8.178711,39.224609
51840,0.028730,1.268927,-1.690306,-64.178467,-1.342773,23.895264,39.232422
51880,6.038177,2.317587,-2.240973,-91.400146,-37.689209,29.968262,39.203125
51920,15.844827,4.299986,-2.030283,-113.861084,-33.020020,-3.936768,39.244141
51960,23.549368,5.875371,-2.820370,-124.053955,-65.856934,23.529053,39.191406
52000,23.678656,4.831499,-0.191536,-168.853760,29.113770,55.389404,39.222656
52040,15.016433,3.433285,-1.053449,-176.025391,54.473877,69.824219,39.214844
52080,4.955997,1.532289,-3.418920,-59.143066,16.906738,20.812988,39.212891
52120,-1.139640,-2.849100,-4.084508,114.868164,-20.996094,31.158447,39.220703
52160,-3.792415,-5.525817,-3.562572,141.540527,-36.621094,19.226074,39.210938
52200,-0.957681,-4.582502,0.775721,12.176514,-2.319336,-28.228760,39.224609
52240,9.935937,-2.173935,-0.900220,7.415771,66.741943,18.951416,39.242188
52280,20.705057,2.231396,-4.491522,151.519775,-101.898193,-42.053223,39.228516
52320,25.177425,-1.015141,-2.896984,110.778809,29.693604,6.225586,39.214844
52360,18.856733,4.242526,-2.264915,164.916992,-21.820068,-82.244873,39.232422
52400,10.788273,4.477157,0.402226,124.664307,28.839111,-78.826904,39.222656
52440,2.193089,3.390190,1.963245,17.211914,25.848389,-42.449951,39.226562
52480,-3.471592,2.011129,-0.378284,-47.058105,-5.706787,2.868652,39.218750
52520,-0.972046,1.192312,-1.158794,-76.324463,0.701904,24.505615,39.248047
52560,3.414132,2.126051,-1.929727,-102.294922,-26.214600,29.418945,39.240234
52600,13.000515,3.155558,-2.437297,-76.690674,-32.257080,-1.190186,39.234375
52640,21.691467,4.601655,-2.954445,-117.340088,-80.322266,24.200439,39.216797
52680,23.262064,4.280833,-0.392649,-185.760498,19.012451,61.218262,39.238281
52720,17.204733,3.169923,-1.154005,-152.526855,40.344238,67.993164,39.218750
52760,8.327033,2.791639,-2.997540,-78.216553,55.328369,13.885498,39.230469
52800,1.211466,-1.733402,-3.375824,12.695312,34.881592,6.896973,39.236328
52840,-4.084508,-5.343858,-3.576937,137.695312,-38.818359,23.071289,39.232422
52880,-3.696647,-3.797204,-0.234632,70.251465,-32.867432,-27.770996,39.238281
52920,6.177041,-3.074155,0.191536,6.591797,21.087646,9.460449,39.261719
52960,18.990808,1.259350,-5.200206,134.307861,-107.391357,-16.784668,39.242188
53000,25.661055,-0.469264,-2.887407,125.762939,12.878418,-18.310547,39.246094
53040,21.049822,3.136404,-2.614468,140.563965,-21.362305,-58.715820,39.238281
53080,12.368446,4.606444,-0.158017,128.295898,31.555176,-77.056885,39.226562
53120,3.744531,3.519476,1.479617,34.545898,39.154053,-55.450439,39.253906
53160,-3.634398,2.341529,-0.363919,-39.489746,-9.552002,-15.106201,39.246094
53200,-2.102109,1.450886,-1.513135,-73.181152,-2.593994,20.141602,39.232422
53240,2.992752,1.312023,-2.408567,-80.169678,-24.688721,26.550293,39.234375
53280,12.540829,2.528277,-1.920150,-98.693848,-23.406982,0.366211,39.234375
53320,21.576546,5.664681,-3.533842,-96.282959,-80.810547,11.322021,39.234375
53360,24.425646,5.473145,-0.775721,-152.374268,19.592285,51.055908,39.238281
53400,18.593370,4.108450,-0.622492,-159.637451,42.694092,64.910889,39.232422
53440,8.236053,1.915361,-3.050213,-93.750000,45.379639,39.398193,39.238281
53480,0.938527,-1.704672,-3.064578,38.848877,38.696289,27.557373,39.240234
53520,-3.308787,-5.353435,-4.304775,204.742432,-37.719727,47.119141,39.244141
53560,-3.677494,-4.127604,-0.277727,42.785645,-39.337158,-10.986328,39.238281
53600,3.418920,-2.547431,0.469264,-20.965576,4.791260,-38.391113,39.248047
53640,18.813637,1.723825,-4.903325,111.145020,-66.406250,-18.585205,39.222656
53680,25.282770,0.043096,-2.566584,117.614746,38.116455,-11.383057,39.236328
53720,21.993137,1.675941,-3.179500,134.979248,-23.681641,-39.306641,39.226562
53760,12.856863,5.430049,-0.799663,153.808594,5.432129,-93.688965,39.251953
53800,5.549759,3.720589,1.881842,48.126221,54.992676,-59.631348,39.238281
53840,-2.006341,2.370260,0.392649,-32.318115,-1.495361,-15.930176,39.232422
53880,-2.365471,1.355118,-0.986411,-77.392578,3.814697,18.432617,39.232422
53920,1.211466,1.877054,-2.264915,-94.360352,-29.724121,26.153564,39.250000
53960,9.543288,3.643975,-1.656788,-112.426758,-36.804199,10.223389,39.234375
54000,20.374657,5.463568,-2.528277,-97.503662,-45.013428,-16.082764,39.222656
54040,24.880545,3.399766,-1.843535,-147.857666,-43.121338,51.391602,39.263672
54080,19.756952,3.998317,-0.387861,-158.142090,44.281006,66.375732,39.230469
54120,9.993398,3.323152,-2.815581,-90.026855,29.968262,28.594971,39.238281
54160,2.964022,-0.938527,-3.160346,16.693115,33.966064,13.305664,39.236328
54200,-3.471592,-4.438850,-3.438074,100.402832,-2.471924,33.630371,39.255859
54240,-4.395754,-4.256891,-1.470040,74.279785,-18.157959,-4.943848,39.251953
54280,2.547431,-2.901772,0.780510,32.165527,31.646729,-11.260986,39.253906
54320,15.710752,0.976834,-4.204218,94.970703,-34.698486,-1.831055,39.242188
54360,24.181437,1.848324,-2.054225,139.831543,0.701904,-28.991699,39.253906
54400,23.080105,2.140416,-1.920150,136.352539,9.521484,-25.054932,39.228516
54440,15.169662,4.946421,-0.833182,167.663574,-0.732422,-81.115723,39.232422
54480,7.378930,4.017470,1.867477,83.312988,68.267822,-65.490723,39.224609
54520,-1.819593,2.930503,0.306458,-24.688721,1.739502,-23.040771,39.240234
54560,-3.562572,1.254562,-1.149217,-54.931641,4.119873,12.115479,39.232422
54600,0.153229,0.593762,-1.197101,-79.376221,-4.882812,33.538818,39.232422
54640,7.819463,2.753332,-2.001553,-84.289551,-88.653564,13.641357,39.232422
54680,20.776882,5.109226,-2.264915,-104.614258,-64.666748,13.793945,39.253906
54720,24.281994,5.669470,-1.517924,-140.502930,-22.247314,52.276611,39.240234
54760,20.384233,5.286397,0.588974,-155.883789,42.510986,58.502197,39.234375
54800,11.171345,3.399766,-1.829170,-142.578125,57.128906,50.903320,39.234375
54840,2.537854,0.392649,-3.165135,-27.221680,43.487549,27.069092,39.242188
54880,-2.537854,-4.333505,-4.228160,166.839600,-31.585693,69.519043,39.228516
54920,-3.500323,-5.750873,-2.964022,137.969971,-43.029785,17.242432,39.238281
54960,1.350330,-3.495534,0.995988,-42.694092,-10.894775,-92.071533,39.242188
55000,16.443377,1.244985,-3.126827,47.393799,-3.662109,-16.204834,39.230469
55040,25.876532,0.603339,-2.398990,146.453857,-15.716553,-27.343750,39.281250
55080,23.568521,1.125275,-3.007117,124.267578,-4.241943,-20.843506,39.251953
55120,14.221559,5.731719,-1.570596,158.721924,-13.824463,-80.169678,39.242188
55160,6.560112,4.338294,1.699883,85.784912,55.297852,-72.052002,39.232422
55200,-1.795651,2.528277,1.316811,-8.483887,-14.099121,-28.533936,39.242188
55240,-3.150769,1.173159,-1.240196,-59.539795,9.002686,17.852783,39.246094
55280,0.861913,1.369483,-1.589750,-82.641602,-2.960205,31.799316,39.232422
55320,7.134721,3.112462,-2.250550,-104.095459,-46.905518,28.381348,39.261719
55360,17.832014,5.137957,-1.594538,-113.189697,-19.195557,-2.380371,39.251953
55400,23.343466,5.516241,-2.389413,-150.207520,-51.422119,24.322510,39.226562
55440,22.165520,3.864242,0.306458,-177.276611,20.812988,70.129395,39.242188
55480,13.225570,3.299210,-1.561020,-154.327393,55.877686,55.816650,39.248047
55520,4.544195,1.383849,-3.236961,-23.162842,34.088135,10.406494,39.253906
55560,-2.236184,-3.605668,-3.792415,102.233887,-8.972168,31.341553,39.244141
55600,-4.927267,-5.382165,-2.422932,102.203369,-30.151367,2.319336,39.248047
55640,0.100556,-4.036624,0.416591,2.838135,-29.479980,-16.693115,39.263672
55680,14.446613,-0.220267,-2.738967,35.949707,32.073975,8.880615,39.242188
55720,23.252487,0.890643,-3.189077,159.576416,-53.039551,-40.496826,39.244141
55760,24.741680,-0.052672,-2.389413,116.943359,10.284424,-9.338379,39.238281
55800,16.543934,5.453991,-1.273715,161.804199,-3.204346,-83.557129,39.232422
55840,8.997410,4.041412,1.426944,94.543457,43.640137,-70.343018,39.244141
55880,-0.119710,2.873042,0.938527,-2.441406,12.847900,-40.161133,39.263672
55920,-4.654328,1.742979,-0.857124,-67.535400,2.624512,1.892090,39.234375
55960,-0.837971,1.086968,-1.302446,-66.070557,-2.044678,19.836426,39.234375
56000,5.272032,2.164358,-1.426944,-88.714600,-35.766602,27.374268,39.240234
56040,17.319654,3.773262,-1.968034,-98.144531,-21.362305,17.395020,39.244141
56080,22.313959,6.301539,-2.370260,-118.408203,-74.615479,24.108887,39.240234
56120,22.515072,5.037400,0.852336,-169.342041,16.937256,57.769775,39.248047
56160,15.303738,3.155558,-0.756568,-157.073975,49.652100,60.455322,39.244141
56200,5.851429,1.484405,-3.203442,-52.764893,38.360596,13.122559,39.253906
56240,-0.828394,-3.131616,-3.313575,75.622559,1.403809,47.515869,39.228516
56280,-4.031836,-5.070919,-3.778050,160.797119,-44.097900,43.518066,39.248047
56320,-2.375048,-3.232172,0.095768,42.175293,-43.060303,-49.041748,39.238281
56360,9.160215,-2.647987,-0.536301,-1.831055,49.285889,-32.897949,39.259766
56400,22.141577,1.848324,-4.812346,149.169922,-105.529785,-21.759033,39.259766
56440,25.718515,0.062249,-2.398990,133.819580,49.346924,-10.101318,39.248047
56480,19.321207,4.046201,-2.437297,173.675537,-4.425049,-57.739258,39.248047
56520,11.099519,4.539406,-0.086191,131.805420,15.838623,-67.565918,39.216797
56560,3.830723,3.141193,1.929727,54.046631,29.693604,-56.274414,39.257812
56600,-3.778050,2.322376,0.110133,-31.341553,6.652832,-12.481689,39.250000
56640,-2.106898,1.436521,-0.957681,-65.948486,14.648438,24.597168,39.251953
56680,2.973598,2.130840,-2.078167,-82.397461,-33.966064,36.834717,39.259766
56720,12.095507,4.007894,-1.762132,-103.881836,-42.724609,12.115479,39.251953
56760,20.982784,5.554548,-3.141193,-94.146729,-79.620361,3.570557,39.248047
56800,24.052151,4.491522,-0.780510,-159.545898,10.803223,46.722412,39.271484
56840,18.607735,3.093309,-0.373495,-176.666260,60.485840,70.373535,39.261719
56880,8.623915,2.523489,-2.140416,-110.015869,73.089600,40.435791,39.259766
56920,0.617704,-0.023942,-2.614468,13.061523,20.416260,31.890869,39.238281
56960,-3.610456,-4.903325,-4.285621,185.852051,-54.809570,72.235107,39.238281
57000,-3.433285,-5.473145,-1.508347,67.169189,-48.400879,-3.814697,39.263672
57040,6.397307,-3.667917,0.689530,-71.136475,61.920166,-48.461914,39.253906
57080,21.001938,2.025495,-4.381389,152.404785,-119.049072,-27.587891,39.244141
57120,24.938005,-1.422156,-1.517924,101.898193,40.435791,0.183105,39.248047
57160,19.613300,3.131616,-2.547431,173.034668,-28.564453,-64.605713,39.259766
57200,11.880029,4.783615,-0.081403,149.810791,4.180908,-80.993652,39.232422
57240,4.467580,3.337517,1.987187,42.022705,25.543213,-52.886963,39.238281
57280,-3.303998,2.351106,0.225055,-43.701172,-15.014648,-9.674072,39.250000
57320,-2.509123,1.120486,-1.106121,-72.448730,16.967773,23.254395,39.244141
57360,2.542642,1.508347,-2.078167,-76.354980,-6.896973,32.104492,39.232422
57400,11.200075,2.461239,-2.140416,-85.784912,-31.860352,13.977051,39.244141
57440,20.594923,4.515464,-2.480393,-121.734619,-22.186279,15.991211,39.224609
57480,23.611618,4.908113,-1.086968,-145.050049,-46.417236,42.266846,39.253906
57520,19.613300,3.337517,1.493982,-166.229248,71.624756,74.981689,39.253906
57560,9.332599,2.351106,-1.944092,-104.949951,40.344238,36.224365,39.218750
57600,0.474052,-0.833182,-3.447650,18.157959,24.230957,19.439697,39.251953
57640,-3.509900,-5.549759,-4.486734,159.240723,-31.005859,45.013428,39.255859
57680,-3.050213,-5.291186,-1.881842,72.204590,-43.731689,-12.939453,39.263672
57720,5.353435,-3.217807,0.837971,-23.529053,32.989502,-36.865234,39.255859
57760,19.665974,1.891419,-4.778827,133.270264,-95.977783,-15.991211,39.246094
57800,24.621971,-0.349553,-2.231396,100.189209,14.862061,-22.735596,39.240234
57840,22.218191,0.794875,-2.082955,150.268555,-1.068115,-40.893555,39.234375
57880,13.374011,3.720589,-0.684742,137.603760,-32.501221,-70.495605,39.234375
57920,4.568137,3.442862,1.853112,65.887451,19.042969,-64.544678,39.240234
57960,-3.294421,2.834735,0.287304,-21.789551,2.868652,-25.512695,39.244141
58000,-1.714248,1.637634,-1.570596,-80.413818,23.773193,18.035889,39.244141
58040,2.035071,1.149217,-2.379837,-79.254150,0.488281,27.221680,39.244141
58080,8.930372,2.791639,-1.905785,-106.567383,-30.853271,12.390137,39.257812
58120,19.699492,5.463568,-1.991976,-116.210938,-31.646729,-11.352539,39.261719
58160,24.669855,5.185841,-0.981623,-155.242920,-23.620605,37.506104,39.248047
58200,20.480001,4.046201,0.325611,-177.185059,49.804688,64.422607,39.248047
58240,10.156203,3.078943,-1.948880,-138.580322,89.324951,34.484863,39.228516
58280,1.738190,-0.028730,-3.529053,-9.063721,2.380371,18.310547,39.255859
58320,-3.141193,-5.267244,-3.964798,118.591309,-26.947021,51.513672,39.251953
58360,-3.873818,-4.989516,-1.546654,63.690186,-18.463135,-2.532959,39.259766
58400,3.892972,-3.768473,0.833182,-34.484863,-11.199951,-41.748047,39.251953
58440,18.674774,1.259350,-5.238513,102.752686,-75.958252,-7.934570,39.244141
58480,24.765623,-0.847547,-2.212242,140.411377,46.051025,-22.979736,39.232422
58520,21.835119,1.948880,-2.705448,140.350342,-10.986328,-48.034668,39.261719
58560,13.910312,4.888960,-0.311246,154.266357,26.428223,-82.427979,39.238281
58600,6.033388,2.987964,2.149993,84.503174,68.420410,-60.821533,39.230469
58640,-3.189077,2.590526,0.732626,-16.906738,-8.270264,-23.559570,39.267578
58680,-3.366248,2.221819,-0.991199,-68.359375,1.953125,19.897461,39.238281
58720,1.819593,1.728614,-0.981623,-81.115723,-4.241943,29.083252,39.257812
58760,9.088389,2.873042,-1.924938,-90.576172,-49.468994,14.038086,39.236328
58800,18.693928,4.692636,-1.977611,-101.196289,-74.279785,7.415771,39.238281
58840,22.989124,5.152322,-0.852336,-145.294189,-39.916992,38.055420,39.253906
58880,20.484789,3.687071,0.651223,-175.262451,27.191162,76.049805,39.248047
58920,11.856087,2.920926,-1.312023,-123.107910,27.557373,46.722412,39.251953
58960,3.797204,0.229843,-2.748544,-39.886475,52.337646,21.301270,39.250000
59000,-3.236961,-4.362236,-4.817134,133.178711,-44.738770,-11.474609,39.255859
59040,-3.102885,-4.716578,-0.833182,16.845703,2.349854,9.338379,39.248047
59080,3.509900,-3.505111,0.392649,24.719238,36.437988,-23.132324,39.259766
59120,15.739482,0.172383,-5.161899,120.056152,-67.352295,4.028320,39.253906
59160,23.549368,1.177947,-1.173159,146.240234,38.055420,-29.968262,39.248047
59200,21.634007,1.910573,-1.379060,147.003174,-8.270264,-48.278809,39.255859
59240,14.920665,4.237737,-0.134075,163.055420,14.251709,-73.364258,39.257812
59280,7.038953,3.270479,1.661576,101.470947,35.797119,-55.969238,39.261719
59320,-2.308010,2.930503,0.900220,1.617432,-3.173828,-24.719238,39.257812
59360,-3.371036,2.135628,-0.885855,-55.603027,-13.580322,22.125244,39.261719
59400,2.456451,2.073379,-1.436521,-79.376221,-16.845703,37.658691,39.257812
59440,11.841722,2.987964,-2.035071,-90.972900,-29.907227,20.904541,39.261719
59480,19.426552,4.769250,-2.576161,-121.154785,-60.394287,19.134521,39.242188
59520,22.524649,4.898537,-0.814029,-143.829346,-15.472412,39.581299,39.261719
59560,18.962078,2.935291,0.258574,-166.931152,13.061523,72.052002,39.253906
59600,10.108319,2.533065,-1.565808,-99.334717,37.231445,34.851074,39.248047
59640,2.370260,-0.526724,-2.762909,-8.697510,41.839600,7.781982,39.250000
59680,-3.720589,-4.960786,-4.003105,94.055176,-17.974854,0.610352,39.248047
59720,-2.964022,-4.414908,-1.000776,66.619873,7.354736,-27.191162,39.257812
59760,4.970363,-2.681506,0.952892,35.308838,39.062500,-14.251709,39.263672
59800,16.879122,0.478840,-4.544195,125.732422,-108.734131,0.762939,39.281250
59840,23.946806,0.316035,-1.450886,138.580322,44.921875,-29.357910,39.236328
59880,21.049822,2.638410,-1.953669,146.820068,-21.697998,-48.675537,39.259766
59920,14.623784,4.290410,0.440533,133.697510,13.244629,-65.002441,39.238281
59960,6.382942,3.251326,1.651999,77.941895,19.592285,-51.483154,39.248047
60000,-2.576161,3.251326,0.545878,-22.857666,3.753662,-21.881104,39.251953
60040,-2.561796,2.542642,-0.914585,-72.204590,7.751465,8.483887,39.251953
60080,3.021482,2.231396,-1.853112,-77.087402,3.448486,20.599365,39.242188
60120,10.529699,3.050213,-1.944092,-78.765869,-32.958984,4.425049,39.255859
60160,19.503166,5.851429,-1.508347,-121.826172,-58.776855,8.850098,39.248047
60200,23.185450,5.434838,-0.646434,-162.292480,-5.981445,56.182861,39.251953
60240,18.306067,4.371812,-0.110133,-174.713135,14.373779,70.434570,39.248047
60280,9.500193,3.385401,-1.125275,-140.991211,31.860352,41.839600,39.232422
60320,1.192312,-1.599327,-2.920926,-26.367188,0.274658,27.770996,39.263672
60360,-4.314352,-5.372589,-3.773262,116.668701,-29.449463,14.923096,39.259766
60400,-2.475605,-3.265691,-0.588974,56.701660,7.781982,-30.853271,39.267578
60440,5.248090,-2.097321,0.359130,24.566650,6.835938,-30.273438,39.253906
60480,18.550274,0.028730,-5.439626,122.589111,-93.353271,1.129150,39.251953
60520,23.951593,1.498770,-2.274492,142.730713,35.766602,-29.693604,39.261719
60560,20.982784,2.705448,-2.633622,149.414062,-35.491943,-31.280518,39.273438
60600,13.915100,4.525041,-0.478840,129.760742,11.505127,-55.419922,39.271484
60640,6.655881,3.634398,1.398214,58.563232,26.824951,-36.590576,39.257812
60680,-2.461239,3.380613,0.110133,-29.357910,14.739990,-18.859863,39.253906
60720,-3.490746,1.848324,-1.201889,-71.289062,22.125244,22.186279,39.261719
60760,2.217031,1.570596,-2.111686,-71.136475,-13.519287,29.205322,39.250000
60800,11.405977,2.552219,-2.001553,-74.737549,-32.348633,13.031006,39.238281
60840,20.010738,5.358223,-2.485181,-95.336914,-76.263428,13.458252,39.259766
60880,23.333889,5.607220,-0.512359,-156.951904,17.700195,51.208496,39.248047
60920,18.679562,4.003105,-0.301669,-179.382324,33.905029,68.115234,39.250000
60960,9.054871,2.231396,-2.217031,-109.466553,47.454834,41.381836,39.261719
61000,0.895431,-0.900220,-2.743755,19.439697,23.254395,6.561279,39.250000
61040,-3.366248,-5.133168,-3.720589,145.446777,-39.611816,30.914307,39.251953
61080,-3.260903,-4.285621,-1.177947,62.652588,-33.691406,-28.442383,39.261719
61120,5.070919,-3.217807,0.502782,-3.570557,20.538330,-17.730713,39.257812
61160,18.550274,1.498770,-4.769250,115.386963,-65.979004,-6.622314,39.281250
61200,24.899698,0.416591,-2.743755,132.415771,24.627686,-24.139404,39.253906
61240,22.208614,1.920150,-2.715025,141.357422,-33.203125,-32.043457,39.242188
61280,13.752295,4.616021,-0.014365,145.263672,14.648438,-72.784424,39.263672
61320,5.995081,3.055001,2.250550,71.533203,50.231934,-62.316895,39.267578
61360,-2.911349,2.590526,0.248997,-7.873535,0.732422,-35.614014,39.251953
61400,-3.337517,1.766921,-1.211466,-75.164795,22.735596,19.714355,39.248047
61440,1.211466,2.006341,-1.259350,-80.596924,-16.998291,32.165527,39.240234
61480,9.174581,4.055778,-1.661576,-101.226807,-53.680420,24.902344,39.265625
61520,20.556616,5.142745,-2.183512,-91.644287,-58.349609,2.197266,39.251953
61560,24.574087,4.467580,-0.952892,-142.059326,-14.221191,46.112061,39.277344
61600,20.120871,3.849876,0.090980,-179.962158,48.645020,67.687988,39.273438
61640,9.629479,2.188300,-2.288857,-134.277344,38.085938,55.480957,39.251953
61680,1.345541,-0.311246,-2.715025,7.476807,21.636963,14.373779,39.267578
61720,-3.634398,-4.802769,-3.643975,136.749268,-32.409668,24.993896,39.267578
61760,-3.586514,-5.238513,-2.049437,65.917969,-65.399170,-14.923096,39.246094
61800,6.943185,-3.921702,0.478840,-25.817871,75.500488,4.516602,39.250000
61840,20.044256,1.388637,-5.439626,161.407471,-109.344482,-28.869629,39.263672
61880,25.790340,-1.719037,-2.585738,128.570557,36.712646,-10.223389,39.255859
61920,20.412964,3.251326,-2.355895,164.215088,-1.892090,-71.350098,39.240234
61960,11.980585,4.903325,-0.244209,146.240234,16.143799,-84.014893,39.267578
62000,4.094085,2.901772,2.035071,58.685303,41.564941,-55.297852,39.259766
62040,-3.706224,2.317587,-0.052672,-24.291992,6.652832,-9.887695,39.257812
62080,-2.710236,1.503559,-1.742979,-61.370850,0.274658,24.322510,39.271484
62120,3.112462,1.872266,-1.810017,-79.528809,-14.587402,37.292480,39.275391
62160,12.492945,3.773262,-1.503559,-96.984863,-27.801514,9.948730,39.232422
62200,21.049822,5.760449,-1.853112,-141.784668,-16.418457,19.348145,39.257812
62240,23.716963,4.850653,-1.067814,-169.036865,-22.277832,51.300049,39.273438
62280,18.301277,3.485958,-0.067038,-165.496826,48.156738,52.703857,39.248047
62320,8.298303,1.570596,-2.480393,-89.538574,63.385010,22.583008,39.248047
62360,-0.445322,-1.824382,-3.730166,41.076660,23.712158,3.753662,39.265625
62400,-4.467580,-5.530606,-3.596091,102.233887,-36.712646,11.108398,39.271484
62440,-2.097321,-4.319140,-0.828394,34.362793,-23.590088,-13.275146,39.255859
62480,6.631939,-2.691083,0.545878,24.414062,20.385742,7.781982,39.251953
62520,19.105730,1.192312,-3.950433,134.033203,-83.984375,-6.896973,39.253906
62560,24.952370,-0.952892,-1.848324,125.488281,21.209717,-7.751465,39.271484
62600,21.993137,2.667141,-1.819593,153.594971,-8.636475,-58.959961,39.261719
62640,13.560759,4.716578,-0.320823,138.732910,6.713867,-74.096680,39.265625
62680,5.583278,3.840300,1.829170,68.298340,39.886475,-63.018799,39.277344
62720,-3.064578,2.537854,0.454898,-31.982422,0.976562,-18.463135,39.275391
62760,-3.059790,1.154005,-1.211466,-67.718506,-3.631592,20.050049,39.279297
62800,1.173159,1.407791,-1.489193,-81.085205,-22.399902,35.034180,39.277344
62840,10.055647,3.016694,-1.355118,-99.304199,-16.174316,19.836426,39.263672
62880,20.695480,4.438850,-2.035071,-111.602783,-53.619385,8.911133,39.273438
62920,24.463953,4.893748,-0.972046,-153.991699,-0.823975,38.208008,39.261719
62960,20.288465,3.524265,0.407014,-173.858643,55.236816,58.013916,39.269531
63000,10.103531,1.675941,-1.977611,-123.626709,30.059814,39.611816,39.253906
63040,1.881842,-0.354342,-2.494758,-15.136719,29.022217,1.342773,39.269531
63080,-2.662352,-4.836287,-3.840300,139.312744,-31.738281,27.313232,39.275391
63120,-3.337517,-4.774038,-2.059013,71.197510,-23.956299,-0.823975,39.281250
63160,2.073379,-3.222595,0.660800,19.409180,-2.075195,-15.319824,39.287109
63200,14.709975,-0.296881,-2.576161,87.280273,-19.470215,-4.821777,39.261719
63240,24.545357,0.689530,-2.030283,140.075684,-10.559082,-28.076172,39.283203
63280,23.324312,1.067814,-1.944092,120.544434,-31.402588,-40.557861,39.271484
63320,16.021997,4.003105,-0.363919,165.588379,0.640869,-82.366943,39.267578
63360,7.340622,3.174711,1.766921,96.862793,24.475098,-60.211182,39.263672
63400,-1.015141,3.169923,1.249773,1.373291,2.777100,-33.630371,39.248047
63440,-3.203442,1.800440,-1.426944,-52.673340,-0.793457,13.031006,39.291016
63480,0.660800,1.331176,-2.231396,-74.920654,-8.941650,38.482666,39.261719
63520,9.356541,2.997540,-1.101333,-82.611084,-31.921387,25.299072,39.257812
63560,18.837580,5.731719,-1.221043,-130.889893,-18.585205,15.716553,39.250000
63600,23.209391,5.923255,-2.135628,-151.641846,-56.091309,34.973145,39.287109
63640,20.872650,2.920926,0.062249,-162.078857,47.851562,67.565918,39.271484
63680,11.616667,2.197877,-1.867477,-105.987549,31.616211,38.879395,39.269531
63720,3.035848,-0.603339,-3.007117,-8.972168,34.179688,6.835938,39.267578
63760,-3.227384,-4.994305,-3.605668,65.368652,12.634277,14.190674,39.271484
63800,-3.940856,-4.836287,-2.212242,56.030273,-12.786865,-1.373291,39.283203
63840,2.288857,-3.184288,0.550666,59.906006,37.231445,3.662109,39.287109
63880,14.135366,0.387861,-3.562572,107.421875,-90.484619,-3.509521,39.271484
