MS,Accel X (m/s²),Accel Y (m/s²),Accel Z (m/s²),Gyro X (°/s),Gyro Y (°/s),Gyro Z (°/s),Temp (°C)
2320,0.660800,9.945514,-0.378284,-1.525879,-3.540039,1.739502,33.224609
2360,0.684742,9.950302,-0.402226,-1.495361,-5.065918,1.251221,33.248047
2400,0.689530,9.926360,-0.306458,-2.655029,-5.096436,0.305176,33.228516
2440,0.665588,9.821015,-0.201113,-1.647949,-4.089355,0.823975,33.230469
2480,0.689530,9.792285,-0.191536,-1.739502,-3.448486,1.464844,33.242188
2520,0.742203,9.854534,-0.201113,-2.014160,-2.380371,0.183105,33.242188
2560,0.684742,9.758766,-0.210690,-1.739502,-2.807617,1.251221,33.242188
2600,0.603339,9.706094,-0.215478,-2.380371,-2.319336,2.410889,33.208984
2640,0.579397,9.782708,-0.244209,-2.258301,-2.258301,3.936768,33.236328
2680,0.632069,9.935937,-0.167594,-1.586914,-1.983643,3.448486,33.230469
2720,0.521936,9.797073,0.038307,0.305176,-1.251221,2.593994,33.246094
2760,0.220267,9.423578,0.191536,1.678467,-0.701904,6.164551,33.236328
2800,0.062249,9.390059,0.167594,1.342773,-0.732422,13.305664,33.234375
2840,0.282516,9.888053,0.143652,1.098633,-1.739502,15.533447,33.230469
2880,0.296881,10.070012,0.038307,-3.143311,-6.347656,11.566162,33.242188
2920,-0.028730,9.710882,-0.076614,-6.988525,-11.413574,12.054443,33.248047
2960,-0.062249,9.696517,0.009577,-4.730225,-11.718750,14.160156,33.250000
3000,0.172383,10.050858,0.090980,-4.119873,-10.894775,11.169434,33.251953
3040,0.244209,10.079589,0.086191,-2.349854,-10.314941,8.178711,33.255859
3080,0.316035,9.988609,0.076614,-1.098633,-11.077881,5.767822,33.265625
3120,0.392649,9.907207,0.148441,-0.823975,-8.605957,2.227783,33.261719
3160,0.407014,9.816227,0.205901,3.021240,-7.049561,3.814697,33.255859
3200,0.536301,10.031705,0.239420,3.326416,-3.570557,1.159668,33.279297
3240,0.550666,10.127473,0.220267,5.767822,-2.319336,0.732422,33.250000
3280,0.507571,10.122684,0.167594,9.094238,-0.823975,2.044678,33.250000
3320,0.488417,10.113108,0.076614,12.145996,-1.464844,2.410889,33.251953
3360,0.421380,9.821015,-0.043096,17.181396,-3.356934,2.532959,33.265625
3400,0.114922,9.313444,-0.359130,13.244629,-3.662109,12.145996,33.261719
3440,0.646434,10.141838,-0.775721,11.138916,-10.009766,24.719238,33.265625
3480,1.877054,11.817780,-0.833182,13.763428,-14.587402,2.410889,33.265625
3520,1.685518,11.176133,-0.876278,-5.859375,-14.343262,-9.307861,33.265625
3560,1.345541,10.414778,-0.866701,-1.678467,-14.007568,-2.532959,33.275391
3600,1.838747,11.089942,-0.799663,-7.629395,-13.336182,-12.237549,33.283203
3640,2.025495,10.726024,-0.517148,-11.505127,-10.253906,-26.489258,33.263672
3680,1.412579,8.853758,-0.210690,-14.343262,-8.270264,-28.686523,33.267578
3720,0.794875,7.455544,0.023942,-19.165039,-4.455566,-21.118164,33.261719
3760,0.641646,7.335834,0.167594,-17.700195,0.549316,-7.324219,33.246094
3800,0.794875,7.996634,0.282516,-13.885498,7.690430,3.143311,33.265625
3840,0.890643,8.547300,0.205901,-14.465332,11.444092,15.350342,33.285156
3880,0.924162,9.112331,0.023942,-12.786865,11.718750,34.210205,33.283203
3920,1.685518,10.457873,0.268151,1.373291,9.857178,48.034668,33.294922
3960,2.336741,11.252748,0.938527,-6.469727,23.345947,44.830322,33.283203
4000,2.647987,11.171345,1.412579,-17.730713,41.442871,51.483154,33.269531
4040,3.548207,11.281479,1.699883,25.878906,50.872803,46.264648,33.292969
4080,3.327940,9.983821,1.388637,22.216797,57.586670,26.794434,33.275391
4120,2.901772,8.906430,1.029507,7.720947,60.577393,25.390625,33.294922
4160,3.442862,9.629479,1.029507,25.451660,59.600830,24.505615,33.279297
4200,3.428497,9.902418,0.962469,20.202637,61.431885,6.256104,33.304688
4240,2.207454,8.279149,0.560243,11.199951,55.847168,3.356934,33.275391
4280,1.455675,7.393295,0.181959,19.317627,41.168213,10.162354,33.292969
4320,1.546654,8.006210,0.205901,8.697510,31.524658,4.760742,33.402344
4360,1.685518,8.906430,0.378284,4.486084,21.636963,-1.068115,33.406250
4400,1.771709,10.137050,0.440533,-8.758545,11.749268,-13.702393,33.404297
4440,1.920150,11.233594,0.718261,-24.261475,7.202148,-30.151367,33.400391
4480,1.498770,10.931925,0.914585,-14.160156,10.345459,-20.294189,33.402344
4520,1.235408,10.807426,0.311246,17.517090,-0.274658,14.343262,33.386719
4560,2.671929,12.536040,-0.421380,42.541504,-16.967773,7.965088,33.402344
4600,3.323152,12.808979,-1.249773,-10.803223,-28.442383,-23.345947,33.398438
4640,2.767697,11.362882,-1.431733,-28.350830,-39.764404,-22.857666,33.416016
4680,2.312799,10.189722,-0.962469,-12.298584,-53.680420,-13.427734,33.416016
4720,2.221819,9.217676,-0.186748,-16.754150,-48.797607,-27.862549,33.406250
4760,1.972822,7.896077,0.134075,-20.294189,-49.041748,-41.992188,33.439453
4800,1.369483,6.416461,0.234632,-11.566162,-49.224854,-42.572021,33.400391
4840,0.972046,6.052542,0.229843,-14.251709,-47.332764,-33.752441,33.406250
4880,1.106121,6.804321,0.158017,-25.939941,-39.367676,-16.845703,33.431641
4920,1.862689,8.082825,0.287304,-28.472900,-34.179688,4.516602,33.414062
4960,2.758120,8.877700,0.943315,-41.809082,-15.930176,32.440186,33.425781
5000,3.691859,8.892065,1.671153,-27.404785,-3.753662,70.251465,33.412109
5040,4.515464,8.236053,2.111686,11.169434,7.537842,100.036621,33.425781
5080,4.927267,7.891289,1.996764,71.868896,9.216309,96.984863,33.437500
5120,5.018247,8.604761,2.973598,40.008545,31.311035,60.058594,33.441406
5160,6.435614,11.353305,4.836287,-50.537109,78.491211,48.492432,33.427734
5200,8.245630,16.429012,5.635951,15.777588,81.787109,62.377930,33.429688
5240,7.364564,17.693151,4.836287,39.154053,103.973389,52.398682,33.464844
5280,4.553771,14.992491,2.298434,14.465332,101.928711,47.698975,33.447266
5320,1.561020,11.429919,-0.076614,41.168213,68.634033,47.180176,33.429688
5360,-1.254562,7.407660,-2.011129,47.729492,37.384033,15.411377,33.410156
5400,-3.940856,3.715801,-3.399766,14.434814,-6.225586,-44.433594,33.449219
5440,-6.004658,1.091756,-3.476381,-5.645752,-35.552979,-77.362061,33.453125
5480,-5.631162,2.269703,-2.513912,20.996094,-56.274414,-86.608887,33.472656
5520,-2.901772,9.959879,-1.977611,48.553467,-67.352295,-84.503174,33.464844
5560,2.341529,23.774424,-3.418920,-23.590088,-65.643311,-143.249512,33.445312
5600,8.547300,30.166941,-3.797204,-40.740967,-107.269287,-201.141357,33.443359
5640,10.457873,24.253263,-1.594538,-64.575195,-134.979248,-170.928955,33.466797
5680,9.610326,14.202404,0.924162,-30.120850,-124.694824,-84.777832,33.453125
5720,7.718906,5.415684,1.182736,-9.857178,-118.713379,-25.543213,33.455078
5760,6.315904,-1.278504,1.024718,-45.196533,-85.388184,-6.164551,33.435547
5800,4.860229,-5.549759,1.206678,-16.754150,-63.232422,28.289795,33.437500
5840,3.213019,-6.947973,2.346318,24.108887,8.605957,66.040039,33.468750
5880,2.379837,-3.687071,3.107674,54.199219,51.361084,121.154785,33.447266
5920,3.931279,7.082048,4.793192,54.626465,110.565186,160.156250,33.455078
5960,7.972692,23.511061,4.520253,97.534180,137.298584,140.045166,33.455078
6000,9.519346,29.496565,2.806004,34.790039,117.309570,58.471680,33.466797
6040,5.463568,20.508732,1.618480,-30.273438,110.961914,43.792725,33.443359
6080,0.804452,10.108319,0.421380,42.022705,112.335205,73.577881,33.445312
6120,-2.595315,4.515464,-2.130840,83.709717,107.910156,67.108154,33.484375
6160,-5.602432,2.863465,-4.831499,16.540527,68.725586,8.972168,33.474609
6200,-7.422025,2.442086,-6.019023,-31.127930,-4.638672,-59.539795,33.498047
6240,-6.517017,3.763685,-4.797980,-2.624512,-41.900635,-83.679199,33.494141
6280,-3.193865,12.445061,-4.074931,60.699463,-72.509766,-57.159424,33.541016
6320,4.276044,29.563602,-6.143522,8.026123,-71.807861,-146.514893,33.533203
6360,13.608643,36.592979,-6.191406,-47.790527,-203.979492,-198.211670,33.529297
6400,15.533581,23.491907,-0.368707,-92.834473,-201.568604,-204.620361,33.541016
6440,10.730812,5.894525,2.394202,-9.826660,-165.863037,-95.397949,33.556641
6480,7.613562,-2.609680,1.651999,-20.843506,-150.878906,-31.799316,33.546875
6520,6.033388,-5.908890,1.426944,-83.282471,-107.360840,-25.207520,33.533203
6560,3.806781,-7.920019,2.542642,-28.564453,-23.651123,9.918213,33.542969
6600,1.695095,-7.426814,2.552219,40.039062,32.958984,96.405029,33.550781
6640,1.431733,-0.857124,3.581726,52.795410,69.549561,140.411377,33.550781
6680,4.534618,15.251065,4.630386,94.665527,135.162354,187.927246,33.546875
6720,9.567230,32.790985,3.485958,111.968994,119.171143,75.592041,33.556641
6760,7.690176,29.108704,2.432509,-4.272461,110.351562,-2.075195,33.533203
6800,1.446098,14.997279,1.805228,4.486084,107.543945,35.156250,33.583984
6840,-2.691083,6.215348,0.397437,79.193115,120.239258,57.647705,33.546875
6880,-4.812346,1.991976,-2.126051,61.492920,105.651855,46.508789,33.583984
6920,-6.095637,0.172383,-3.878607,5.859375,41.595459,12.237549,33.523438
6960,-6.593631,0.593762,-4.180276,-48.645020,-31.921387,-53.070068,33.539062
7000,-6.651093,3.107674,-3.404555,-14.587402,-56.182861,-73.516846,33.541016
7040,-4.496311,15.964537,-3.620033,37.506104,-65.948486,-45.623779,33.539062
7080,2.997540,35.960911,-6.162675,-33.996582,-92.315674,-172.515869,33.542969
7120,10.587160,36.588192,-4.410120,-79.071045,-177.246094,-235.412598,33.541016
7160,11.525687,19.220652,0.603339,-58.746338,-172.363281,-170.104980,33.541016
7200,9.222465,4.266468,2.576161,11.749268,-137.756348,-78.002930,33.548828
7240,7.283162,-4.362236,2.054225,-16.998291,-92.803955,-20.874023,33.556641
7280,4.893748,-8.983045,1.489193,-33.538818,-52.429199,36.529541,33.546875
7320,2.887407,-9.763555,2.288857,14.068604,14.038086,112.457275,33.529297
7360,1.642422,-5.324705,3.083732,58.197021,55.969238,193.023682,33.556641
7400,5.185841,10.137050,4.266468,115.112305,116.516113,227.966309,33.554688
7440,10.601525,31.091103,4.213795,91.979980,125.335693,96.557617,33.544922
7480,9.686940,33.317711,3.423708,36.804199,106.048584,15.136719,33.531250
7520,3.203442,19.306843,2.240973,-4.821777,102.813721,9.826660,33.550781
7560,-1.412579,7.292738,0.847547,22.949219,96.038818,39.215088,33.550781
7600,-3.409343,1.154005,-0.775721,15.472412,99.578857,29.937744,33.578125
7640,-6.033388,-1.106121,-2.738967,-18.920898,55.816650,9.307861,33.552734
7680,-8.322245,-0.177171,-3.974375,-39.764404,-8.026123,-31.158447,33.552734
7720,-7.943961,3.739743,-3.380613,-15.258789,-27.679443,-54.382324,33.542969
7760,-4.094085,18.171991,-3.016694,5.096436,-48.950195,-27.435303,33.566406
7800,4.596867,37.143646,-3.639187,12.481689,-98.419189,-183.990479,33.570312
7840,9.983821,33.001675,-1.838747,-82.641602,-169.036865,-239.532471,33.541016
7880,9.988609,15.471332,2.035071,-65.979004,-153.167725,-159.149170,33.558594
7920,7.876924,2.810793,2.738967,34.881592,-111.022949,-53.527832,33.558594
7960,6.306327,-3.308787,0.866701,14.434814,-94.482422,-16.357422,33.574219
8000,4.917690,-6.904878,0.603339,-5.493164,-62.866211,22.247314,33.558594
8040,3.390190,-7.441179,1.838747,39.794922,4.516602,77.423096,33.566406
8080,2.600103,-2.743755,2.748544,86.883545,48.522949,130.065918,33.574219
8120,4.180276,10.041282,4.362236,73.944092,89.294434,196.258545,33.570312
8160,8.178593,27.739222,4.352659,98.022461,136.749268,98.052979,33.578125
8200,7.603985,29.755138,3.145981,38.848877,132.659912,29.357910,33.560547
8240,3.021482,19.187132,2.030283,6.958008,135.070801,37.109375,33.560547
8280,-0.890643,9.097966,0.536301,47.729492,122.406006,47.760010,33.603516
8320,-3.691859,2.806004,-1.441309,-10.009766,88.958740,35.705566,33.603516
8360,-6.732495,-0.316035,-2.987964,-47.546387,22.003174,14.831543,33.611328
8400,-8.231265,-0.383072,-3.371036,-39.245605,-38.696289,-34.698486,33.603516
8440,-7.824251,3.155558,-2.954445,-24.871826,-60.974121,-42.175293,33.613281
8480,-4.649539,16.745047,-2.695871,-29.357910,-42.846680,-36.834717,33.611328
8520,3.624821,35.826836,-4.118027,14.221191,-83.007812,-169.036865,33.628906
8560,9.605537,34.921825,-3.280056,-45.959473,-159.515381,-246.551514,33.611328
8600,10.304645,19.129671,0.809240,-76.293945,-146.423340,-197.906494,33.621094
8640,8.523358,5.774815,2.748544,34.271240,-99.639893,-108.215332,33.646484
8680,6.904878,-2.561796,1.479617,3.936768,-67.016602,-76.843262,33.623047
8720,5.650316,-8.202535,0.670376,-31.585693,-40.649414,-13.824463,33.642578
8760,4.898537,-10.280702,1.489193,30.975342,7.324219,93.200684,33.615234
8800,4.055778,-6.177041,2.106898,61.187744,39.428711,159.790039,33.619141
8840,4.999093,5.755661,4.094085,15.716553,78.094482,267.608643,33.615234
8880,9.572019,27.528532,6.598420,101.135254,134.674072,173.614502,33.623047
8920,8.954314,35.898659,5.286397,74.920654,148.590088,73.516846,33.615234
8960,3.524265,25.124752,2.145205,2.471924,145.874023,31.646729,33.628906
9000,-1.244985,10.462662,-0.301669,24.841309,133.850098,46.508789,33.623047
9040,-3.936068,1.589750,-2.571373,18.280029,98.510742,54.412842,33.638672
9080,-6.459556,-1.551443,-4.247314,-28.198242,42.572021,43.548584,33.632812
9120,-8.939949,-0.603339,-4.769250,-48.614502,-30.700684,-3.784180,33.630859
9160,-8.939949,3.256114,-3.921702,-4.058838,-59.509277,-50.048828,33.650391
9200,-5.248090,16.218323,-3.380613,18.646240,-47.088623,-45.898438,33.646484
9240,2.466028,36.478058,-5.554548,-18.341064,-103.881836,-184.326172,33.652344
9280,10.955867,38.292862,-3.069367,-93.658447,-177.001953,-261.108398,33.656250
9320,14.317327,22.567745,2.403779,-51.757812,-153.472900,-227.020264,33.632812
9360,11.808203,5.947197,3.476381,29.846191,-123.229980,-123.077393,33.617188
9400,8.801085,-3.213019,1.383849,-0.030518,-106.323242,-81.878662,33.626953
9440,6.402095,-8.523358,0.497994,-36.926270,-76.629639,-28.228760,33.621094
9480,4.520253,-10.989386,1.628057,-19.165039,-3.570557,84.716797,33.646484
9520,3.347094,-7.934384,2.269703,52.246094,45.471191,169.891357,33.611328
9560,4.252102,3.438074,4.046201,64.788818,79.284668,281.616211,33.625000
9600,8.973468,27.988218,5.918467,104.187012,144.561768,151.519775,33.652344
9640,8.547300,36.047100,4.812346,123.962402,131.591797,49.438477,33.646484
9680,2.738967,23.755270,2.480393,39.459229,138.214111,27.587891,33.658203
9720,-1.513135,10.620679,0.770933,47.576904,132.751465,37.261963,33.644531
9760,-3.773262,2.135628,-0.948104,44.250488,113.067627,45.501709,33.648438
9800,-6.416461,-1.786075,-2.681506,-15.472412,67.413330,48.492432,33.646484
9840,-8.935161,-1.249773,-3.950433,-50.872803,-3.540039,-0.335693,33.625000
9880,-9.045294,1.786075,-4.017470,-18.829346,-52.459717,-38.299561,33.656250
9920,-6.081272,13.493721,-3.811569,12.817383,-79.162598,-12.359619,33.667969
9960,1.805228,35.295322,-5.386954,-4.150391,-59.875488,-172.058105,33.673828
10000,10.735600,39.049431,-6.177041,-71.472168,-194.183350,-242.034912,33.662109
10040,14.154520,23.587675,-1.201889,-117.645264,-210.632324,-220.550537,33.664062
10080,11.650186,6.909666,2.231396,-8.300781,-155.212402,-126.068115,33.658203
10120,8.571242,-2.935291,1.546654,18.310547,-114.868164,-76.934814,33.675781
10160,6.196194,-8.528147,0.598550,-32.745361,-72.113037,-23.925781,33.671875
10200,3.993528,-11.085154,1.335965,-15.533447,-5.615234,80.932617,33.677734
10240,2.887407,-8.030152,2.164358,40.100098,39.398193,178.833008,33.736328
10280,4.098873,4.046201,4.525041,77.911377,87.463379,253.967285,33.714844
10320,8.643068,27.763163,6.215348,118.957520,152.984619,146.209717,33.722656
10360,9.107543,36.645653,4.841076,121.063232,123.962402,41.931152,33.736328
10400,3.165135,24.076092,2.710236,37.139893,127.075195,15.228271,33.722656
10440,-1.695095,10.012551,1.187524,47.332764,123.046875,28.839111,33.734375
10480,-3.888184,2.217031,-0.306458,46.112061,120.452881,29.388428,33.724609
10520,-5.846641,-1.235408,-2.111686,2.777100,104.736328,20.538330,33.738281
10560,-7.704541,-1.288081,-4.098873,-29.022217,17.333984,-3.967285,33.746094
10600,-7.776367,1.460463,-4.276044,-27.313232,-57.952881,-38.665771,33.742188
10640,-5.975927,11.319786,-3.572149,6.347656,-79.864502,-9.521484,33.734375
10680,0.622492,32.747890,-4.663905,-44.555664,-52.978516,-166.595459,33.746094
10720,8.489840,37.895424,-4.587290,-68.756104,-173.400879,-218.811035,33.728516
10760,11.291056,22.979548,-0.330400,-76.354980,-165.344238,-188.140869,33.726562
10800,9.380483,6.517017,1.465251,3.845215,-142.852783,-95.123291,33.738281
10840,7.431602,-2.312799,0.852336,-6.042480,-113.677979,-44.067383,33.744141
10880,5.607220,-6.588843,0.588974,-55.877686,-70.587158,-9.918213,33.746094
10920,3.706224,-8.714894,1.762132,-12.115479,-12.329102,53.741455,33.742188
10960,2.035071,-7.225701,2.758120,71.075439,56.030273,143.615723,33.748047
11000,2.121263,1.359907,3.782839,100.341797,102.630615,249.664307,33.746094
11040,7.570466,24.976313,4.276044,112.213135,150.146484,140.289307,33.767578
11080,9.897630,37.373489,2.920926,113.555908,113.281250,14.343262,33.753906
11120,4.271256,25.225309,1.546654,16.418457,103.942871,-19.165039,33.732422
11160,-1.651999,9.658210,0.823605,5.676270,101.623535,17.150879,33.755859
11200,-4.558560,1.608904,-0.488417,42.419434,84.106445,53.314209,33.728516
11240,-6.392519,-1.125275,-2.164358,-2.929688,66.101074,50.109863,33.744141
11280,-7.613562,-0.426168,-3.538630,-34.271240,-10.864258,7.629395,33.740234
11320,-7.062895,2.365471,-3.289633,-20.507812,-75.408936,-54.107666,33.763672
11360,-5.784391,10.687716,-2.758120,6.652832,-86.944580,-17.974854,33.757812
11400,-0.134075,30.238768,-4.860229,-63.262939,-63.079834,-132.690430,33.742188
11440,8.695741,37.100548,-5.267244,-56.640625,-176.513672,-190.368652,33.765625
11480,11.075577,23.453600,-0.972046,-89.080811,-169.036865,-178.497314,33.763672
11520,8.173804,7.254431,1.723825,-14.373779,-118.469238,-97.290039,33.734375
11560,6.138733,-1.599327,1.197101,12.329102,-75.164795,-48.095703,33.755859
11600,4.841076,-6.090849,0.244209,-46.752930,-58.654785,-8.544922,33.767578
11640,3.816358,-8.240842,1.431733,-57.373047,-5.371094,53.466797,33.773438
11680,3.193865,-6.114791,2.590526,52.947998,43.273926,121.246338,33.759766
11720,3.260903,2.552219,3.912126,86.151123,76.385498,199.737549,33.765625
11760,6.895301,21.294029,4.778827,84.869385,141.235352,157.592773,33.750000
11800,8.307879,32.968159,3.648763,85.113525,114.532471,54.046631,33.740234
11840,4.141969,26.211720,2.710236,39.367676,126.037598,23.101807,33.771484
11880,-0.292093,14.231135,1.398214,56.152344,119.171143,27.465820,33.750000
11920,-2.758120,5.118803,-0.177171,60.882568,99.517822,29.541016,33.771484
11960,-5.420473,-0.660800,-1.608904,-13.671875,65.338135,36.163330,33.779297
12000,-7.972692,-1.872266,-2.571373,-60.424805,-0.122070,16.113281,33.751953
12040,-8.456321,0.244209,-2.513912,-49.407959,-43.853760,-29.022217,33.771484
12080,-7.105990,6.833052,-2.537854,-12.695312,-58.563232,4.058838,33.751953
12120,-1.077391,26.882097,-3.701436,-24.108887,-34.057617,-94.268799,33.767578
12160,6.756437,37.847542,-5.789180,-0.274658,-140.380859,-198.394775,33.771484
12200,10.793061,28.495789,-2.853889,-99.182129,-177.551270,-211.822510,33.794922
12240,10.362105,12.545617,1.216254,-17.913818,-154.296875,-136.352539,33.806641
12280,8.169016,1.493982,1.795651,33.782959,-127.044678,-72.540283,33.828125
12320,6.631939,-4.419696,0.785298,-24.749756,-108.978271,-32.867432,33.828125
12360,5.032612,-7.508216,1.398214,-46.569824,-54.595947,5.889893,33.814453
12400,3.308787,-7.699753,2.566584,38.238525,31.250000,90.576172,33.826172
12440,1.900996,-3.466804,3.112462,71.075439,56.427002,176.361084,33.816406
12480,4.893748,11.683704,4.505888,99.975586,104.522705,236.236572,33.835938
12520,11.152191,33.959358,5.396531,124.389648,150.390625,78.826904,33.835938
12560,8.365341,32.474953,3.816358,55.053711,126.678467,4.669189,33.816406
12600,1.431733,16.936583,2.403779,-8.575439,137.329102,17.486572,33.818359
12640,-2.801216,5.300763,0.861913,42.144775,134.338379,40.283203,33.826172
12680,-5.410896,-0.483629,-1.537078,27.008057,126.739502,52.947998,33.818359
12720,-7.762002,-1.379060,-4.357447,-33.264160,53.283691,33.477783,33.830078
12760,-8.398860,0.593762,-5.171476,-48.950195,-36.682129,-28.289795,33.812500
12800,-7.723695,5.267244,-4.419696,27.648926,-82.611084,-16.235352,33.839844
12840,-3.059790,23.080105,-4.774038,-46.691895,-41.931152,-91.979980,33.810547
12880,6.253655,38.139633,-6.435614,-17.059326,-141.052246,-199.859619,33.835938
12920,12.976573,31.445446,-2.724602,-72.814941,-191.131592,-218.811035,33.824219
12960,12.023681,12.890382,1.288081,-9.582520,-164.093018,-133.300781,33.816406
13000,8.403648,0.766145,2.011129,33.905029,-127.136230,-42.602539,33.816406
13040,5.884948,-4.137180,1.010353,-10.406494,-98.083496,8.209229,33.826172
13080,4.242526,-6.014235,1.096544,-45.837402,-57.586670,35.644531,33.818359
13120,3.074155,-6.205771,2.231396,15.869141,11.352539,78.063965,33.816406
13160,2.451663,-2.911349,3.222595,64.727783,32.714844,141.784668,33.832031
13200,4.711789,9.998186,4.659117,117.248535,115.447998,202.789307,33.837891
13240,9.308656,29.343336,3.572149,131.469727,157.409668,100.921631,33.847656
13280,7.910442,31.641769,1.747767,77.789307,124.023438,19.866943,33.833984
13320,2.178724,19.402611,1.149217,9.979248,122.619629,3.051758,33.832031
13360,-2.169147,7.402872,0.665588,51.055908,120.239258,13.854980,33.830078
13400,-5.176264,0.435745,-0.857124,32.653809,109.710693,13.427734,33.832031
13440,-7.632715,-1.939303,-2.743755,-25.085449,46.142578,0.457764,33.841797
13480,-7.800309,-1.015141,-3.318364,-49.713135,-27.191162,-26.306152,33.841797
13520,-6.483498,4.304775,-2.834735,13.397217,-66.131592,-22.613525,33.828125
13560,-3.136404,21.394587,-3.749320,-20.629883,-59.326172,-58.349609,33.847656
13600,4.094085,37.004780,-6.483498,-28.228760,-105.987549,-183.776855,33.835938
13640,9.931149,31.608252,-5.200206,-70.312500,-195.922852,-205.688477,33.851562
13680,10.572795,14.652514,-0.378284,-48.400879,-172.180176,-131.500244,33.841797
13720,8.030152,1.723825,1.398214,16.113281,-125.732422,-53.253174,33.843750
13760,5.856217,-4.505888,0.593762,-4.821777,-112.121582,-1.220703,33.841797
13800,4.620809,-7.024588,1.173159,-66.345215,-65.826416,33.782959,33.847656
13840,3.734955,-7.149086,2.652776,-18.341064,25.939941,103.668213,33.861328
13880,3.213019,-2.767697,2.983175,67.565918,60.455322,147.247314,33.865234
13920,5.066131,10.376471,3.955221,99.365234,111.785889,215.911865,33.841797
13960,9.361329,30.569168,3.189077,131.774902,150.909424,70.312500,33.841797
14000,7.522582,32.283417,1.484405,60.058594,116.241455,-5.126953,33.855469
14040,2.288857,19.785683,1.422156,15.838623,108.306885,-22.796631,33.853516
14080,-1.628057,6.833052,1.479617,43.762207,107.452393,-16.784668,33.843750
14120,-4.726154,-1.158794,0.311246,23.651123,97.290039,15.930176,33.824219
14160,-7.187394,-3.002329,-1.608904,5.706787,42.175293,31.005859,33.845703
14200,-7.771579,0.148441,-2.782062,-14.739990,-32.257080,-12.542725,33.894531
14240,-7.201759,5.894525,-2.724602,-10.437012,-57.800293,-49.407959,33.910156
14280,-4.946421,19.263746,-3.825934,-75.256348,-58.837891,-57.922363,33.908203
14320,2.178724,33.016041,-4.817134,-44.647217,-108.337402,-167.846680,33.906250
14360,6.732495,28.361713,-2.796427,-85.601807,-166.778564,-177.307129,33.900391
14400,6.670246,14.839262,0.512359,-64.331055,-166.015625,-104.034424,33.898438
14440,5.755661,4.663905,1.513135,15.533447,-116.638184,-41.656494,33.890625
14480,5.635951,-1.369483,0.268151,2.838135,-81.665039,-21.148682,33.898438
14520,4.831499,-4.951209,0.124498,-9.887695,-50.994873,6.744385,33.896484
14560,3.835511,-5.521029,1.723825,30.334473,32.012939,58.227539,33.871094
14600,3.093309,-1.005565,2.681506,72.998047,56.152344,127.410889,33.912109
14640,5.324705,13.235147,4.242526,98.022461,86.181641,170.593262,33.882812
14680,8.106767,29.271509,5.066131,86.029053,149.322510,46.142578,33.880859
14720,5.386954,28.232426,3.854665,36.254883,164.581299,22.369385,33.880859
14760,0.876278,17.199945,1.872266,60.485840,156.921387,25.329590,33.908203
14800,-2.724602,6.392519,-0.196325,65.185547,132.324219,40.344238,33.890625
14840,-5.252879,0.670376,-1.829170,-18.829346,62.866211,47.180176,33.884766
14880,-7.603985,-1.192312,-2.006341,-71.350098,-3.814697,5.676270,33.882812
14920,-8.667010,-0.181959,-1.675941,-55.999756,-47.454834,-23.956299,33.882812
14960,-7.594408,7.896077,-1.623269,-17.944336,-47.821045,-49.377441,33.865234
15000,-3.878607,24.578875,-3.572149,-52.062988,-18.493652,-131.317139,33.898438
15040,2.375048,34.031181,-6.028600,-0.061035,-115.051270,-200.836182,33.892578
15080,6.100426,26.585217,-3.960010,-69.335938,-175.018311,-192.108154,33.896484
15120,7.335834,13.752295,0.699107,-20.111084,-136.474609,-113.800049,33.886719
15160,6.952762,3.270479,2.059013,45.104980,-80.078125,-51.544189,33.888672
15200,6.186617,-3.706224,1.010353,9.643555,-58.563232,-4.547119,33.886719
15240,5.353435,-6.818686,1.244985,-1.403809,-18.798828,47.576904,33.914062
15280,4.606444,-5.616797,2.260126,35.003662,36.132812,101.867676,33.898438
15320,3.548207,0.847547,3.385401,44.433594,63.568115,142.425537,33.871094
15360,3.921702,14.451402,4.572925,59.448242,106.536865,185.607910,33.894531
15400,5.817910,29.285875,4.213795,74.615479,143.218994,84.045410,33.894531
15440,4.252102,28.634653,3.011906,11.108398,164.611816,36.102295,33.912109
15480,0.641646,17.712305,1.637634,28.228760,161.621094,42.236328,33.908203
15520,-1.977611,7.848193,-0.047884,46.539307,147.399902,55.450439,33.886719
15560,-3.969586,2.422932,-1.666364,-14.129639,94.879150,43.579102,33.933594
15600,-7.383718,0.258574,-2.408567,-56.610107,30.517578,1.129150,33.900391
15640,-8.786720,1.326388,-2.552219,-52.581787,-14.495850,-45.867920,33.923828
15680,-8.279149,7.067683,-2.858677,-46.081543,-43.273926,-59.844971,33.919922
15720,-4.673482,22.505495,-3.778050,-47.393799,-72.967529,-115.661621,33.921875
15760,2.159570,33.245884,-4.228160,68.328857,-123.748779,-216.247559,33.904297
15800,6.651093,26.604370,-2.772485,-55.694580,-186.492920,-199.157715,33.902344
15840,8.010999,13.570335,1.077391,-46.783447,-155.853271,-126.922607,33.898438
15880,6.900089,3.500323,2.489970,67.291260,-112.701416,-50.262451,33.894531
15920,5.295974,-2.039860,1.312023,28.350830,-81.878662,-2.319336,33.876953
15960,4.740520,-4.165911,0.981623,6.195068,-45.349121,16.082764,33.898438
16000,4.003105,-4.797980,1.833959,42.541504,7.110596,56.488037,33.896484
16040,2.782062,-2.145205,2.489970,66.619873,28.472900,108.123779,33.917969
16080,2.054225,7.656657,4.060566,45.257568,54.290771,176.086426,33.894531
16120,4.649539,26.192566,5.018247,60.729980,115.844727,107.330322,33.904297
16160,4.319140,31.718384,4.280833,30.120850,116.180420,38.116455,33.900391
16200,0.387861,21.389797,3.002329,4.333496,124.084473,51.635742,33.953125
16240,-2.202666,10.515334,1.259350,45.593262,117.370605,62.042236,33.951172
16280,-3.543418,3.758897,-0.593762,42.846680,94.360352,48.309326,33.958984
16320,-5.133168,0.679953,-1.948880,-19.439697,52.856445,16.662598,33.962891
16360,-6.799533,0.129287,-2.791639,-55.358887,-24.841309,-16.021729,33.949219
16400,-7.163452,2.882619,-2.480393,-30.761719,-66.772461,-61.981201,33.966797
16440,-6.493075,11.161768,-2.346318,3.753662,-85.571289,-76.263428,33.962891
16480,-3.639187,27.246016,-4.165911,-94.940186,-90.057373,-154.571533,33.974609
16520,3.222595,33.705570,-3.629610,-58.807373,-160.247803,-213.775635,33.953125
16560,6.909666,22.620419,-0.172383,-69.824219,-163.818359,-181.732178,33.962891
16600,6.847417,8.590396,1.891419,24.291992,-115.112305,-88.836670,33.958984
16640,6.866570,-0.181959,1.010353,28.167725,-85.235596,-41.992188,33.982422
16680,6.019023,-5.947197,0.167594,-14.343262,-65.460205,7.812500,33.982422
16720,4.965574,-8.686164,1.608904,15.106201,15.533447,76.263428,33.978516
16760,3.902549,-5.932832,2.322376,68.908691,68.725586,172.485352,33.962891
16800,4.046201,6.373365,3.792415,93.872070,67.199707,216.339111,33.976562
16840,6.335058,27.298687,5.123591,150.146484,163.848877,125.549316,33.968750
16880,6.392519,35.405457,2.815581,116.333008,138.854980,19.653320,33.958984
16920,1.924938,24.100035,1.015141,-11.810303,133.697510,-4.180908,33.982422
16960,-1.968034,10.405201,0.430956,0.640869,124.511719,13.366699,33.966797
17000,-4.228160,1.771709,-0.665588,3.417969,106.414795,26.092529,33.972656
17040,-6.770802,-2.236184,-2.331953,-41.076660,62.835693,30.975342,33.968750
17080,-8.135497,-1.877054,-3.442862,-44.342041,-24.353027,13.336182,33.953125
17120,-7.522582,2.394202,-3.246537,-8.422852,-73.089600,-44.921875,33.957031
17160,-6.244078,12.401965,-3.318364,-2.288818,-95.214844,-52.032471,33.968750
17200,-2.049437,32.245110,-5.032612,-84.655762,-97.290039,-169.372559,33.984375
17240,6.033388,38.024712,-3.955221,-46.752930,-174.774170,-238.861084,34.001953
17280,9.878476,23.041798,0.306458,-59.600830,-165.527344,-191.955566,33.994141
17320,8.734048,6.919243,2.355895,36.560059,-112.670898,-84.014893,33.978516
17360,7.603985,-1.379060,1.259350,28.839111,-87.158203,-28.869629,33.980469
17400,5.774815,-5.899313,0.636858,-43.395996,-65.948486,18.371582,33.970703
17440,3.840300,-7.651869,1.963245,-8.972168,2.502441,74.859619,33.968750
17480,2.853889,-5.683835,2.791639,66.802979,67.291260,137.512207,33.976562
17520,2.456451,2.777274,3.351882,110.687256,70.495605,211.883545,33.960938
17560,4.912902,24.554934,3.730166,123.443604,148.712158,132.537842,33.982422
17600,6.263232,37.665581,2.054225,100.341797,132.965088,9.613037,33.982422
17640,2.284068,26.604370,1.106121,22.064209,121.307373,-29.083252,33.978516
17680,-2.049437,10.256760,0.948104,21.087646,118.255615,-0.305176,34.005859
17720,-4.036624,1.254562,0.138864,33.874512,100.250244,26.763916,33.988281
17760,-5.195418,-1.963245,-1.067814,-42.022705,74.462891,22.949219,33.986328
17800,-6.569689,-2.164358,-2.169147,-63.079834,13.977051,3.417969,33.986328
17840,-7.163452,0.330400,-2.853889,-6.652832,-52.490234,-24.414062,34.005859
17880,-7.220912,8.762778,-3.572149,-20.690918,-87.097168,-6.866455,33.998047
17920,-4.108450,27.298687,-4.922479,-104.736328,-80.841064,-122.528076,33.988281
17960,2.877831,36.420597,-4.343082,-32.073975,-155.944824,-177.734375,33.994141
18000,7.508216,26.408045,-1.177947,-58.471680,-170.928955,-170.410156,33.996094
18040,7.465121,10.558430,0.861913,9.033203,-146.301270,-100.006104,34.019531
18080,6.813898,0.512359,0.641646,34.240723,-122.497559,-62.316895,34.003906
18120,5.942409,-5.473145,0.349553,-37.414551,-85.388184,-21.942139,33.982422
18160,4.290410,-8.714894,1.221043,-28.594971,-35.827637,45.410156,34.080078
18200,3.069367,-7.972692,2.365471,40.924072,31.677246,127.929688,34.078125
18240,2.968810,-0.512359,3.624821,83.618164,46.600342,218.444824,34.076172
18280,6.009446,20.810402,4.740520,158.966064,132.263184,152.496338,34.062500
18320,7.872135,36.626499,2.959233,102.600098,119.995117,24.719238,34.083984
18360,3.998317,28.840553,2.331953,-1.495361,109.222412,-15.991211,34.078125
18400,-0.895431,14.111424,2.442086,17.883301,120.025635,12.329102,34.072266
18440,-3.576937,4.750096,0.995988,74.707031,119.873047,24.322510,34.074219
18480,-5.118803,-0.153229,-1.489193,34.851074,99.822998,22.003174,34.056641
18520,-6.828263,-1.647211,-3.332729,-34.027100,21.423340,6.195068,34.091797
18560,-7.422025,-0.191536,-3.265691,-50.109863,-60.028076,-38.085938,34.091797
18600,-7.177817,4.989516,-2.221819,11.260986,-94.146729,-36.712646,34.083984
18640,-4.367024,22.366632,-3.217807,-92.712402,-81.420898,-91.491699,34.085938
18680,1.838747,35.812469,-4.448427,-43.243408,-135.589600,-202.331543,34.097656
18720,6.540959,28.261156,-2.054225,-66.589355,-171.081543,-199.462891,34.101562
18760,7.048530,12.574347,1.216254,-4.150391,-134.460449,-101.898193,34.099609
18800,6.224925,2.987964,1.422156,64.239502,-100.402832,-31.341553,34.113281
18840,5.592855,-2.260126,0.430956,-6.042480,-76.141357,12.176514,34.109375
18880,4.127604,-5.559336,0.818817,-62.652588,-45.562744,35.919189,34.095703
18920,2.308010,-6.880936,2.250550,7.720947,29.083252,87.066650,34.103516
18960,1.221043,-4.390966,2.959233,61.828613,58.471680,160.797119,34.097656
19000,3.634398,9.691729,3.926491,173.645020,80.413818,220.764160,34.080078
19040,8.240842,33.035194,3.112462,139.068604,162.231445,45.257568,34.097656
19080,7.058106,34.811691,0.794875,15.930176,104.248047,-25.360107,34.103516
19120,1.297657,19.096153,1.546654,0.793457,100.006104,-9.918213,34.103516
19160,-2.844312,5.942409,1.814805,60.516357,109.466553,19.958496,34.119141
19200,-4.525041,-0.148441,0.316035,25.573730,101.440430,35.766602,34.107422
19240,-6.244078,-1.642422,-1.216254,-59.844971,54.870605,19.866943,34.095703
19280,-7.469909,-0.057461,-1.948880,-54.473877,-17.669678,-10.742188,34.105469
19320,-7.426814,4.395754,-2.217031,-4.150391,-60.302734,-63.232422,34.105469
19360,-6.962338,14.791378,-3.165135,-67.901611,-74.523926,-55.053711,34.107422
19400,-1.489193,31.378407,-4.678270,-61.126709,-92.803955,-166.076660,34.103516
19440,4.553771,31.057585,-3.955221,-28.167725,-173.065186,-191.467285,34.126953
19480,5.975927,17.511190,-0.679953,-51.788330,-165.893555,-114.532471,34.111328
19520,5.367800,6.512228,1.417367,36.468506,-110.687256,-37.322998,34.089844
19560,5.238513,-0.320823,0.804452,31.097412,-89.904785,16.571045,34.107422
19600,4.932055,-4.218584,0.713472,-39.520264,-55.786133,38.360596,34.107422
19640,4.094085,-5.635951,2.207454,2.990723,31.005859,66.528320,34.123047
19680,2.595315,-2.968810,2.710236,50.750732,46.417236,131.866455,34.109375
19720,2.834735,9.648633,4.089296,105.224609,69.213867,180.847168,34.121094
19760,6.028600,30.918720,4.347870,110.900879,150.756836,38.970947,34.082031
19800,5.185841,32.489319,2.504335,65.307617,110.931396,-43.792725,34.093750
19840,0.517148,18.301277,1.915361,6.683350,125.732422,-29.693604,34.103516
19880,-2.734178,6.210559,1.264138,51.116943,129.943848,-12.725830,34.105469
19920,-4.711789,-0.703895,-0.225055,21.759033,120.697021,5.096436,34.101562
19960,-6.220136,-3.294421,-1.747767,-29.968262,75.347900,16.418457,34.119141
20000,-6.402095,-1.920150,-2.657564,-35.797119,-3.479004,5.645752,34.113281
20040,-6.737284,3.026271,-2.829947,9.735107,-67.535400,-24.780273,34.126953
20080,-6.239290,16.764200,-3.687071,-71.533203,-97.625732,-13.977051,34.113281
20120,-0.976834,34.031181,-4.228160,-58.074951,-108.947754,-154.602051,34.121094
20160,4.663905,31.426292,-2.700660,-44.952393,-161.376953,-173.675537,34.146484
20200,5.995081,15.203181,0.186748,-29.693604,-134.674072,-100.708008,34.134766
20240,5.396531,3.562572,0.804452,56.701660,-100.341797,-24.017334,34.148438
20280,5.310339,-1.685518,0.019154,-6.896973,-76.965332,12.115479,34.136719
20320,4.132392,-4.563348,0.536301,-98.846436,-47.302246,22.766113,34.138672
20360,2.461239,-5.702989,2.154782,5.981445,15.319824,70.465088,34.152344
20400,1.474828,-2.738967,3.102885,75.073242,47.637939,126.525879,34.179688
20440,1.800440,8.317456,4.022259,134.338379,95.367432,188.903809,34.160156
20480,5.784391,28.510155,2.944868,122.375488,158.172607,65.948486,34.150391
20520,5.698200,32.877178,1.115698,49.560547,108.764648,-12.207031,34.156250
20560,0.995988,19.895817,1.493982,-17.700195,106.445312,-14.587402,34.156250
20600,-2.705448,6.574478,1.920150,31.768799,114.288330,16.540527,34.146484
20640,-4.228160,-0.057461,0.521936,20.080566,121.582031,40.466309,34.166016
20680,-5.750873,-1.680730,-1.738190,-23.437500,61.828613,26.184082,34.166016
20720,-6.497863,-0.694318,-2.810793,-30.151367,-22.735596,-2.014160,34.210938
20760,-6.110003,3.198653,-2.360683,-10.314941,-57.769775,-24.230957,34.191406
20800,-5.295974,14.690822,-2.609680,-34.362793,-56.915283,-20.812988,34.205078
20840,-0.004788,30.324959,-4.199430,-47.088623,-91.308594,-115.142822,34.210938
20880,5.406107,30.521284,-2.992752,-49.896240,-156.158447,-145.477295,34.175781
20920,6.138733,17.142485,0.311246,-56.732178,-143.615723,-90.576172,34.191406
20960,4.946421,6.545747,1.829170,15.594482,-92.529297,-25.421143,34.197266
21000,4.984728,1.106121,0.828394,15.014648,-75.225830,-6.713867,34.205078
21040,4.410120,-2.810793,0.263362,-44.494629,-59.906006,0.946045,34.197266
21080,3.002329,-5.540183,1.288081,-1.159668,-18.920898,30.364990,34.224609
21120,1.556231,-5.085284,2.671929,32.775879,21.942139,114.868164,34.205078
21160,2.422932,5.061342,4.644751,83.465576,68.328857,202.850342,34.208984
21200,6.847417,26.642677,5.051765,109.436035,159.240723,81.756592,34.214844
21240,7.560889,33.466152,2.983175,63.171387,120.574951,-5.035400,34.214844
21280,3.007117,21.399374,1.929727,5.157471,114.929199,-11.169434,34.228516
21320,-1.249773,8.030152,1.470040,40.924072,120.178223,10.437012,34.208984
21360,-4.103662,0.617704,0.019154,29.113770,113.250732,25.146484,34.205078
21400,-6.636727,-1.766921,-1.958457,-14.831543,46.081543,22.918701,34.218750
21440,-7.340622,-0.804452,-2.748544,-27.008057,-11.627197,5.249023,34.214844
21480,-6.339846,4.606444,-3.222595,14.862061,-63.659668,-25.421143,34.212891
21520,-4.055778,18.358738,-4.347870,-67.016602,-95.001221,-57.830811,34.214844
21560,0.588974,31.976957,-4.860229,-75.927734,-117.431641,-159.423828,34.214844
21600,5.693412,30.588322,-2.456451,-80.688477,-160.308838,-161.895752,34.212891
21640,7.402872,17.501614,0.507571,-29.327393,-133.880615,-114.379883,34.189453
21680,7.201759,4.831499,0.761356,1.647949,-104.522705,-64.147949,34.248047
21720,6.330269,-3.232172,0.100556,-19.531250,-92.864990,-20.324707,34.230469
21760,4.424485,-7.273585,0.723049,-33.660889,-56.793213,36.956787,34.208984
21800,3.050213,-7.498640,1.987187,28.289795,14.312744,99.945068,34.228516
21840,2.260126,-2.375048,2.762909,87.554932,39.489746,154.602051,34.224609
21880,4.295198,13.426683,4.036624,123.992920,104.644775,180.755615,34.208984
21920,7.963115,32.570721,3.035848,107.269287,140.380859,58.502197,34.236328
21960,6.766014,31.656136,1.307234,61.981201,101.806641,-12.725830,34.238281
22000,1.584962,16.606182,1.101333,20.690918,88.958740,-3.448486,34.228516
22040,-2.183512,4.836287,1.173159,41.320801,93.688965,25.543213,34.251953
22080,-4.946421,-0.392649,-0.148441,15.106201,80.047607,33.569336,34.255859
22120,-7.015011,-1.647211,-1.829170,-13.122559,31.921387,18.981934,34.232422
22160,-7.225701,0.086191,-2.772485,-3.082275,-39.886475,-11.230469,34.240234
22200,-5.889736,6.512228,-2.930503,7.598877,-86.029053,-49.072266,34.222656
22240,-3.131616,21.112070,-4.108450,-69.732666,-95.916748,-101.715088,34.240234
22280,1.149217,33.068714,-5.631162,-17.761230,-126.403809,-173.858643,34.240234
22320,5.458780,29.281086,-4.165911,-88.165283,-152.770996,-171.844482,34.220703
22360,6.962338,14.824897,-0.790087,-17.852783,-135.131836,-121.459961,34.232422
22400,6.296751,2.274492,0.497994,13.427734,-100.799561,-48.767090,34.224609
22440,5.540183,-3.763685,0.263362,-23.040771,-78.552246,-0.030518,34.232422
22480,4.429273,-5.779603,0.905008,-23.925781,-46.813965,23.620605,34.234375
22520,3.457227,-5.137957,2.183512,29.571533,11.688232,69.824219,34.244141
22560,2.954445,1.000776,3.217807,75.653076,48.461914,119.628906,34.230469
22600,3.385401,14.767436,2.973598,92.376709,122.650146,127.227783,34.224609
22640,4.539406,27.945122,0.440533,74.707031,87.951660,58.990479,34.238281
22680,2.456451,25.857378,0.196325,-2.929688,68.420410,38.024902,34.250000
22720,-1.900996,15.227123,0.761356,26.794434,46.813965,85.052490,34.312500
22760,-4.127604,7.479486,0.124498,23.986816,55.847168,98.785400,34.300781
22800,-4.764462,4.390966,-0.991199,15.716553,47.698975,30.639648,34.310547
22840,-5.439626,2.571373,-1.340753,43.457031,14.099121,-28.228760,34.298828
22880,-4.271256,3.442862,-0.167594,-33.721924,-30.212402,-24.719238,34.306641
22920,-1.235408,10.864887,2.317587,-19.531250,-17.578125,-108.856201,34.306641
22960,1.168370,19.656397,1.896208,-40.802002,21.575928,-115.966797,34.341797
23000,1.843535,23.319525,-1.594538,43.426514,3.143311,-112.274170,34.318359
23040,0.483629,19.081787,-4.955997,-14.862061,-49.591064,-38.146973,34.324219
23080,1.240196,13.115437,-5.592855,-1.770020,-96.252441,-9.460449,34.324219
23120,3.892972,6.411672,-3.658340,-8.361816,-126.678467,-10.833740,34.306641
23160,5.329493,0.641646,-0.751779,-93.994141,-92.132568,-28.320312,34.300781
23200,4.299986,-3.768473,1.527501,-33.691406,-40.710449,-23.223877,34.320312
23240,2.892196,-4.659117,2.571373,29.022217,27.069092,49.957275,34.326172
23280,1.532289,0.296881,2.600103,18.127441,48.522949,86.822510,34.341797
23320,2.398990,12.674904,2.834735,46.569824,96.588135,119.049072,34.318359
23360,5.875371,28.213272,2.178724,76.354980,126.281738,48.309326,34.335938
23400,4.955997,28.174965,1.321599,32.012939,103.363037,-2.197266,34.330078
23440,0.354342,16.218323,1.685518,6.622314,101.226807,4.028320,34.339844
23480,-3.356671,5.324705,1.489193,64.819336,111.663818,25.848389,34.320312
23520,-5.386954,0.100556,-0.296881,33.843994,103.027344,39.184570,34.324219
23560,-6.536170,-1.173159,-2.250550,-11.291504,41.015625,30.700684,34.333984
23600,-6.057330,0.603339,-2.987964,-28.198242,-23.529053,-5.859375,34.333984
23640,-5.257667,6.756437,-3.323152,7.232666,-86.639404,-27.862549,34.322266
23680,-2.868254,22.582111,-4.204218,-72.265625,-82.336426,-81.665039,34.316406
23720,2.470816,33.830070,-5.109226,-43.762207,-133.117676,-153.320312,34.330078
23760,6.536170,27.269957,-2.719813,-81.359863,-148.651123,-149.505615,34.330078
23800,6.665458,12.832921,-0.210690,-30.639648,-115.417480,-82.946777,34.316406
23840,5.798757,2.614468,-0.263362,30.273438,-90.270996,-35.339355,34.318359
23880,5.420473,-2.949656,-1.053449,-32.440186,-89.538574,-0.854492,34.339844
23920,4.161122,-6.004658,0.081403,-71.441650,-68.359375,25.878906,34.322266
23960,2.944868,-6.555324,2.217031,34.606934,-3.417969,90.332031,34.320312
24000,2.571373,-1.881842,2.973598,76.934814,26.275635,152.221680,34.341797
24040,3.576937,11.951855,4.319140,51.361084,87.097168,159.637451,34.314453
24080,7.096414,29.822176,4.295198,57.861328,144.317627,54.962158,34.326172
24120,7.201759,31.464600,3.380613,67.565918,130.126953,-21.972656,34.330078
24160,2.504335,18.148048,2.489970,29.876709,132.110596,-17.211914,34.320312
24200,-1.929727,6.167464,1.460463,63.751221,142.486572,12.847900,34.314453
24240,-4.745308,0.421380,-0.545878,33.111572,127.380371,28.564453,34.341797
24280,-6.588843,-1.063026,-2.226608,-28.167725,46.203613,23.864746,34.330078
24320,-7.168240,0.445322,-2.145205,-48.400879,-11.566162,-25.390625,34.330078
24360,-7.177817,4.668694,-2.078167,6.439209,-64.514160,-57.708740,34.345703
24400,-5.458780,19.220652,-2.954445,-101.654053,-65.612793,-47.363281,34.337891
24440,1.714248,34.888306,-4.204218,-11.383057,-118.927002,-188.140869,34.345703
24480,5.803545,28.026525,-3.165135,-86.517334,-184.204102,-193.420410,34.359375
24520,5.884948,12.387600,0.569820,-70.220947,-161.010742,-93.414307,34.330078
24560,5.267244,2.987964,1.771709,58.532715,-92.895508,-6.683350,34.332031
24600,5.190629,-0.924162,-0.033519,4.364014,-67.138672,13.824463,34.332031
24640,5.085284,-3.184288,0.186748,-46.783447,-50.476074,8.911133,34.337891
24680,4.070143,-4.165911,2.264915,22.430420,19.256592,54.443359,34.386719
24720,2.815581,-0.531513,3.035848,57.006836,53.527832,102.203369,34.404297
24760,2.533065,10.582372,4.467580,23.071289,80.718994,128.509521,34.408203
24800,3.969586,23.688232,5.664681,56.365967,151.519775,61.950684,34.386719
24840,2.964022,25.895685,4.774038,63.537598,151.916504,42.144775,34.406250
24880,0.521936,18.363527,2.691083,22.827148,134.521484,61.706543,34.406250
24920,-2.001553,8.983045,0.703895,49.682617,92.834473,74.096680,34.392578
24960,-4.730943,3.438074,-0.287304,15.594482,66.680908,55.114746,34.414062
25000,-6.780379,1.752556,-0.823605,1.892090,27.801514,14.312744,34.398438
25040,-6.665458,2.422932,-1.249773,-46.508789,-12.054443,-38.024902,34.419922
25080,-6.301539,6.631939,-1.584962,-53.619385,-59.509277,-58.837891,34.392578
25120,-4.146757,19.191921,-1.474828,-72.570801,-54.809570,-87.493896,34.404297
25160,0.344765,30.128633,-2.240973,25.970459,-94.329834,-163.604736,34.392578
25200,3.643975,26.269180,-1.886631,-53.527832,-142.456055,-151.702881,34.392578
25240,5.865794,14.676456,0.660800,-21.820068,-133.148193,-87.432861,34.404297
25280,6.962338,4.448427,1.493982,43.914795,-104.339600,-39.398193,34.417969
25320,6.339846,-1.642422,0.790087,-11.322021,-75.988770,-17.120361,34.384766
25360,4.740520,-4.582502,1.225831,-19.927979,-34.942627,10.742188,34.412109
25400,3.514688,-4.946421,2.149993,28.686523,21.575928,70.648193,34.400391
25440,2.202666,-1.460463,2.557007,77.423096,49.804688,121.337891,34.412109
25480,2.183512,9.150639,2.973598,120.849609,79.101562,173.156738,34.427734
25520,5.679047,27.011383,2.959233,77.758789,119.384766,72.326660,34.410156
25560,5.343858,30.813375,3.102885,38.909912,105.407715,0.762939,34.443359
25600,1.125275,20.384233,3.294421,2.227783,114.501953,0.854492,34.417969
25640,-2.264915,9.150639,2.284068,33.111572,111.938477,3.326416,34.408203
25680,-4.841076,1.623269,0.239420,41.992188,98.266602,3.051758,34.412109
25720,-6.636727,-1.958457,-1.264138,-17.028809,62.835693,-2.227783,34.414062
25760,-6.957550,-1.872266,-1.953669,-40.161133,2.288818,-10.253906,34.416016
25800,-6.689400,3.567361,-2.284068,8.331299,-60.607910,-23.406982,34.443359
25840,-4.601655,19.627666,-3.007117,-85.052490,-54.382324,-61.462402,34.408203
25880,0.718261,34.237083,-4.137180,-37.780762,-116.027832,-171.600342,34.423828
25920,5.032612,29.266722,-2.336741,-50.109863,-161.590576,-178.680420,34.414062
25960,5.904101,14.489709,0.469264,-5.004883,-143.463135,-103.698730,34.404297
26000,5.956774,4.022259,1.010353,48.400879,-113.983154,-40.069580,34.414062
26040,6.009446,-1.924938,0.239420,-7.812500,-88.806152,0.488281,34.433594
26080,4.697424,-5.396531,0.914585,-42.480469,-44.647217,33.660889,34.423828
26120,3.308787,-5.928043,2.542642,17.059326,38.208008,78.643799,34.419922
26160,2.844312,-1.364695,2.748544,58.532715,54.809570,116.058350,34.410156
26200,2.394202,10.395624,3.706224,95.428467,53.436279,145.416260,34.408203
26240,3.811569,27.820623,3.701436,85.388184,154.724121,56.488037,34.419922
26280,4.338294,31.756691,2.073379,66.162109,129.272461,-25.512695,34.404297
26320,0.545878,18.971655,1.685518,-4.486084,129.425049,-6.774902,34.417969
26360,-2.590526,7.283162,1.436521,16.723633,133.972168,26.916504,34.443359
26400,-4.620809,0.972046,0.129287,9.704590,111.724854,33.416748,34.416016
26440,-6.957550,-1.283292,-1.441309,-23.132324,54.962158,24.383545,34.427734
26480,-7.412448,-0.344765,-2.466028,-36.193848,-11.718750,-5.126953,34.433594
26520,-7.038953,3.840300,-2.987964,15.075684,-68.298340,-43.395996,34.417969
26560,-6.306327,16.529568,-3.864242,-50.750732,-104.583740,-45.898438,34.406250
26600,-1.431733,32.690430,-4.515464,-68.115234,-122.772217,-158.691406,34.437500
26640,4.558560,30.822952,-2.494758,-56.274414,-167.602539,-178.283691,34.431641
26680,5.999869,15.456966,0.651223,-12.145996,-140.716553,-97.503662,34.466797
26720,4.951209,4.132392,0.842759,49.346924,-107.147217,-18.646240,34.478516
26760,5.094861,-1.058237,-0.474052,15.380859,-97.290039,20.599365,34.464844
26800,4.922479,-3.821146,0.196325,-52.124023,-70.037842,22.064209,34.458984
26840,3.586514,-5.410896,2.250550,21.606445,5.401611,58.135986,34.474609
26880,2.121263,-3.035848,3.007117,74.249268,33.508301,117.187500,34.468750
26920,2.489970,8.604761,4.161122,128.814697,83.709717,191.101074,34.470703
26960,6.794744,29.716831,3.232172,127.929688,175.750732,46.478271,34.451172
27000,7.268796,33.356018,0.919373,66.986084,120.483398,-35.797119,34.453125
27040,2.054225,19.249382,0.967257,-15.289307,122.802734,-21.759033,34.457031
27080,-2.202666,6.737284,1.048660,27.160645,115.875244,14.587402,34.474609
27120,-3.869030,0.598550,-0.105345,7.904053,104.675293,39.520264,34.468750
27160,-5.305551,-1.527501,-1.374272,-47.210693,73.242188,23.742676,34.474609
27200,-6.799533,-1.149217,-2.231396,-36.468506,8.819580,14.434814,34.457031
27240,-7.431602,2.351106,-2.772485,1.342773,-47.088623,-10.711670,34.476562
27280,-6.957550,12.871228,-3.806781,-55.725098,-72.601318,-13.153076,34.468750
27320,-2.384625,30.933086,-5.094861,-68.298340,-83.770752,-127.929688,34.476562
27360,4.826711,35.209129,-4.539406,-17.761230,-161.163330,-175.170898,34.472656
27400,7.982268,20.872650,-1.455675,-36.499023,-168.762207,-135.620117,34.480469
27440,7.316680,5.817910,0.435745,31.097412,-145.812988,-60.699463,34.505859
27480,6.703765,-2.360683,0.646434,9.063721,-118.408203,-8.361816,34.494141
27520,5.497087,-6.028600,1.173159,-63.110352,-79.223633,36.376953,34.492188
27560,3.610456,-6.794744,2.758120,0.396729,10.681152,76.263428,34.492188
27600,2.087744,-3.514688,3.246537,61.248779,47.546387,139.587402,34.490234
27640,3.040636,9.026140,3.490746,120.727539,93.444824,184.661865,34.492188
27680,6.789956,29.017725,2.877831,52.795410,150.695801,50.933838,34.496094
27720,7.584831,33.356018,2.959233,0.946045,132.781982,-19.744873,34.490234
27760,3.102885,20.111294,3.327940,8.087158,135.711670,-22.735596,34.490234
27800,-1.221043,7.149086,2.308010,21.026611,143.249512,5.096436,34.482422
27840,-3.471592,0.636858,0.205901,25.512695,139.068604,18.646240,34.503906
27880,-5.568913,-1.881842,-2.001553,-7.598877,95.642090,18.096924,34.492188
27920,-7.388506,-1.340753,-3.768473,-38.970947,-5.889893,6.805420,34.501953
27960,-7.800309,2.188300,-3.921702,7.354736,-81.573486,-41.076660,34.492188
28000,-6.813898,12.469003,-3.663129,-43.182373,-101.348877,-30.822754,34.488281
28040,-1.699883,30.851683,-4.323928,-65.673828,-135.040283,-134.552002,34.500000
28080,5.722142,34.897884,-2.221819,-54.321289,-176.605225,-179.473877,34.482422
28120,8.092402,19.790472,1.077391,1.190186,-156.097412,-118.774414,34.486328
28160,5.904101,5.813122,1.551443,62.683105,-113.403320,-39.703369,34.509766
28200,5.090073,-0.598550,0.330400,20.690918,-91.705322,-4.241943,34.492188
28240,4.611232,-4.395754,0.167594,-37.994385,-84.625244,13.946533,34.509766
28280,3.203442,-7.048530,2.092532,-15.899658,-27.740479,61.218262,34.500000
28320,2.001553,-5.497087,3.653552,51.483154,31.799316,116.210938,34.496094
28360,2.432509,4.707001,4.620809,130.462646,93.200684,175.384521,34.500000
28400,6.794744,26.752810,2.810793,140.289307,164.276123,85.327148,34.498047
28440,8.456321,35.515587,0.009577,99.029541,100.311279,-24.322510,34.507812
28480,3.308787,22.788012,0.263362,2.441406,95.153809,-28.076172,34.511719
28520,-1.407791,9.002198,1.388637,31.127930,103.149414,-4.241943,34.494141
28560,-3.763685,0.986411,0.876278,42.968750,95.611572,15.991211,34.529297
28600,-5.430049,-2.619257,-0.407014,-16.296387,68.908691,31.646729,34.513672
28640,-6.488286,-2.557007,-1.493982,-55.175781,17.181396,35.461426,34.593750
28680,-6.880936,1.742979,-2.480393,-3.540039,-62.072754,-12.817383,34.562500
28720,-6.655881,11.822568,-3.629610,-38.879395,-96.740723,-24.169922,34.572266
28760,-3.385401,28.519732,-5.511452,-156.097412,-90.057373,-96.069336,34.587891
28800,4.213795,35.419819,-4.223372,-116.455078,-143.371582,-183.349609,34.583984
28840,8.781932,23.606829,-0.033519,-73.852539,-135.101318,-153.503418,34.583984
28880,7.958326,8.212111,1.422156,36.651611,-86.425781,-75.927734,34.574219
28920,6.622362,-0.474052,0.119710,48.583984,-63.781738,-33.843994,34.583984
28960,5.367800,-4.625597,-0.660800,-22.308350,-74.615479,6.500244,34.583984
29000,3.667917,-6.449979,0.636858,-44.433594,-60.333252,55.480957,34.587891
29040,2.126051,-5.329493,2.691083,23.406982,-7.751465,126.068115,34.593750
29080,2.250550,1.642422,4.477157,106.536865,49.255371,195.343018,34.587891
29120,6.995857,20.532673,4.754885,78.247070,156.158447,138.244629,34.585938
29160,11.338940,34.193989,3.830723,70.831299,123.565674,45.196533,34.593750
29200,6.967127,26.422409,3.418920,100.250244,116.882324,1.159668,34.580078
29240,0.119710,11.156980,2.236184,91.400146,124.572754,10.314941,34.599609
29280,-4.151546,1.766921,0.574608,59.020996,124.359131,32.073975,34.603516
29320,-6.311116,-1.403002,-1.154005,18.005371,85.754395,44.952393,34.591797
29360,-7.469909,-1.110910,-2.609680,-14.251709,8.666992,29.998779,34.597656
29400,-7.024588,2.054225,-2.853889,-26.489258,-64.208984,-13.732910,34.595703
29440,-5.147533,11.803414,-2.456451,-12.298584,-85.571289,-34.423828,34.603516
29480,-1.115698,28.979418,-4.252102,-99.334717,-89.324951,-131.195068,34.589844
29520,5.214571,34.170048,-4.778827,-79.345703,-149.627686,-180.908203,34.583984
29560,8.983045,23.611618,-1.675941,-81.176758,-147.186279,-153.320312,34.591797
29600,8.667010,10.031705,0.349553,-28.533936,-109.008789,-90.454102,34.587891
29640,7.129933,1.561020,0.158017,-25.268555,-84.167480,-57.556152,34.572266
29680,5.410896,-2.729390,0.306458,-44.738770,-74.157715,-36.193848,34.595703
29720,3.744531,-5.262455,1.704672,-11.779785,-17.608643,-6.256104,34.578125
29760,2.466028,-5.286397,2.389413,28.717041,47.180176,47.210693,34.574219
29800,1.460463,-0.550666,2.920926,42.694092,60.668945,136.749268,34.591797
29840,4.424485,15.346833,4.122815,27.679443,136.901855,171.875000,34.597656
29880,8.810662,30.990547,4.122815,121.978760,114.715576,63.507080,34.582031
29920,5.525817,25.503036,3.476381,68.695068,82.824707,21.697998,34.576172
29960,-0.320823,12.066776,2.849100,39.001465,104.248047,47.088623,34.599609
30000,-3.715801,3.878607,1.326388,106.445312,114.196777,55.999756,34.601562
30040,-5.310339,0.416591,-1.125275,34.790039,84.655762,55.572510,34.587891
30080,-6.924031,-0.196325,-2.705448,-36.346436,19.165039,31.524658,34.597656
30120,-7.388506,1.268927,-2.628834,-18.310547,-28.503418,-6.469727,34.605469
30160,-6.133945,8.729259,-2.887407,-1.770020,-70.404053,-4.913330,34.601562
30200,-1.513135,27.710491,-4.390966,-102.508545,-59.814453,-90.637207,34.593750
30240,6.464345,36.425385,-4.697424,-49.102783,-142.089844,-168.304443,34.607422
30280,9.921572,24.938005,-1.584962,-90.393066,-163.574219,-166.900635,34.603516
30320,8.130709,9.739613,0.876278,-48.675537,-129.791260,-94.940186,34.591797
30360,6.411672,1.570596,0.842759,0.518799,-97.137451,-53.497314,34.603516
30400,5.573701,-2.557007,0.052672,-51.300049,-69.641113,-37.658691,34.591797
30440,4.362236,-5.544971,0.383072,-61.370850,-33.264160,-22.277832,34.628906
30480,2.695871,-7.115568,1.479617,32.287598,24.505615,60.302734,34.593750
30520,1.374272,-3.572149,2.561796,58.197021,51.391602,166.137695,34.607422
30560,3.711013,10.658986,4.027047,78.948975,115.661621,233.032227,34.625000
30600,9.911995,29.712044,4.936844,81.939697,160.522461,131.164551,34.609375
30640,9.500193,30.971394,5.257667,67.504883,147.308350,46.630859,34.634766
30680,2.513912,17.386692,4.074931,81.604004,161.041260,36.590576,34.636719
30720,-2.614468,6.766014,0.502782,105.773926,171.386719,38.208008,34.646484
30760,-4.850653,2.422932,-3.591303,44.403076,101.654053,19.012451,34.640625
30800,-6.660669,0.794875,-5.027823,-10.009766,10.498047,-5.126953,34.642578
30840,-7.038953,1.106121,-4.175488,-42.816162,-60.516357,-42.572021,34.619141
30880,-6.066907,5.396531,-3.141193,1.525879,-120.574951,-40.283203,34.646484
30920,-2.236184,21.116859,-3.141193,-91.430664,-101.562500,-97.930908,34.652344
30960,4.232949,33.911472,-4.438850,-76.080322,-148.895264,-199.645996,34.634766
31000,9.275137,28.265945,-1.704672,-84.777832,-170.288086,-198.272705,34.650391
31040,9.112331,13.024457,1.307234,-13.824463,-131.744385,-118.469238,34.656250
31080,7.264008,2.480393,1.383849,31.890869,-91.461182,-55.328369,34.656250
31120,6.028600,-3.308787,0.368707,-16.998291,-85.815430,-18.920898,34.634766
31160,4.204218,-6.651093,0.809240,-32.897949,-74.676514,19.104004,34.660156
31200,2.604892,-7.513005,2.638410,34.667969,2.746582,90.576172,34.632812
31240,2.260126,-3.203442,3.505111,70.068359,34.362793,144.195557,34.656250
31280,3.639187,10.625467,4.395754,91.339111,85.388184,206.604004,34.656250
31320,8.389283,31.775845,3.567361,56.945801,161.254883,80.352783,34.658203
31360,8.389283,34.064701,2.480393,75.592041,112.274170,-18.035889,34.654297
31400,2.485181,18.847157,2.078167,56.213379,115.325928,-13.427734,34.636719
31440,-2.317587,6.239290,1.168370,82.000732,110.351562,8.636475,34.630859
31480,-4.702212,0.560243,-0.325611,62.225342,98.205566,19.348145,34.650391
31520,-6.679823,-1.201889,-1.790863,-7.751465,58.441162,11.077881,34.650391
31560,-7.235278,-0.454898,-2.542642,-44.311523,-18.798828,-17.089844,34.660156
31600,-7.125144,3.246537,-2.600103,33.691406,-84.411621,-14.282227,34.646484
31640,-4.793192,17.530344,-3.821146,12.817383,-98.724365,-13.977051,34.644531
31680,2.226608,34.476505,-6.766014,-127.227783,-93.811035,-160.156250,34.640625
31720,8.561666,31.416716,-4.400543,-92.285156,-160.675049,-181.701660,34.654297
31760,8.671799,15.275007,-0.363919,-29.693604,-116.180420,-111.236572,34.650391
31800,6.421249,3.361459,0.301669,39.428711,-91.369629,-51.147461,34.656250
31840,4.984728,-2.451663,-0.478840,-35.858154,-77.453613,-14.190674,34.636719
31880,3.988740,-5.477933,0.043096,-86.090088,-62.377930,8.941650,34.617188
31920,3.040636,-6.727707,1.699883,-27.435303,-16.235352,72.906494,34.656250
31960,2.231396,-3.725378,3.184288,29.357910,13.244629,146.392822,34.621094
32000,4.491522,10.026917,4.707001,150.115967,66.040039,203.552246,34.640625
32040,8.135497,30.631416,3.203442,188.354492,132.324219,53.375244,34.636719
32080,6.785168,32.829292,0.292093,95.977783,104.125977,-25.665283,34.640625
32120,1.484405,19.359514,0.138864,14.587402,87.310791,-29.052734,34.632812
32160,-2.614468,6.603208,1.302446,47.821045,100.128174,-6.011963,34.630859
32200,-4.529830,-0.387861,0.842759,11.352539,107.330322,12.176514,34.636719
32240,-6.224925,-2.638410,-0.790087,-3.875732,64.147949,21.057129,34.646484
32280,-6.809110,-1.225831,-2.451663,-43.487549,-27.618408,1.922607,34.660156
32320,-6.430826,2.700660,-2.743755,-29.693604,-99.792480,-47.882080,34.630859
32360,-6.588843,11.903971,-3.203442,-13.031006,-114.929199,-33.081055,34.656250
32400,-3.165135,29.429527,-6.507440,-133.514404,-92.102051,-95.764160,34.634766
32440,5.492299,36.794090,-6.521805,-89.752197,-173.400879,-177.490234,34.634766
32480,9.016563,22.189461,-1.565808,-48.553467,-151.824951,-148.986816,34.636719
32520,7.809886,6.014235,1.201889,12.145996,-91.003418,-66.345215,34.666016
32560,6.823475,-1.953669,0.756568,12.634277,-62.500000,-23.376465,34.626953
32600,5.204995,-5.267244,0.981623,-19.958496,-27.252197,-1.861572,34.646484
32640,3.418920,-6.382942,2.528277,-8.178711,53.527832,39.520264,34.656250
32680,1.833959,-4.745308,2.825158,34.851074,73.852539,122.924805,34.660156
32720,1.513135,4.323928,3.193865,78.430176,77.575684,230.255127,34.656250
32760,5.444415,27.801470,2.887407,25.390625,160.308838,116.638184,34.662109
32800,6.780379,37.292088,2.020706,49.316406,98.571777,4.028320,34.658203
32840,2.193089,23.606829,2.255338,51.544189,112.396240,-12.725830,34.667969
32880,-1.900996,8.528147,1.546654,41.442871,118.469238,1.617432,34.679688
32920,-4.601655,0.119710,0.177171,16.937256,105.743408,22.125244,34.658203
32960,-6.952762,-2.825158,-1.058237,-1.678467,72.814941,29.724121,34.673828
33000,-7.527370,-2.197877,-2.398990,-6.103516,2.716064,29.327393,34.666016
33040,-6.651093,1.944092,-3.150769,7.843018,-59.051514,-18.493652,34.685547
33080,-5.937620,12.401965,-3.945644,-31.280518,-102.264404,-23.468018,34.669922
33120,-2.489970,30.459034,-4.903325,-137.542725,-100.616455,-121.124268,34.664062
33160,4.903325,36.094986,-3.308787,-58.074951,-147.644043,-184.692383,34.666016
33200,8.638280,23.199814,-0.225055,-40.466309,-144.287109,-161.651611,34.677734
33240,7.484274,8.169016,0.785298,22.399902,-100.280762,-91.308594,34.679688
33280,6.871359,-0.454898,-0.158017,27.954102,-86.395264,-63.415527,34.689453
33320,5.492299,-5.750873,-0.100556,-39.581299,-85.815430,-21.240234,34.687500
33360,3.390190,-8.518570,1.829170,-18.157959,-27.435303,63.812256,34.714844
33400,1.987187,-6.521805,2.868254,45.227051,24.322510,140.686035,34.687500
33440,1.742979,2.547431,3.758897,67.718506,39.764404,224.639893,34.695312
33480,5.300763,25.005043,4.644751,64.239502,126.861572,129.974365,34.689453
33520,7.489063,38.139633,4.108450,85.906982,110.961914,-8.483887,34.695312
33560,3.816358,26.604370,3.356671,35.919189,110.290527,-42.572021,34.695312
33600,-0.976834,9.696517,2.561796,63.598633,109.283447,-18.951416,34.695312
33640,-4.156334,0.014365,1.201889,56.915283,122.985840,8.850098,34.697266
33680,-5.688623,-3.246537,-1.149217,0.030518,86.151123,31.921387,34.701172
33720,-6.512228,-2.475605,-2.777274,-59.356689,-7.507324,20.599365,34.703125
33760,-6.766014,0.483629,-2.475605,-27.618408,-72.265625,-31.921387,34.708984
33800,-7.134721,8.681376,-2.298434,40.466309,-122.161865,0.335693,34.697266
33840,-3.845088,29.917944,-4.146757,-159.515381,-63.751221,-125.305176,34.699219
33880,3.414132,37.861904,-4.199430,-67.626953,-140.991211,-212.188721,34.714844
33920,7.125144,23.496695,-0.584185,-44.616699,-134.674072,-171.691895,34.703125
33960,6.143522,7.718906,1.110910,36.102295,-93.597412,-81.054688,34.708984
34000,5.535394,-0.421380,0.114922,60.180664,-87.829590,-24.658203,34.720703
34040,4.960786,-4.788404,-0.253785,-38.024902,-80.139160,23.193359,34.730469
34080,3.634398,-6.928820,1.345541,-48.248291,-34.301758,59.509277,34.714844
34120,2.384625,-6.282385,2.825158,45.898438,29.907227,118.408203,34.728516
34160,2.030283,0.402226,3.744531,113.403320,43.243408,214.996338,34.710938
34200,5.722142,22.778435,4.204218,103.332520,147.735596,122.131348,34.705078
34240,7.848193,37.770927,2.116474,75.164795,102.050781,-5.035400,34.695312
34280,3.696647,27.212496,1.632846,4.547119,78.521729,-31.158447,34.722656
34320,-1.814805,10.769119,2.111686,35.552979,88.989258,10.101318,34.744141
34360,-4.898537,1.910573,0.885855,44.830322,89.477539,50.598145,34.720703
34400,-5.932832,-1.091756,-0.703895,-2.105713,58.593750,46.112061,34.714844
34440,-6.598420,-1.312023,-0.986411,-27.832031,24.536133,17.639160,34.708984
34480,-6.612785,0.909797,-0.909797,2.044678,-27.557373,-31.982422,34.703125
34520,-6.722919,7.551312,-1.594538,15.747070,-88.989258,-37.292480,34.724609
34560,-3.845088,24.712950,-3.045424,-108.398438,-61.553955,-116.241455,34.716797
34600,1.163582,35.338417,-4.908113,-53.405762,-135.314941,-181.518555,34.759766
34640,5.669470,26.719292,-2.762909,-76.049805,-159.881592,-157.470703,34.732422
34680,6.114791,11.228806,-0.057461,20.385742,-120.178223,-76.171875,34.738281
34720,5.635951,1.417367,-0.502782,46.813965,-117.431641,-21.179199,34.742188
34760,5.286397,-3.581726,-0.517148,-36.468506,-99.822998,10.925293,34.742188
34800,3.605668,-6.387730,1.594538,-36.926270,-42.175293,40.863037,34.726562
34840,2.408567,-6.454768,3.222595,70.922852,34.759521,106.170654,34.757812
34880,2.217031,-0.957681,3.682282,91.827393,69.335938,156.707764,34.744141
34920,4.223372,16.596605,3.596091,101.928711,153.594971,141.876221,34.765625
34960,7.206547,35.175610,0.876278,94.909668,136.962891,9.613037,34.753906
35000,4.865018,30.971394,0.186748,55.877686,110.839844,-46.112061,34.748047
35040,-0.191536,14.796166,1.048660,42.663574,113.098145,-27.069092,34.767578
35080,-3.562572,3.418920,1.000776,47.363281,109.771729,1.983643,34.761719
35120,-5.114015,-1.345541,-0.019154,14.282227,95.336914,21.881104,34.765625
35160,-6.224925,-2.164358,-1.130063,-30.364990,47.760010,19.683838,34.767578
35200,-6.449979,-0.411803,-1.953669,-58.715820,-34.210205,-11.352539,34.765625
35240,-6.789956,4.414908,-1.857901,19.989014,-107.055664,-48.370361,34.750000
35280,-7.139510,18.363527,-3.189077,-88.012695,-91.278076,-53.955078,34.755859
35320,-2.925714,32.910698,-5.363012,-88.928223,-115.692139,-157.684326,34.765625
35360,3.797204,30.478188,-3.931279,-56.610107,-157.440186,-171.691895,34.763672
35400,6.076484,15.600618,-0.770933,-15.930176,-133.819580,-94.848633,34.765625
35440,5.497087,4.304775,0.057461,39.337158,-88.043213,-30.822754,34.761719
35480,5.257667,-1.546654,-0.521936,3.753662,-83.282471,18.493652,34.724609
35520,4.185065,-4.817134,0.770933,-51.971436,-47.393799,44.097900,34.765625
35560,3.088520,-6.124368,2.901772,31.280518,34.271240,80.047607,34.775391
35600,2.470816,-3.792415,3.136404,87.615967,58.013916,126.953125,34.771484
35640,2.585738,8.202535,3.830723,89.172363,96.801758,182.220459,34.755859
35680,5.420473,30.530861,2.466028,45.074463,172.241211,69.335938,34.767578
35720,5.631162,35.841198,0.933739,48.461914,118.682861,-29.663086,34.779297
35760,1.096544,20.800825,1.541866,16.174316,128.387451,-27.343750,34.791016
35800,-2.758120,7.062895,1.589750,38.360596,135.528564,-1.190186,34.781250
35840,-5.142745,0.296881,0.277727,23.681641,128.021240,24.597168,34.781250
35880,-6.574478,-1.599327,-1.484405,-27.191162,69.549561,28.564453,34.787109
35920,-6.804321,-0.684742,-2.336741,-63.354492,-8.117676,-1.007080,34.779297
35960,-6.646304,2.140416,-2.432509,-10.620117,-66.711426,-56.610107,34.771484
36000,-6.866570,11.683704,-3.260903,2.838135,-121.551514,-41.931152,34.773438
36040,-4.668694,29.003359,-4.970363,-76.934814,-97.717285,-132.019043,34.791016
36080,1.781286,33.777397,-5.018247,-41.137695,-163.024902,-167.938232,34.771484
36120,5.880159,20.144814,-1.015141,-13.702393,-150.329590,-120.544434,34.802734
36160,5.410896,6.224925,1.278504,45.471191,-110.260010,-36.621094,34.751953
36200,5.382165,0.110133,0.890643,21.179199,-90.881348,5.065918,34.771484
36240,5.118803,-2.916138,1.326388,-39.276123,-49.468994,10.375977,34.806641
36280,3.572149,-5.430049,2.590526,-3.875732,17.456055,48.706055,34.785156
36320,2.255338,-4.841076,3.107674,31.829834,57.708740,127.532959,34.781250
36360,2.585738,3.313575,3.581726,76.141357,110.961914,207.824707,34.802734
36400,6.162675,23.094469,2.499547,67.993164,172.943115,133.331299,34.787109
36440,7.733272,34.931404,1.154005,37.963867,130.462646,44.830322,34.796875
36480,2.978387,25.708939,1.474828,17.608643,98.754883,-3.936768,34.800781
36520,-2.217031,10.280702,2.250550,13.702393,125.518799,1.495361,34.814453
36560,-4.970363,1.005565,1.230620,20.965576,147.338867,14.465332,34.833984
36600,-6.459556,-2.063802,-1.704672,59.661865,63.934326,14.801025,34.826172
36640,-7.120356,-1.872266,-3.303998,40.100098,-22.094727,3.387451,34.835938
36680,-6.526594,1.551443,-3.179500,10.650635,-72.265625,-9.918213,34.824219
36720,-5.765238,13.532028,-3.452439,12.329102,-106.781006,-29.876709,34.826172
36760,-2.111686,31.502907,-4.960786,-136.962891,-46.386719,-135.742188,34.837891
36800,4.036624,35.467705,-3.773262,-99.334717,-92.529297,-206.420898,34.832031
36840,7.144298,20.389021,0.397437,-64.117432,-98.937988,-172.729492,34.843750
36880,6.296751,5.406107,1.364695,61.676025,-74.737549,-70.312500,34.833984
36920,5.750873,-1.599327,-0.627281,51.757812,-82.458496,-13.458252,34.839844
36960,5.051765,-4.965574,-1.307234,-43.060303,-103.576660,28.472900,34.839844
37000,4.113238,-6.521805,0.890643,-23.040771,-62.530518,68.298340,34.830078
37040,2.829947,-5.473145,3.064578,69.763184,23.864746,138.244629,34.828125
37080,2.849100,2.944868,4.022259,87.280273,38.665771,244.171143,34.843750
37120,7.412448,26.853367,4.673482,35.614014,141.754150,120.330811,34.833984
37160,8.207323,37.043087,4.065354,64.727783,118.103027,-6.988525,34.818359
37200,3.136404,24.487894,3.600879,60.119629,138.763428,-21.667480,34.851562
37240,-1.345541,10.242394,2.059013,58.715820,141.754150,-9.857178,34.826172
37280,-3.849876,2.121263,0.043096,48.767090,124.145508,1.190186,34.818359
37320,-5.875371,-1.474828,-1.541866,-6.713867,85.601807,9.521484,34.837891
37360,-7.498640,-2.063802,-2.331953,-25.665283,24.658203,0.000000,34.843750
37400,-7.220912,0.656011,-2.638410,6.042480,-33.508301,-32.012939,34.837891
37440,-7.000646,9.868899,-3.576937,1.098633,-75.103760,-23.895264,34.845703
37480,-3.351882,28.797459,-6.105214,-130.737305,-100.128174,-128.845215,34.830078
37520,3.222595,35.151669,-5.066131,-68.389893,-161.865234,-186.401367,34.826172
37560,6.871359,22.208614,-1.154005,-49.957275,-162.750244,-143.951416,34.843750
37600,6.660669,7.388506,0.727837,26.245117,-130.218506,-58.502197,34.822266
37640,5.990293,-0.450110,0.129287,32.012939,-112.548828,4.425049,34.839844
37680,5.219360,-4.189853,0.009577,-27.923584,-103.088379,43.762207,34.835938
37720,3.835511,-5.951985,1.642422,-19.378662,-44.677734,71.472168,34.835938
37760,2.566584,-4.659117,2.949656,61.096191,26.275635,105.346680,34.824219
37800,2.250550,2.681506,3.912126,109.954834,51.849365,177.062988,34.853516
37840,5.114015,23.458387,3.988740,58.288574,163.696289,110.992432,34.832031
37880,8.087613,37.076607,2.542642,64.392090,128.997803,-12.573242,34.839844
37920,4.410120,25.876532,2.327164,71.228027,115.417480,-49.682617,34.865234
37960,-0.574608,9.643845,2.049437,47.332764,124.603271,-20.233154,34.843750
38000,-3.107674,1.355118,0.962469,34.393311,120.697021,10.864258,34.849609
38040,-4.577713,-1.589750,-0.531513,-6.927490,86.395264,13.763428,34.843750
38080,-6.713342,-1.987187,-1.599327,-68.878174,17.608643,3.387451,34.871094
38120,-7.264008,0.009577,-1.905785,-37.139893,-50.323486,-20.996094,34.861328
38160,-6.943185,7.637504,-2.011129,20.996094,-96.221924,-40.344238,34.853516
38200,-4.984728,25.096022,-4.084508,-98.876953,-85.052490,-87.951660,34.869141
38240,2.226608,35.357571,-4.807557,-75.378418,-146.789551,-164.581299,34.867188
38280,6.569689,24.741680,-1.206678,-47.332764,-157.501221,-149.169922,34.867188
38320,5.348647,9.241618,1.671153,24.505615,-109.619141,-64.544678,34.863281
38360,4.232949,1.283292,1.163582,58.044434,-65.368652,-14.007568,34.853516
38400,4.218584,-2.475605,-0.177171,-9.307861,-52.581787,8.636475,34.871094
38440,3.476381,-4.989516,0.641646,-54.534912,-22.735596,26.733398,34.857422
38480,1.853112,-5.841852,2.614468,26.733398,36.590576,75.866699,34.849609
38520,1.216254,-1.154005,3.648763,108.642578,84.106445,177.795410,34.861328
38560,4.831499,19.407398,2.691083,65.307617,141.113281,125.183105,34.898438
38600,7.972692,36.104561,1.905785,94.757080,120.574951,13.183594,34.888672
38640,4.750096,28.672960,1.891419,106.872559,110.626221,-43.548584,34.892578
38680,-0.905008,11.683704,1.623269,51.696777,110.534668,-19.287109,34.890625
38720,-3.873818,1.666364,1.000776,30.487061,111.389160,14.678955,34.900391
38760,-5.248090,-1.987187,-0.009577,-36.071777,93.475342,34.393311,34.917969
38800,-6.435614,-2.149993,-0.943315,-88.378906,37.780762,30.487061,34.902344
38840,-7.034164,0.272939,-1.699883,-35.766602,-35.034180,-12.420654,34.904297
38880,-7.723695,7.493851,-2.667141,12.023926,-84.838867,-19.500732,34.927734
38920,-5.430049,26.087221,-5.324705,-57.250977,-63.201904,-82.061768,34.906250
38960,1.900996,36.789303,-8.418014,1.037598,-154.693604,-160.034180,34.898438
39000,6.861782,24.976313,-5.664681,-76.538086,-198.913574,-128.173828,34.931641
39040,6.679823,8.887277,-0.775721,-3.326416,-153.778076,-50.781250,34.908203
39080,5.693412,1.005565,0.474052,49.102783,-107.360840,-2.136230,34.917969
39120,5.597643,-1.920150,0.181959,-9.796143,-81.329346,12.786865,34.919922
39160,4.793192,-3.940856,1.551443,-46.325684,-23.284912,19.073486,34.941406
39200,3.016694,-4.831499,2.896984,39.001465,40.740967,64.910889,34.916016
39240,1.513135,-1.149217,3.428497,72.326660,38.452148,149.444580,34.916016
39280,3.485958,15.993267,3.897760,72.692871,172.912598,144.042969,34.919922
39320,7.824251,34.596214,0.464475,127.685547,150.604248,7.690430,34.912109
39360,5.511452,29.649794,-0.847547,67.413330,106.109619,-42.663574,34.927734
39400,0.560243,14.317327,0.378284,23.193359,108.978271,-16.906738,34.916016
39440,-2.327164,4.544195,0.995988,49.865723,109.375000,9.063721,34.925781
39480,-3.466804,0.363919,0.162806,17.547607,112.518311,20.904541,34.908203
39520,-4.740520,-1.043872,-1.192312,-28.991699,79.742432,0.701904,34.902344
39560,-5.856217,-0.967257,-2.336741,-74.951172,-7.720947,-7.202148,34.925781
39600,-6.842628,2.600103,-2.111686,-6.134033,-77.239990,-15.777588,34.935547
39640,-6.153099,17.357962,-3.232172,2.868652,-59.844971,-23.559570,34.914062
39680,-0.186748,33.786976,-7.302315,-72.937012,-104.095459,-132.659912,34.933594
39720,6.301539,29.324183,-5.128380,-79.528809,-172.546387,-151.641846,34.937500
39760,6.885724,13.148955,0.000000,-12.664795,-136.657715,-86.761475,34.955078
39800,4.797980,3.366248,1.709460,40.832520,-96.130371,-24.017334,34.925781
39840,3.821146,-0.545878,1.240196,8.789062,-53.833008,19.989014,34.925781
39880,3.596091,-2.628834,0.991199,-37.750244,-25.909424,27.374268,34.941406
39920,2.978387,-3.936068,1.924938,-13.854980,37.994385,41.687012,34.943359
39960,2.159570,-2.317587,2.652776,28.839111,60.729980,83.374023,34.931641
40000,2.422932,8.010999,3.658340,74.371338,114.868164,146.484375,34.935547
40040,7.062895,27.121517,1.522712,104.278564,183.502197,56.304932,34.947266
40080,7.814674,31.818941,-0.981623,72.875977,90.942383,-11.840820,34.947266
40120,3.074155,20.412964,0.603339,-20.141602,88.623047,-3.417969,34.935547
40160,-0.804452,8.892065,2.485181,44.250488,108.184814,8.483887,34.945312
40200,-3.217807,2.518700,1.575385,47.851562,123.077393,17.059326,34.929688
40240,-4.563348,0.296881,-0.675165,-48.492432,79.315186,12.145996,34.958984
40280,-6.042965,-0.402226,-1.503559,-62.011719,23.529053,-17.181396,34.949219
40320,-7.350199,0.000000,-1.604115,7.141113,-37.994385,-27.954102,34.937500
40360,-7.029376,7.196970,-2.188300,-2.532959,-68.206787,29.266357,34.955078
40400,-2.049437,26.886885,-4.108450,-110.290527,-13.763428,-85.540771,34.966797
40440,3.988740,34.294544,-5.185841,10.345459,-105.834961,-154.510498,34.947266
40480,6.095637,21.045033,-2.365471,-1.464844,-114.776611,-113.159180,34.937500
40520,5.224148,7.536947,0.019154,35.949707,-88.256836,-31.219482,34.994141
40560,4.520253,1.651999,0.421380,42.297363,-60.516357,40.466309,34.996094
40600,4.328717,-0.181959,0.900220,-17.517090,-38.421631,54.168701,34.996094
40640,3.447650,-1.436521,2.446874,-35.003662,32.806396,46.234131,34.984375
40680,1.886631,-1.867477,2.968810,48.309326,61.004639,62.927246,34.976562
40720,1.355118,2.331953,3.462016,130.187988,103.454590,85.052490,35.015625
40760,3.778050,15.945383,1.771709,75.042725,239.257812,59.356689,34.992188
40800,6.392519,28.471848,-3.122039,40.740967,152.130127,8.819580,35.003906
40840,3.629610,25.043350,-2.494758,19.561768,109.893799,-18.341064,34.996094
40880,-0.684742,14.293385,0.430956,-3.845215,107.849121,-5.187988,34.990234
40920,-3.801992,6.129156,1.388637,27.648926,137.023926,1.617432,34.984375
40960,-5.214571,1.580173,-0.689530,5.523682,131.164551,-5.218506,35.007812
41000,-5.702989,-0.957681,-2.825158,-56.121826,47.729492,-13.519287,34.984375
41040,-5.913678,-0.924162,-3.045424,-37.780762,-50.415039,-28.533936,34.996094
41080,-6.296751,3.979163,-2.260126,17.120361,-108.795166,-19.073486,34.996094
41120,-4.055778,19.934124,-3.658340,-92.590332,-87.707520,-34.301758,34.996094
41160,1.230620,33.528400,-6.430826,-36.773682,-158.599854,-129.028320,34.994141
41200,4.376601,26.767176,-5.114015,-63.568115,-192.840576,-121.337891,34.996094
41240,4.218584,12.310986,-1.216254,-25.390625,-143.432617,-56.335449,34.990234
41280,3.203442,2.743755,0.301669,26.641846,-79.772949,-2.899170,34.980469
41320,3.256114,-2.523489,0.052672,-14.770508,-23.834229,39.642334,34.982422
41360,3.754108,-5.329493,0.138864,-26.367188,-26.367188,75.592041,35.019531
41400,3.093309,-5.430049,1.422156,25.695801,4.791260,105.895996,35.029297
41440,2.504335,-1.613692,2.681506,39.062500,31.402588,153.656006,35.039062
41480,4.716578,12.536040,2.786851,81.207275,107.116699,147.674561,35.035156
41520,8.274361,30.502131,0.430956,56.518555,145.141602,53.009033,35.019531
41560,7.666234,31.014488,-1.015141,93.750000,104.736328,-24.536133,35.015625
41600,1.838747,17.266983,-0.689530,85.357666,103.210449,-33.142090,34.988281
41640,-2.796427,6.756437,-0.512359,18.890381,89.080811,-8.728027,34.990234
41680,-5.319916,2.346318,-0.675165,-51.849365,43.365479,7.385254,34.990234
41720,-7.024588,0.378284,-0.651223,-74.737549,-8.819580,4.058838,35.017578
41760,-7.173028,0.948104,-1.843535,-20.629883,-86.822510,-30.090332,35.001953
41800,-7.077260,4.850653,-3.620033,9.399414,-156.341553,-34.912109,35.000000
41840,-4.759673,17.966089,-6.555324,-83.312988,-122.436523,-60.943604,35.011719
41880,1.297657,31.095892,-11.717223,-23.132324,-180.267334,-120.452881,35.000000
41920,7.220912,27.475859,-10.654198,-78.979492,-248.413086,-111.785889,34.994141
41960,7.479486,14.140155,-4.132392,11.505127,-208.953857,-65.124512,35.007812
42000,6.253655,5.075707,-0.378284,59.509277,-148.834229,-31.677246,35.000000
42040,6.095637,-0.181959,0.497994,-29.022217,-105.346680,-7.568359,35.005859
42080,5.248090,-4.328717,2.140416,-90.789795,-58.380127,1.586914,35.021484
42120,3.078943,-6.363788,3.730166,12.115479,13.427734,33.172607,35.027344
42160,1.244985,-2.001553,3.442862,83.465576,21.453857,89.111328,34.994141
42200,1.977611,12.986150,2.250550,64.239502,120.697021,117.767334,35.019531
42240,6.521805,31.273062,-1.738190,36.926270,105.773926,1.312256,35.003906
42280,5.975927,29.515718,-1.604115,18.646240,59.570312,-44.860840,34.994141
42320,1.364695,15.763424,1.541866,34.362793,88.165283,-20.751953,35.029297
42360,-2.207454,5.401319,2.456451,32.562256,121.704102,3.875732,35.021484
42400,-4.515464,0.076614,0.746991,-71.533203,89.141846,43.060303,35.017578
42440,-6.550536,-1.527501,-0.407014,-54.901123,17.272949,38.269043,35.021484
42480,-7.469909,-0.177171,-1.675941,3.997803,-43.701172,-3.662109,34.990234
42520,-7.824251,4.927267,-3.323152,-11.108398,-96.923828,-8.880615,35.015625
42560,-5.889736,19.680338,-5.430049,-99.975586,-94.573975,-51.208496,35.023438
42600,-0.842759,31.809364,-6.962338,-29.724121,-146.057129,-144.042969,35.025391
42640,5.731719,27.849354,-4.635174,-17.059326,-171.600342,-132.781982,35.039062
42680,7.129933,14.283808,-0.651223,73.730469,-137.481689,-76.599121,35.037109
42720,5.200206,4.079720,0.809240,50.781250,-82.824707,-8.270264,35.021484
42760,4.601655,-0.416591,0.517148,3.753662,-71.472168,15.106201,35.035156
42800,4.218584,-3.299210,1.302446,-37.353516,-40.344238,18.615723,35.027344
42840,2.978387,-5.066131,2.662352,-11.535645,18.249512,51.208496,35.019531
42880,1.393425,-2.853889,3.351882,37.658691,46.600342,128.479004,35.033203
42920,3.634398,11.808203,2.207454,64.941406,119.476318,143.981934,35.029297
42960,8.101978,32.561142,-0.646434,66.833496,115.264893,26.916504,35.042969
43000,7.158663,31.885979,-0.675165,67.749023,84.350586,-43.975830,35.037109
43040,1.517924,16.299725,1.403002,26.947021,104.888916,-23.040771,35.013672
43080,-2.111686,5.046977,2.068590,23.376465,125.244141,-0.732422,35.017578
43120,-4.132392,-0.814029,0.957681,22.705078,112.548828,21.179199,35.007812
43160,-6.138733,-2.561796,-0.421380,-27.069092,65.734863,20.629883,35.007812
43200,-7.690176,-1.288081,-1.513135,-39.794922,-16.418457,2.838135,35.009766
43240,-7.943961,3.284845,-2.049437,19.683838,-84.442139,-19.714355,35.042969
43280,-6.560112,17.894264,-4.146757,-82.641602,-87.219238,-29.327393,35.009766
43320,-0.617704,35.611355,-6.991069,-85.784912,-128.112793,-168.884277,35.005859
43360,6.655881,32.972946,-4.922479,-36.010742,-178.192139,-174.774170,35.009766
43400,8.140285,16.601395,-1.101333,65.429688,-155.426025,-119.720459,35.000000
43440,6.315904,3.404555,-0.210690,12.451172,-91.949463,-44.189453,35.005859
43480,4.984728,-3.026271,-0.751779,-25.115967,-70.556641,12.176514,34.994141
43520,4.175488,-5.568913,0.454898,-10.620117,-37.384033,52.001953,34.996094
43560,3.485958,-5.348647,2.111686,18.341064,33.477783,93.292236,35.019531
43600,2.964022,-1.034295,2.585738,67.687988,66.955566,153.839111,34.996094
43640,5.252879,14.628572,1.819593,59.967041,152.557373,128.265381,35.017578
43680,8.494628,32.350452,-0.268151,106.018066,134.216309,32.043457,35.019531
43720,5.602432,29.036879,-0.134075,95.245361,100.433350,-32.196045,35.037109
43760,-0.023942,14.824897,1.407791,2.655029,121.673584,-1.464844,35.013672
43800,-2.944868,5.195418,1.771709,37.963867,133.056641,11.413574,35.011719
43840,-4.659117,0.062249,0.608127,42.388916,118.469238,8.666992,35.019531
43880,-6.665458,-1.628057,-0.938527,-33.386230,52.978516,7.659912,35.027344
43920,-7.455544,-0.220267,-1.742979,-52.734375,-24.780273,-17.578125,35.025391
43960,-7.331046,5.439626,-2.121263,3.753662,-65.002441,-34.423828,35.009766
44000,-4.769250,21.863850,-5.324705,-108.673096,-65.460205,-67.413330,35.029297
44040,0.732626,34.395103,-8.063671,-94.360352,-145.019531,-164.154053,35.023438
44080,5.760449,27.681761,-4.869806,-72.998047,-169.586182,-160.980225,34.996094
44120,6.967127,13.436260,-1.211466,9.857178,-144.134521,-94.146729,35.017578
44160,6.406884,3.174711,-0.311246,47.180176,-118.560791,-30.029297,35.003906
44200,5.683835,-2.068590,-0.541090,-1.770020,-102.081299,14.312744,35.001953
44240,4.548983,-5.018247,0.569820,-49.133301,-72.814941,35.217285,34.986328
44280,3.213019,-6.382942,2.782062,26.397705,10.650635,80.657959,35.009766
44320,1.829170,-3.739743,3.452439,71.685791,46.722412,151.672363,34.994141
44360,3.897760,9.605537,3.347094,132.629395,99.334717,190.521240,34.998047
44400,8.556877,30.885202,1.527501,79.132080,165.039062,41.046143,34.998047
44440,8.394072,34.361584,0.287304,35.125732,124.694824,-38.848877,35.005859
44480,2.973598,20.144814,1.359907,15.930176,124.298096,-34.118652,35.009766
44520,-1.278504,7.441179,1.781286,22.918701,140.563965,-7.171631,35.015625
44560,-3.409343,0.761356,0.311246,24.536133,127.593994,10.070801,35.025391
44600,-5.339070,-1.757344,-1.359907,13.427734,75.164795,3.662109,35.033203
44640,-7.062895,-1.340753,-2.173935,-39.398193,6.896973,-21.331787,35.031250
44680,-7.685388,1.312023,-2.279280,-20.721436,-52.825928,-40.802002,35.023438
44720,-7.264008,11.027693,-2.858677,-23.742676,-86.120605,-22.735596,35.039062
44760,-3.150769,29.467834,-4.783615,-122.772217,-71.228027,-122.741699,35.050781
44800,3.514688,35.046326,-4.486734,-76.873779,-156.036377,-178.680420,35.029297
44840,6.780379,20.791248,-0.636858,-19.317627,-152.954102,-134.277344,35.037109
44880,6.153099,5.832275,0.952892,54.595947,-118.316650,-54.992676,35.035156
44920,5.525817,-1.484405,0.258574,31.311035,-96.740723,-1.007080,35.033203
44960,4.453215,-4.702212,0.119710,-42.266846,-79.803467,38.116455,35.037109
45000,3.122039,-6.186617,1.747767,-8.392334,-19.348145,69.274902,35.007812
45040,2.284068,-4.941632,2.499547,87.646484,41.992188,115.356445,35.019531
45080,2.849100,2.743755,3.246537,95.886230,57.464600,178.771973,35.037109
45120,6.464345,22.452824,3.964798,61.004639,194.000244,131.500244,35.019531
45160,9.557653,36.631287,1.436521,140.502930,143.127441,7.659912,35.041016
45200,4.927267,26.958712,0.081403,57.617188,114.044189,-35.430908,35.027344
45240,-0.952892,10.888829,0.512359,28.259277,113.555908,-15.594482,35.023438
45280,-4.544195,1.455675,0.488417,31.097412,119.049072,7.965088,35.033203
45320,-6.943185,-1.853112,-0.766145,-37.780762,88.348389,32.165527,35.023438
45360,-7.680599,-1.249773,-1.972822,-71.472168,5.218506,18.127441,35.023438
45400,-7.345411,2.437297,-2.202666,11.627197,-61.248779,-59.875488,35.017578
45440,-7.374141,11.880029,-3.069367,-3.295898,-83.740234,-31.707764,35.019531
45480,-2.149993,32.273838,-6.105214,-155.487061,-94.909668,-147.918701,35.033203
45520,5.578490,35.491646,-5.104438,-73.028564,-189.056396,-191.406250,35.027344
45560,8.149862,19.938911,-0.837971,-50.445557,-162.384033,-122.344971,35.039062
45600,7.426814,5.990293,0.761356,24.688721,-107.940674,-54.138184,35.013672
45640,7.086837,-1.829170,-0.301669,29.693604,-90.209961,-14.678955,35.023438
45680,5.449203,-6.167464,-0.148441,-28.228760,-71.990967,33.599854,35.023438
45720,3.677494,-7.623138,1.704672,9.765625,-8.666992,100.982666,35.023438
45760,2.442086,-4.740520,3.236961,85.632324,33.569336,173.858643,34.996094
45800,5.248090,9.390059,3.687071,131.622314,131.225586,204.254150,35.023438
45840,9.907207,31.804575,1.972822,56.732178,158.233643,83.099365,35.011719
45880,8.753201,35.338417,1.417367,102.447510,105.804443,-22.094727,34.994141
45920,2.236184,18.818426,1.900996,96.527100,112.060547,-36.956787,35.027344
45960,-2.389413,5.090073,1.733402,54.260254,131.347656,-16.754150,35.017578
46000,-4.429273,-0.699107,0.593762,18.951416,120.605469,6.469727,35.009766
46040,-6.224925,-1.929727,-0.847547,-51.269531,65.979004,10.284424,35.015625
46080,-7.354988,-0.866701,-1.786075,-81.329346,-12.908936,-19.439697,35.013672
46120,-7.594408,2.619257,-1.891419,37.353516,-83.740234,-62.347412,35.042969
46160,-6.856994,15.610195,-3.213019,-55.999756,-84.442139,-44.433594,35.019531
46200,-1.522712,34.725502,-6.488286,-127.929688,-125.061035,-161.804199,35.033203
46240,5.013458,33.906685,-5.664681,-79.406738,-189.392090,-210.784912,35.039062
46280,7.690176,16.759413,-1.786075,-55.999756,-175.811768,-121.337891,35.019531
46320,7.125144,3.433285,0.162806,22.430420,-112.548828,-35.156250,35.033203
46360,5.990293,-2.762909,-0.359130,36.041260,-77.362061,31.433105,35.035156
46400,4.797980,-5.003881,-0.272939,-23.925781,-52.551270,68.939209,35.027344
46440,3.993528,-5.367800,1.096544,20.690918,-9.368896,103.027344,35.033203
46480,3.610456,-2.566584,2.427721,82.824707,18.798828,128.234863,35.037109
46520,4.908113,8.398860,4.098873,187.652588,77.484131,167.755127,35.023438
46560,8.470686,27.547686,2.877831,103.424072,168.975830,71.044922,35.039062
46600,8.231265,32.498894,0.938527,47.821045,121.520996,-7.965088,35.033203
46640,3.045424,20.882227,1.584962,14.495850,134.124756,-15.625000,35.033203
46680,-0.871489,8.925584,1.728614,42.907715,145.568848,-5.462646,35.023438
46720,-3.141193,1.786075,0.440533,45.989990,127.258301,0.183105,35.039062
46760,-5.473145,-1.254562,-0.986411,-0.640869,76.965332,11.810303,35.062500
46800,-6.449979,-1.139640,-1.968034,-69.793701,3.204346,-0.061035,35.046875
46840,-6.588843,0.967257,-2.317587,-63.507080,-56.884766,-44.219971,35.042969
46880,-7.053318,9.816227,-2.700660,39.764404,-119.903564,-13.214111,35.048828
46920,-1.939303,31.478964,-4.999093,-95.184326,-62.347412,-116.394043,35.048828
46960,6.344635,37.172375,-6.004658,-82.763672,-172.424316,-195.434570,35.039062
47000,8.513782,20.384233,-1.704672,-71.411133,-151.916504,-139.923096,35.048828
47040,6.928820,5.956774,0.780510,17.303467,-98.266602,-66.070557,35.064453
47080,6.086061,-0.641646,0.316035,46.142578,-73.364258,-25.482178,35.068359
47120,5.070919,-4.209007,-0.028730,-56.396484,-65.155029,1.800537,35.056641
47160,3.519476,-6.493075,1.139640,-57.800293,-24.688721,40.527344,35.054688
47200,1.910573,-5.913678,2.475605,47.729492,6.164551,103.851318,35.078125
47240,2.499547,3.356671,3.758897,189.880371,32.165527,186.431885,35.070312
47280,7.570466,26.680984,3.490746,103.271484,164.459229,75.531006,35.060547
47320,8.662222,35.956120,1.517924,57.800293,112.609863,-4.058838,35.060547
47360,3.399766,23.070528,2.025495,32.073975,119.964600,-16.601562,35.050781
47400,-1.407791,8.638280,2.130840,31.555176,136.627197,3.814697,35.068359
47440,-3.351882,1.067814,0.770933,7.537842,130.218506,16.815186,35.064453
47480,-5.157111,-2.173935,-0.746991,-37.872314,100.952148,21.270752,35.046875
47520,-7.158663,-1.934515,-1.934515,-80.841064,19.012451,11.291504,35.052734
47560,-7.824251,1.431733,-2.159570,-36.407471,-44.006348,-42.205811,35.056641
47600,-8.130709,9.581595,-2.456451,40.557861,-102.478027,-61.553955,35.052734
47640,-5.698200,28.510155,-4.572925,-104.370117,-71.990967,-115.966797,35.072266
47680,2.997540,37.943310,-6.014235,-39.825439,-178.009033,-195.800781,35.058594
47720,7.987057,23.994690,-2.317587,-34.881592,-204.101562,-152.404785,35.066406
47760,7.675811,7.503428,0.890643,27.648926,-151.580811,-68.298340,35.078125
47800,7.000646,-1.134852,0.756568,34.790039,-109.771729,-24.322510,35.074219
47840,5.736507,-5.521029,0.565032,-13.580322,-70.281982,18.951416,35.072266
47880,4.084508,-7.541735,2.020706,7.171631,-8.422852,85.662842,35.078125
47920,2.480393,-5.597643,3.500323,91.186523,51.666260,176.879883,35.046875
47960,5.477933,9.045294,3.476381,153.472900,134.857178,199.096680,35.064453
48000,10.855310,34.012028,1.527501,136.657715,157.867432,70.983887,35.052734
48040,9.059659,35.525166,-0.239420,130.889893,96.862793,-39.916992,35.074219
48080,1.288081,16.869545,0.617704,17.730713,107.269287,-11.627197,35.072266
48120,-2.992752,4.663905,1.182736,-0.122070,125.823975,14.892578,35.052734
48160,-4.596867,-0.124498,0.301669,-10.681152,117.309570,20.446777,35.064453
48200,-6.789956,-1.829170,-0.871489,-35.247803,72.021484,14.099121,35.062500
48240,-7.388506,-0.895431,-1.766921,-57.708740,-3.784180,4.089355,35.042969
48280,-6.837840,4.003105,-1.987187,18.859863,-65.093994,-41.564941,35.074219
48320,-5.396531,18.933348,-4.146757,-16.845703,-86.059570,-56.304932,35.068359
48360,0.378284,35.716702,-8.125920,-92.224121,-118.988037,-151.062012,35.068359
48400,7.876924,32.221165,-6.742072,-97.290039,-183.380127,-176.452637,35.080078
48440,9.150639,14.762648,-2.054225,-14.526367,-154.327393,-104.522705,35.066406
48480,7.268796,2.671929,-0.493206,35.034180,-121.398926,-43.029785,35.091797
48520,6.133945,-3.107674,-0.699107,-7.202148,-110.260010,-5.401611,35.074219
48560,4.812346,-6.363788,0.694318,-18.737793,-79.132080,35.461426,35.082031
48600,3.241749,-7.163452,3.050213,50.659180,6.744385,82.000732,35.087891
48640,2.494758,-3.758897,4.151546,68.786621,63.873291,146.759033,35.085938
48680,5.190629,12.995727,3.821146,88.256836,147.705078,182.281494,35.107422
48720,10.103531,35.812469,1.335965,98.999023,165.679932,17.761230,35.095703
48760,8.125920,33.073502,0.172383,101.776123,127.746582,-63.964844,35.089844
48800,1.675941,15.255854,0.660800,30.700684,136.810303,-39.093018,35.080078
48840,-2.978387,2.734178,0.464475,3.570557,128.906250,9.155273,35.107422
48880,-5.702989,-2.408567,-0.464475,-52.612305,87.951660,67.871094,35.080078
48920,-7.086837,-2.116474,-0.962469,-60.668945,45.227051,52.154541,35.066406
48960,-7.120356,1.187524,-1.704672,-24.017334,-3.417969,-32.226562,35.101562
49000,-7.168240,7.177817,-2.868254,59.814453,-75.622559,-73.242188,35.082031
49040,-5.607220,22.735340,-5.410896,-117.736816,-86.669922,-96.862793,35.117188
49080,0.636858,35.620934,-7.139510,-69.763184,-152.801514,-198.944092,35.113281
49120,6.689400,27.777529,-4.592079,-69.976807,-210.174561,-177.703857,35.097656
49160,7.627927,11.927913,-0.536301,-12.420654,-174.621582,-79.742432,35.103516
49200,6.483498,2.298434,0.253785,34.118652,-121.734619,-31.707764,35.087891
49240,5.501875,-2.667141,-0.272939,-6.530762,-83.862305,-1.129150,35.095703
49280,4.501099,-5.813122,0.938527,-18.920898,-30.975342,40.252686,35.107422
49320,3.375824,-6.086061,2.303222,68.603516,31.127930,85.235596,35.101562
49360,2.442086,-3.069367,3.002329,97.320557,49.224854,143.798828,35.105469
49400,4.017470,10.845734,3.615245,102.844238,127.655029,180.541992,35.103516
49440,8.073248,32.963367,1.355118,75.378418,140.136719,36.987305,35.117188
49480,7.000646,34.251450,0.708684,61.584473,128.234863,-38.208008,35.103516
49520,2.116474,19.402611,1.010353,52.459717,129.150391,-36.285400,35.097656
49560,-1.695095,6.359000,0.818817,26.550293,123.291016,-9.643555,35.111328
49600,-4.414908,-0.723049,0.244209,3.509521,107.147217,18.981934,35.107422
49640,-6.641516,-2.896984,-0.507571,-41.015625,57.312012,34.454346,35.099609
49680,-7.196970,-1.465251,-1.417367,-70.129395,-14.770508,17.639160,35.107422
49720,-7.062895,3.462016,-1.814805,16.510010,-94.818115,-62.194824,35.097656
49760,-7.105990,15.705963,-2.485181,-27.496338,-112.670898,-56.121826,35.109375
49800,-2.882619,33.327286,-5.487510,-91.918945,-119.812012,-155.212402,35.115234
49840,3.280056,32.187649,-5.904101,-76.751709,-191.345215,-181.152344,35.099609
49880,5.975927,16.965313,-1.929727,-41.442871,-165.344238,-98.052979,35.111328
49920,5.923255,5.152322,-0.229843,37.200928,-103.912354,-43.334961,35.107422
49960,6.086061,-1.728614,-1.053449,11.322021,-97.961426,4.302979,35.097656
50000,5.252879,-5.612009,0.100556,-50.689697,-67.901611,46.356201,35.115234
50040,4.132392,-6.698977,2.825158,31.463623,23.254395,83.068848,35.111328
50080,3.538630,-3.624821,3.576937,79.101562,85.693359,136.077881,35.101562
50120,4.400543,8.681376,3.730166,80.444336,112.701416,190.490723,35.095703
50160,7.311892,28.960264,2.810793,94.299316,189.361572,68.145752,35.091797
50200,6.866570,34.170048,0.818817,109.100342,149.353027,-19.866943,35.107422
50240,1.977611,21.720198,0.301669,38.024902,138.183594,-20.904541,35.097656
50280,-1.958457,8.935161,0.459687,44.189453,124.237061,-0.183105,35.076172
50320,-3.782839,1.254562,0.043096,10.406494,98.083496,21.362305,35.095703
50360,-5.779603,-1.987187,-0.440533,-88.317871,43.212891,29.998779,35.101562
50400,-7.287950,-1.273715,-0.483629,-62.591553,-24.749756,-7.110596,35.080078
50440,-7.829040,2.944868,-0.335188,28.900146,-81.878662,-69.732666,35.132812
50480,-8.599973,14.006080,-1.393425,-79.803467,-68.634033,-56.671143,35.121094
50520,-4.285621,31.589098,-4.481946,-84.075928,-87.432861,-153.137207,35.123047
50560,2.360683,34.510025,-5.386954,-39.337158,-166.046143,-203.186035,35.121094
50600,5.827487,20.106506,-1.632846,-56.793213,-172.302246,-131.164551,35.134766
50640,7.105990,6.162675,1.350330,11.718750,-93.414307,-70.251465,35.121094
50680,8.188169,-1.752556,0.469264,-0.457764,-55.786133,-32.073975,35.138672
50720,7.335834,-6.349423,0.517148,-71.868896,-35.461426,29.815674,35.136719
50760,5.324705,-7.829040,2.590526,9.765625,61.096191,90.179443,35.134766
50800,3.701436,-5.444415,2.973598,88.043213,86.090088,174.804688,35.130859
50840,5.243302,7.896077,2.849100,103.057861,123.840332,236.572266,35.121094
50880,7.369353,30.899567,2.126051,77.117920,136.871338,98.388672,35.111328
50920,4.984728,34.955345,2.748544,80.566406,122.619629,23.315430,35.117188
50960,0.253785,21.112070,3.069367,74.340820,120.849609,6.774902,35.125000
51000,-3.112462,7.881712,2.178724,39.703369,125.793457,37.139893,35.113281
51040,-4.252102,1.637634,0.407014,1.708984,101.470947,60.211182,35.121094
51080,-5.659893,-0.234632,-0.646434,-41.076660,49.377441,28.747559,35.128906
51120,-7.311892,0.186748,-1.000776,-63.720703,-8.148193,-17.700195,35.109375
51160,-7.771579,2.777274,-1.297657,16.357422,-85.235596,-81.726074,35.126953
51200,-7.369353,12.454638,-1.546654,-19.012451,-97.778320,-70.983887,35.130859
51240,-3.634398,29.769505,-4.003105,-71.472168,-100.250244,-158.874512,35.111328
51280,3.031059,33.935413,-5.525817,-47.821045,-179.962158,-201.995850,35.123047
51320,7.364564,20.489578,-1.968034,-34.332275,-193.756104,-138.214111,35.105469
51360,6.761226,6.746861,1.225831,34.179688,-128.814697,-61.492920,35.138672
51400,5.650316,-0.201113,0.991199,26.611328,-83.526611,-6.408691,35.130859
51440,5.377377,-3.653552,0.100556,-26.824951,-57.678223,23.895264,35.126953
51480,4.151546,-5.602432,0.976834,31.768799,-17.669678,34.454346,35.125000
51520,2.485181,-5.621585,2.308010,80.505371,28.442383,88.195801,35.113281
51560,1.963245,2.087744,3.653552,97.442627,47.058105,193.237305,35.136719
51600,5.817910,25.167849,3.615245,75.073242,170.623779,79.620361,35.134766
51640,7.000646,35.970486,1.695095,58.319092,118.499756,-12.268066,35.164062
51680,3.313575,25.268404,2.236184,-1.739502,135.406494,-4.699707,35.136719
51720,-0.253785,11.343728,2.542642,33.569336,156.036377,14.953613,35.130859
51760,-2.470816,2.738967,0.723049,9.368896,154.479980,34.057617,35.115234
51800,-5.018247,-1.091756,-1.403002,-23.956299,99.212646,32.623291,35.171875
51840,-7.771579,-1.867477,-2.308010,-60.424805,24.139404,22.186279,35.123047
51880,-8.327033,0.407014,-2.552219,-52.612305,-47.821045,-23.345947,35.138672
51920,-7.666234,6.339846,-2.882619,43.853760,-126.647949,-77.087402,35.162109
51960,-6.976704,20.949265,-4.103662,-91.857910,-128.143311,-70.648193,35.136719
52000,-0.823605,35.510799,-4.893748,-85.968018,-172.454834,-176.879883,35.130859
52040,6.421249,28.921957,-1.235408,-30.303955,-177.337646,-183.532715,35.138672
52080,7.177817,11.496957,1.575385,53.924561,-120.910645,-87.829590,35.125000
52120,5.856217,1.067814,0.761356,27.404785,-78.002930,1.495361,35.128906
52160,5.473145,-3.251326,-0.497994,-28.778076,-78.430176,65.399170,35.126953
52200,5.185841,-5.262455,0.818817,-17.486572,-30.822754,77.392578,35.134766
52240,4.170700,-5.295974,2.245761,85.388184,55.297852,98.327637,35.128906
52280,3.706224,-0.320823,2.475605,92.834473,51.025391,160.552979,35.113281
52320,4.745308,15.624560,3.481169,122.955322,171.386719,180.206299,35.150391
52360,8.762778,35.051113,-0.699107,130.035400,152.313232,38.726807,35.138672
52400,6.675035,31.775845,-2.025495,17.150879,78.704834,-30.609131,35.158203
52440,0.837971,15.423448,1.211466,-11.352539,97.290039,-1.434326,35.148438
52480,-3.476381,4.367024,2.413355,59.448242,122.283936,9.185791,35.152344
52520,-6.454768,-0.488417,0.407014,24.536133,101.318359,15.991211,35.144531
52560,-8.078036,-1.264138,-1.513135,-46.600342,21.392822,-6.286621,35.164062
52600,-7.785944,0.292093,-1.632846,-43.182373,-48.461914,-62.622070,35.158203
52640,-7.905654,5.880159,-1.642422,23.437500,-118.133545,-66.894531,35.177734
52680,-5.990293,22.606052,-3.102885,-112.091064,-88.745117,-119.049072,35.156250
52720,1.968034,36.243423,-5.650316,-47.821045,-136.566162,-194.091797,35.183594
52760,8.025364,28.002583,-4.247314,-27.160645,-177.703857,-148.468018,35.160156
52800,7.517793,11.563994,-1.565808,36.132812,-137.908936,-63.140869,35.179688
52840,6.181829,2.164358,-1.101333,43.701172,-97.473145,7.019043,35.144531
52880,5.956774,-2.207454,-1.359907,-13.977051,-78.918457,48.858643,35.166016
52920,5.315128,-4.707001,0.311246,-28.259277,-48.858643,60.852051,35.158203
52960,3.821146,-5.272032,2.638410,60.729980,25.817871,94.726562,35.160156
53000,2.619257,-0.842759,3.653552,92.376709,41.412354,163.696289,35.167969
53040,4.932055,17.424999,3.687071,97.290039,161.773682,133.148193,35.154297
53080,8.724471,36.104561,0.301669,141.265869,138.671875,-20.568848,35.173828
53120,5.568913,29.147011,-0.584185,59.906006,107.635498,-66.467285,35.158203
53160,0.287304,12.828133,1.048660,13.946533,137.664795,-34.545898,35.150391
53200,-2.844312,2.724602,1.398214,25.543213,150.634766,-12.298584,35.148438
53240,-5.166687,-1.762132,0.009577,-57.739258,109.588623,10.650635,35.167969
53280,-7.264008,-2.676718,-1.115698,-100.097656,25.756836,13.275146,35.162109
53320,-7.656657,-0.469264,-1.192312,-64.361572,-43.304443,-25.848389,35.156250
53360,-7.733272,7.307104,-1.417367,-22.827148,-89.141846,-24.353027,35.166016
53400,-5.104438,26.599581,-3.227384,-132.019043,-80.810547,-105.010986,35.144531
53440,1.484405,37.684734,-4.635174,-23.559570,-147.796631,-201.904297,35.154297
53480,6.813898,25.517403,-2.772485,-15.686035,-175.323486,-163.238525,35.144531
53520,7.613562,8.882488,-0.387861,32.440186,-135.589600,-68.572998,35.148438
53560,6.967127,0.124498,-0.258574,69.366455,-103.454590,-6.622314,35.154297
53600,5.856217,-3.514688,-0.330400,-2.838135,-77.301025,36.865234,35.146484
53640,4.505888,-5.305551,1.436521,-21.301270,-13.702393,69.488525,35.134766
53680,3.270479,-4.639963,2.480393,69.549561,41.473389,102.355957,35.144531
53720,2.676718,0.847547,3.102885,110.076904,47.576904,166.168213,35.152344
53760,5.070919,19.077000,3.189077,101.287842,170.776367,120.239258,35.148438
53800,8.537724,35.855564,-0.086191,114.624023,128.570557,-9.643555,35.142578
53840,5.985504,29.012936,-0.215478,34.698486,110.931396,-52.185059,35.158203
53880,1.187524,13.225570,1.431733,12.908936,129.913330,-27.648926,35.150391
53920,-2.255338,2.815581,1.551443,26.031494,133.666992,-6.164551,35.144531
53960,-5.324705,-1.877054,0.143652,-46.875000,90.789795,25.268555,35.154297
54000,-7.426814,-2.250550,-0.823605,-69.183350,16.448975,20.111084,35.189453
54040,-7.398083,0.143652,-0.905008,-40.832520,-24.536133,-34.637451,35.193359
54080,-7.469909,5.770026,-1.589750,3.112793,-73.059082,-50.048828,35.187500
54120,-6.540959,21.361067,-3.438074,-61.462402,-71.044922,-83.770752,35.175781
54160,-1.067814,33.772610,-5.669470,17.974854,-97.473145,-156.738281,35.167969
54200,4.984728,28.127081,-5.037400,-50.354004,-162.750244,-118.865967,35.177734
54240,7.101202,14.494497,-1.029507,-23.040771,-147.766113,-52.276611,35.154297
54280,6.909666,4.639963,0.861913,67.687988,-97.930908,-31.188965,35.164062
54320,5.904101,-1.599327,0.593762,47.790527,-65.582275,-2.838135,35.175781
54360,4.381389,-5.094861,0.933739,-43.731689,-18.951416,45.959473,35.173828
54400,3.021482,-5.793968,1.900996,-0.396729,38.085938,75.531006,35.195312
54440,1.972822,-3.682282,2.327164,60.791016,49.560547,123.687744,35.193359
54480,3.280056,6.684611,3.179500,100.830078,89.324951,211.639404,35.205078
54520,9.030929,27.609934,1.690306,47.760010,168.457031,109.802246,35.193359
54560,10.362105,35.285744,0.292093,10.345459,104.278564,27.282715,35.189453
54600,4.156334,23.132776,1.805228,22.308350,128.723145,8.544922,35.197266
54640,-2.375048,9.835381,1.106121,75.592041,156.524658,3.479004,35.187500
54680,-5.501875,3.567361,-2.049437,27.038574,105.438232,-15.869141,35.201172
54720,-7.201759,0.751779,-3.232172,-61.401367,35.308838,-44.158936,35.197266
54760,-7.757214,-0.239420,-2.624045,-56.243896,-27.313232,-73.516846,35.207031
54800,-7.814674,3.782839,-2.279280,28.442383,-101.013184,-74.584961,35.181641
54840,-5.535394,19.934124,-2.839523,-73.120117,-79.223633,-125.549316,35.183594
54880,0.368707,33.288979,-5.262455,-6.103516,-152.343750,-212.951660,35.218750
54920,5.415684,25.890898,-3.921702,-73.577881,-208.282471,-163.757324,35.216797
54960,6.641516,11.923124,-0.177171,-5.493164,-161.895752,-68.634033,35.193359
55000,5.975927,3.088520,0.488417,68.847656,-120.147705,-2.838135,35.197266
55040,5.592855,-1.522712,-0.402226,-0.610352,-83.679199,34.729004,35.218750
55080,4.175488,-4.343082,0.210690,-61.553955,-50.262451,57.098389,35.222656
55120,2.667141,-5.305551,1.900996,18.432617,11.718750,86.212158,35.218750
55160,1.939303,-2.911349,2.916138,78.277588,45.867920,127.502441,35.208984
55200,3.672705,8.753201,3.778050,152.435303,107.788086,165.161133,35.236328
55240,7.613562,29.889214,1.862689,79.101562,178.375244,60.913086,35.207031
55280,8.106767,35.855564,-0.004788,43.243408,112.243652,-28.350830,35.218750
55320,2.920926,21.260511,1.268927,33.599854,110.870361,-33.294678,35.232422
55360,-1.709460,7.283162,1.991976,43.579102,128.234863,-9.338379,35.216797
55400,-4.041412,0.512359,0.833182,40.618896,130.798340,2.136230,35.216797
55440,-5.861006,-2.173935,-1.091756,-3.631592,84.533691,11.444092,35.218750
55480,-7.211336,-2.059013,-2.197877,-77.239990,-1.861572,11.077881,35.212891
55520,-7.196970,1.216254,-1.891419,-15.655518,-76.110840,-34.729004,35.216797
55560,-7.283162,10.812215,-1.910573,72.357178,-104.064941,-42.297363,35.216797
55600,-4.572925,28.423962,-5.779603,-113.220215,-87.432861,-118.591309,35.212891
55640,2.063802,34.926613,-7.532158,-104.278564,-186.370850,-168.060303,35.203125
55680,6.651093,23.113623,-3.265691,-79.803467,-192.291260,-137.176514,35.222656
55720,7.024588,8.944737,0.004788,14.465332,-147.918701,-82.214355,35.212891
55760,6.464345,0.071826,0.023942,45.440674,-107.574463,-43.060303,35.224609
55800,4.946421,-5.281609,0.205901,-16.998291,-69.763184,22.644043,35.210938
55840,3.179500,-7.848193,1.896208,-23.132324,-8.026123,90.148926,35.199219
55880,2.638410,-6.153099,2.561796,39.581299,54.931641,125.183105,35.226562
55920,2.964022,1.498770,3.275268,70.007324,66.131592,179.992676,35.189453
55960,5.176264,21.552603,4.261679,59.600830,159.820557,141.082764,35.187500
56000,8.226477,37.924156,3.069367,93.231201,141.448975,1.861572,35.197266
56040,4.558560,28.361713,2.542642,77.514648,123.779297,-49.682617,35.222656
56080,-0.876278,11.683704,2.260126,34.027100,139.801025,-19.134521,35.189453
56120,-3.892972,2.451663,1.063026,37.567139,121.246338,13.000488,35.224609
56160,-5.631162,-1.230620,-0.244209,-12.390137,86.059570,34.423828,35.205078
56200,-6.574478,-1.709460,-1.082179,-74.005127,25.054932,26.336670,35.191406
56240,-6.526594,-0.138864,-1.331176,-53.649902,-38.055420,-20.507812,35.212891
56280,-7.139510,4.271256,-1.043872,55.389404,-85.906982,-38.391113,35.236328
56320,-6.100426,20.973207,-2.470816,-82.702637,-57.983398,-77.423096,35.222656
56360,-1.043872,36.573826,-5.013458,-65.124512,-133.483887,-179.229736,35.251953
56400,4.577713,28.921957,-3.002329,-61.553955,-173.370361,-173.919678,35.248047
56440,5.904101,12.081141,0.215478,49.194336,-143.157959,-105.316162,35.253906
56480,5.329493,1.929727,0.067038,61.645508,-124.664307,-41.198730,35.224609
56520,5.176264,-2.911349,-0.790087,-52.642822,-128.265381,11.749268,35.238281
56560,4.094085,-5.961562,0.900220,-105.407715,-89.630127,48.797607,35.255859
56600,2.873042,-6.607996,3.016694,52.795410,-8.789062,69.824219,35.244141
56640,1.790863,-3.658340,4.395754,139.709473,35.644531,149.597168,35.263672
56680,4.850653,14.235924,4.491522,124.633789,140.563965,144.805908,35.238281
56720,8.686164,36.233849,2.193089,118.286133,152.740479,-1.525879,35.248047
56760,5.655105,31.976957,2.097321,60.119629,145.507812,-43.853760,35.251953
56800,0.272939,14.829685,3.016694,44.799805,161.804199,-25.207520,35.261719
56840,-3.011906,2.964022,2.078167,13.671875,181.091309,0.366211,35.251953
56880,-5.176264,-1.996764,-0.445322,-61.126709,150.573730,30.334473,35.236328
56920,-7.613562,-2.710236,-2.173935,-78.857422,54.534912,43.182373,35.240234
56960,-8.106767,0.713472,-2.566584,-38.452148,-12.207031,-4.608154,35.230469
57000,-8.374918,8.978256,-3.696647,5.523682,-80.688477,-40.374756,35.232422
57040,-5.975927,25.574863,-5.521029,-92.163086,-91.766357,-124.114990,35.236328
57080,-0.071826,33.992874,-6.272809,18.554688,-157.135010,-201.812744,35.253906
57120,4.793192,23.688232,-3.423708,-3.692627,-214.416504,-141.662598,35.208984
57160,5.904101,9.634268,0.718261,51.635742,-165.832520,-53.161621,35.232422
57200,6.359000,1.393425,1.326388,85.998535,-119.995117,3.784180,35.248047
57240,6.181829,-3.193865,0.785298,-2.258301,-100.646973,46.173096,35.248047
57280,4.515464,-5.746084,2.504335,-26.763916,-42.541504,76.202393,35.251953
57320,2.777274,-5.305551,4.309563,41.259766,33.203125,125.335693,35.230469
57360,2.743755,2.604892,4.932055,135.162354,76.477051,194.396973,35.230469
57400,6.828263,26.111164,2.700660,121.734619,208.374023,72.143555,35.251953
57440,9.289502,38.958450,-1.968034,114.105225,133.209229,-53.375244,35.246094
57480,4.419696,25.062504,-1.738190,28.106689,115.539551,-61.248779,35.261719
57520,-0.622492,8.896853,0.325611,11.260986,121.551514,-29.541016,35.253906
57560,-3.131616,0.478840,0.837971,-6.958008,126.647949,3.417969,35.250000
57600,-4.975151,-2.753332,0.177171,-52.917480,110.229492,26.153564,35.261719
57640,-6.890512,-2.518700,-0.895431,-73.791504,33.935547,29.113770,35.244141
57680,-7.321469,0.991199,-1.599327,-26.794434,-56.823730,-24.932861,35.263672
57720,-8.106767,8.355764,-1.924938,42.236328,-85.418701,-52.001953,35.259766
57760,-7.283162,24.042574,-5.401319,-88.867188,-80.078125,-89.111328,35.265625
57800,-0.814029,35.084633,-8.911219,-2.502441,-120.941162,-169.738770,35.242188
57840,6.124368,26.288334,-7.666234,7.446289,-196.777344,-128.417969,35.246094
57880,7.556100,10.309433,-2.140416,16.632080,-173.217773,-42.236328,35.228516
57920,6.871359,1.058237,1.331176,52.398682,-136.505127,10.803223,35.246094
57960,5.899313,-3.122039,2.489970,-15.380859,-117.706299,54.321289,35.251953
58000,4.141969,-4.812346,4.467580,-60.974121,-9.002686,58.868408,35.240234
58040,2.782062,-4.424485,4.692636,13.366699,95.397949,96.221924,35.218750
58080,2.580950,1.450886,3.318364,36.590576,87.677002,127.929688,35.242188
58120,2.844312,16.692375,2.954445,34.576416,188.659668,130.432129,35.246094
58160,6.277597,33.499672,-0.167594,16.021729,148.620605,36.010742,35.236328
58200,5.042189,29.961040,-0.229843,21.697998,95.062256,-32.775879,35.236328
58240,0.383072,14.743494,1.613692,22.888184,110.961914,-18.676758,35.248047
58280,-2.844312,4.141969,1.810017,59.020996,123.687744,-8.911133,35.246094
58320,-4.616021,-1.053449,0.555455,17.211914,105.499268,11.901855,35.246094
58360,-6.138733,-2.619257,-0.574608,-50.018311,48.614502,19.165039,35.236328
58400,-6.737284,-1.110910,-1.149217,-43.060303,-12.969971,-13.122559,35.263672
58440,-7.201759,3.500323,-1.762132,49.743652,-74.798584,-52.459717,35.259766
58480,-7.900866,17.190369,-4.252102,-62.377930,-116.699219,-37.139893,35.275391
58520,-2.413355,35.405457,-6.368577,-90.301514,-134.063721,-157.684326,35.269531
58560,4.616021,31.225178,-3.792415,-22.094727,-189.849854,-174.987793,35.269531
58600,5.540183,13.455414,0.402226,53.314209,-152.008057,-83.923340,35.261719
58640,4.477157,3.122039,1.192312,74.523926,-103.851318,-9.155273,35.269531
58680,4.979939,-1.024718,0.248997,15.075684,-83.282471,25.482178,35.236328
58720,4.778827,-3.936068,1.197101,-45.410156,-55.419922,29.815674,35.253906
58760,3.476381,-5.578490,3.275268,5.676270,32.409668,67.993164,35.255859
58800,3.074155,-2.777274,3.289633,47.271729,58.074951,115.264893,35.271484
58840,2.983175,8.317456,3.940856,75.744629,101.898193,163.391113,35.257812
58880,4.946421,27.902027,2.207454,67.169189,200.347900,96.588135,35.265625
58920,6.445191,35.745430,-1.024718,75.805664,109.863281,-27.496338,35.255859
58960,1.991976,21.782448,-0.009577,-3.204346,107.543945,-31.066895,35.265625
59000,-1.848324,8.164227,1.513135,25.085449,126.037598,-12.847900,35.259766
59040,-3.926491,0.627281,1.134852,62.500000,122.314453,-5.828857,35.251953
59080,-5.990293,-2.887407,-0.430956,-24.810791,82.214355,15.167236,35.251953
59120,-7.474698,-2.336741,-1.719037,-69.305420,-20.782471,14.068604,35.265625
59160,-8.379706,2.073379,-1.604115,0.396729,-76.873779,-17.517090,35.281250
59200,-7.565677,15.734694,-3.069367,-80.780029,-89.752197,-14.099121,35.234375
59240,-2.762909,34.744656,-5.568913,-78.491211,-115.997314,-157.897949,35.248047
59280,4.395754,32.733524,-4.529830,-22.796631,-177.612305,-178.863525,35.251953
59320,7.134721,15.476120,-1.484405,32.806396,-166.961670,-104.156494,35.261719
59360,6.617573,3.059790,-0.397437,73.211670,-135.009766,-22.674561,35.250000
59400,6.387730,-2.279280,-0.699107,37.933350,-117.736816,30.761719,35.257812
59440,4.860229,-5.018247,0.905008,-38.299561,-78.765869,60.699463,35.259766
59480,3.011906,-5.612009,3.366248,31.555176,14.160156,93.994141,35.253906
59520,2.173935,-2.604892,3.873818,64.880371,61.309814,145.141602,35.234375
59560,3.821146,10.529699,3.481169,102.600098,129.882812,165.954590,35.265625
59600,8.446744,32.599449,0.090980,87.341309,171.386719,21.636963,35.255859
59640,8.480263,35.276169,-1.900996,71.472168,95.336914,-71.990967,35.281250
59680,2.849100,18.938135,0.167594,43.548584,92.529297,-60.821533,35.273438
59720,-1.517924,5.693412,1.819593,50.964355,107.238770,-38.543701,35.263672
59760,-3.658340,-0.670376,1.474828,19.226074,106.567383,-7.080078,35.289062
59800,-5.501875,-2.729390,0.421380,-58.563232,71.777344,14.343262,35.283203
59840,-6.651093,-1.896208,-0.608127,-99.029541,-5.798340,8.697510,35.279297
59880,-7.182605,1.867477,-1.015141,7.843018,-77.331543,-32.470703,35.275391
59920,-7.752425,13.421895,-2.844312,-65.216064,-92.376709,-17.578125,35.285156
59960,-3.404555,32.082302,-6.172252,-136.047363,-108.825684,-127.105713,35.263672
60000,4.299986,33.715149,-5.300763,-50.445557,-170.776367,-178.161621,35.275391
60040,6.785168,17.616535,-1.039083,5.126953,-153.015137,-107.696533,35.267578
60080,5.655105,4.994305,0.818817,66.284180,-108.215332,-35.797119,35.265625
60120,5.114015,-0.512359,0.268151,69.580078,-83.984375,7.965088,35.275391
60160,4.280833,-3.787627,0.550666,-29.449463,-57.159424,35.339355,35.255859
60200,2.944868,-5.980716,2.451663,-28.259277,5.645752,71.777344,35.285156
60240,2.140416,-4.558560,3.509900,43.212891,53.741455,111.419678,35.269531
60280,2.633622,5.832275,3.921702,100.036621,90.759277,169.311523,35.257812
60320,5.947197,27.408821,2.044648,30.120850,170.806885,53.802490,35.277344
60360,7.163452,35.865143,0.593762,13.824463,123.779297,-27.496338,35.292969
60400,3.715801,23.669079,2.025495,25.146484,143.951416,-38.970947,35.291016
60440,0.019154,8.959103,2.231396,40.283203,156.707764,-17.364502,35.281250
60480,-2.451663,0.574608,0.818817,28.533936,142.181396,16.479492,35.281250
60520,-4.060566,-2.250550,-0.861913,-22.216797,107.025146,28.137207,35.271484
60560,-5.865794,-2.250550,-1.867477,-35.980225,44.281006,14.678955,35.285156
60600,-6.732495,0.134075,-2.173935,-8.636475,-35.156250,-13.275146,35.300781
60640,-7.259220,6.890512,-1.757344,86.273193,-100.463867,-62.500000,35.302734
60680,-8.480263,19.919758,-3.165135,-57.250977,-66.589355,-50.659180,35.318359
60720,-1.455675,33.054348,-6.172252,-77.423096,-143.859863,-125.122070,35.285156
60760,5.616797,26.637888,-3.256114,5.615234,-185.241699,-146.331787,35.294922
60800,5.793968,11.027693,0.383072,38.909912,-157.043457,-56.701660,35.289062
60840,5.027823,2.604892,1.264138,40.405273,-106.750488,9.674072,35.308594
60880,5.142745,-1.168370,1.163582,13.793945,-66.131592,26.763916,35.300781
60920,3.950433,-3.801992,2.308010,2.777100,18.615723,40.374756,35.318359
60960,2.863465,-4.304775,2.475605,40.191650,78.094482,78.948975,35.308594
61000,2.552219,0.641646,3.007117,39.398193,99.243164,156.433105,35.308594
61040,4.989516,19.158401,2.671929,60.333252,209.045410,115.203857,35.306641
61080,7.613562,35.841198,-0.842759,79.589844,147.705078,-17.425537,35.294922
61120,4.740520,28.663383,-0.799663,9.857178,136.566162,-54.687500,35.316406
61160,-0.272939,11.875240,0.584185,27.618408,137.512207,-29.998779,35.322266
61200,-3.883395,1.594538,0.325611,28.411865,141.113281,9.368896,35.318359
61240,-5.650316,-1.891419,-1.407791,-24.566650,90.332031,33.233643,35.318359
61280,-6.430826,-1.738190,-1.829170,-42.144775,16.052246,31.951904,35.300781
61320,-6.133945,1.019930,-1.211466,-21.392822,-32.989502,-19.287109,35.318359
61360,-6.722919,7.570466,-1.589750,1.007080,-85.052490,5.584717,35.330078
61400,-3.988740,25.172636,-3.409343,-78.826904,-70.281982,-76.019287,35.314453
61440,2.078167,34.438198,-5.176264,-6.958008,-144.805908,-153.503418,35.318359
61480,5.947197,22.673090,-3.069367,-23.803711,-179.992676,-112.731934,35.332031
61520,5.544971,8.063671,-0.426168,18.035889,-142.791748,-39.764404,35.330078
61560,5.243302,0.656011,-0.210690,12.786865,-114.959717,11.016846,35.339844
61600,5.181053,-2.983175,0.296881,-69.274902,-85.845947,29.815674,35.318359
61640,3.639187,-5.238513,2.561796,-21.606445,3.204346,30.578613,35.330078
61680,2.231396,-4.888960,3.385401,59.387207,73.608398,73.699951,35.314453
61720,2.097321,2.973598,3.624821,49.743652,106.781006,156.127930,35.308594
61760,4.845864,22.898146,2.164358,72.387695,216.491699,69.152832,35.320312
61800,6.435614,34.261024,-1.436521,98.449707,135.528564,-22.766113,35.322266
61840,2.810793,25.598804,-1.082179,3.692627,103.851318,-27.893066,35.306641
61880,-1.426944,12.373235,1.139640,9.674072,106.292725,-6.896973,35.316406
61920,-3.821146,3.648763,1.604115,-8.239746,94.390869,16.693115,35.363281
61960,-5.674258,-0.694318,0.900220,-79.101562,37.139893,43.701172,35.349609
62000,-6.813898,-1.154005,0.052672,-72.662354,-20.874023,8.544922,35.363281
62040,-7.920019,0.574608,-1.532289,-37.689209,-75.592041,-43.273926,35.357422
62080,-9.658210,7.139510,-3.098097,-46.417236,-143.981934,-13.244629,35.371094
62120,-6.904878,26.839001,-4.228160,-204.772949,-85.357666,-82.275391,35.367188
62160,3.098097,36.607346,-4.745308,-44.921875,-164.703369,-193.725586,35.373047
62200,7.900866,21.916523,-2.202666,-2.471924,-156.341553,-143.035889,35.349609
62240,6.981492,5.894525,-0.517148,59.112549,-112.365723,-42.510986,35.355469
62280,5.262455,-1.101333,-0.732626,51.727295,-86.120605,40.435791,35.388672
62320,4.276044,-3.332729,-0.383072,0.122070,-69.946289,85.876465,35.359375
62360,4.280833,-3.371036,1.273715,13.824463,-9.552002,74.096680,35.347656
62400,3.078943,-2.331953,2.073379,98.693848,22.155762,73.364258,35.347656
62440,1.886631,3.208230,2.801216,134.338379,21.118164,130.462646,35.341797
62480,3.529053,20.456059,2.250550,100.646973,140.289307,83.221436,35.365234
62520,7.733272,35.199554,-1.393425,45.440674,100.830078,-28.198242,35.328125
62560,6.042965,27.614723,-0.737414,-29.388428,84.655762,-54.138184,35.365234
62600,1.307234,12.358870,1.699883,-25.787354,124.084473,-19.561768,35.349609
62640,-2.466028,2.916138,1.264138,-7.965088,124.572754,5.859375,35.349609
62680,-5.722142,-1.120486,-0.967257,-30.548096,77.056885,23.498535,35.333984
62720,-7.527370,-1.810017,-2.264915,-46.112061,-2.014160,13.061523,35.343750
62760,-7.321469,0.076614,-2.480393,-48.309326,-69.335938,-27.648926,35.337891
62800,-7.268796,6.306327,-2.557007,11.627197,-132.812500,-37.628174,35.335938
62840,-5.324705,22.989124,-4.113238,-125.762939,-109.710693,-79.620361,35.347656
62880,1.082179,33.437420,-6.114791,-10.162354,-200.836182,-173.095703,35.373047
62920,5.971139,25.196579,-3.720589,-52.124023,-225.677490,-128.570557,35.341797
62960,7.034164,12.387600,0.004788,28.503418,-176.849365,-58.959961,35.339844
63000,6.866570,3.529053,0.852336,59.417725,-125.396729,-33.294678,35.326172
63040,6.153099,-2.274492,0.656011,4.333496,-90.087891,-2.746582,35.326172
63080,4.769250,-5.319916,1.541866,2.441406,-35.736084,23.712158,35.339844
63120,3.122039,-5.195418,2.518700,38.299561,24.078369,75.012207,35.333984
63160,3.270479,1.872266,3.351882,74.737549,50.018311,157.897949,35.343750
63200,6.689400,21.662737,3.093309,76.965332,154.083252,66.772461,35.343750
63240,7.891289,32.977734,1.010353,108.703613,112.396240,-28.961182,35.330078
63280,4.204218,24.942793,0.809240,41.900635,118.896484,-38.543701,35.347656
63320,0.368707,12.890382,1.082179,16.784668,116.210938,-23.529053,35.330078
63360,-2.351106,4.003105,0.842759,19.775391,111.145020,-2.655029,35.339844
63400,-4.917690,-0.881066,-0.110133,-23.986816,90.698242,11.260986,35.339844
63440,-7.110779,-1.934515,-1.388637,-35.949707,15.716553,0.885010,35.343750
63480,-7.182605,-0.397437,-1.920150,-34.698486,-48.767090,-37.719727,35.349609
63520,-7.589619,4.505888,-2.011129,33.996582,-106.170654,-41.778564,35.359375
63560,-7.096414,20.345926,-3.768473,-76.293945,-113.800049,-48.706055,35.328125
63600,-0.474052,36.372711,-5.813122,-74.920654,-143.920898,-156.646729,35.343750
63640,6.665458,30.770281,-3.667917,-38.818359,-191.497803,-164.459229,35.349609
63680,7.953538,13.029245,-0.114922,38.635254,-148.956299,-90.728760,35.333984
63720,6.976704,1.503559,0.392649,61.645508,-103.179932,-29.022217,35.351562
63760,5.592855,-3.720589,-0.033519,-4.669189,-76.232910,31.250000,35.347656
63800,4.122815,-5.731719,1.216254,-30.639648,-36.407471,64.666748,35.332031
63840,2.896984,-5.295974,3.026271,49.926758,42.297363,83.801270,35.355469
63880,1.762132,-1.757344,3.691859,108.886719,75.622559,140.625000,35.347656
63920,3.572149,13.383588,2.585738,127.410889,156.738281,137.176514,35.359375
63960,7.977480,34.170048,-1.096544,64.270020,167.877197,19.836426,35.357422
64000,7.814674,34.031181,-1.972822,49.194336,112.579346,-50.598145,35.357422
64040,2.226608,16.931795,0.349553,37.536621,119.964600,-30.395508,35.357422
64080,-2.250550,4.376601,1.235408,46.081543,132.141113,2.624512,35.367188
64120,-4.161122,-0.426168,-0.009577,5.065918,102.233887,21.850586,35.359375
64160,-5.918467,-1.709460,-0.986411,-66.467285,38.818359,17.242432,35.357422
64200,-6.809110,-1.163582,-1.019930,-81.390381,-20.019531,-6.774902,35.386719
64240,-7.024588,2.097321,-0.756568,7.354736,-65.368652,-39.520264,35.376953
64280,-6.028600,14.504074,-2.106898,20.507812,-90.301514,-39.733887,35.382812
64320,-1.613692,32.671276,-5.899313,-88.745117,-92.102051,-137.390137,35.357422
64360,4.687847,33.365597,-6.186617,-88.897705,-182.006836,-175.018311,35.384766
64400,7.129933,18.047493,-1.086968,-37.231445,-151.794434,-111.206055,35.390625
64440,6.105214,5.837064,1.312023,38.665771,-94.268799,-51.971436,35.376953
64480,5.415684,-0.517148,0.689530,41.900635,-47.698975,-11.718750,35.373047
64520,4.534618,-4.496311,0.100556,-36.621094,-38.696289,38.726807,35.382812
64560,3.107674,-6.540959,1.374272,-18.493652,-5.371094,86.669922,35.361328
64600,2.355895,-4.831499,2.504335,54.321289,40.313721,131.835938,35.353516
64640,2.767697,4.663905,3.447650,76.843262,68.359375,183.929443,35.373047
64680,6.359000,24.530991,3.289633,62.835693,188.537598,81.604004,35.388672
64720,8.820239,34.988865,1.369483,91.186523,147.766113,-12.420654,35.390625
64760,4.668694,24.880545,1.489193,50.598145,144.439697,-27.404785,35.380859
64800,-0.569820,10.572795,1.857901,58.563232,157.196045,-5.310059,35.376953
64840,-3.782839,2.499547,0.612916,53.344727,154.510498,8.392334,35.390625
64880,-5.549759,-0.430956,-1.288081,-32.470703,86.975098,13.092041,35.355469
64920,-6.727707,-0.933739,-1.647211,-73.150635,16.815186,-9.338379,35.371094
64960,-6.909666,0.751779,-1.517924,-9.521484,-51.452637,-56.457520,35.375000
65000,-7.541735,7.843405,-1.805228,16.448975,-90.881348,-46.508789,35.373047
65040,-5.315128,25.249250,-4.165911,-141.174316,-62.103271,-120.697021,35.373047
65080,0.047884,33.801338,-5.444415,-22.033691,-143.096924,-191.894531,35.349609
