MS,Accel X (m/s²),Accel Y (m/s²),Accel Z (m/s²),Gyro X (°/s),Gyro Y (°/s),Gyro Z (°/s),Temp (°C)
0,1.719037,0.574608,-2.375048,-111.968994,170.867920,-146.148682,41.708984
40,17.769766,4.228160,-1.168370,-60.882568,-230.194092,-20.080566,41.707031
80,22.845472,8.738836,3.438074,-164.733887,119.537354,20.050049,41.705078
120,20.499155,6.100426,-0.316035,-129.394531,-49.102783,15.655518,41.708984
160,15.883134,3.509900,0.215478,-118.133545,-82.092285,31.341553,41.697266
200,9.667787,2.767697,-1.168370,-99.090576,31.677246,17.669678,41.687500
240,3.964798,0.004788,-2.777274,15.045166,-9.796143,13.122559,41.705078
280,-1.010353,-3.983952,-2.652776,44.067383,-25.390625,73.883057,41.697266
320,-4.290410,-4.299986,-1.144428,11.779785,-11.077881,72.692871,41.712891
360,0.732626,-2.681506,-0.464475,-72.479248,-63.873291,-125.549316,41.707031
400,22.328325,-1.364695,-4.654328,78.796387,16.418457,1.556396,41.708984
440,23.554157,2.494758,-2.059013,49.041748,-18.768311,17.395020,41.697266
480,18.574217,3.643975,-1.867477,46.203613,-18.096924,-24.963379,41.708984
520,13.532028,3.227384,-0.914585,105.773926,-100.952148,-57.037354,41.693359
560,8.374918,0.502782,2.466028,29.357910,109.588623,-24.139404,41.718750
600,1.599327,-0.320823,0.076614,-0.213623,103.515625,6.164551,41.699219
640,-3.035848,1.709460,-2.451663,-40.344238,-34.332275,51.116943,41.718750
680,-3.394978,2.236184,-0.928950,-84.686279,7.690430,49.316406,41.699219
720,5.592855,2.964022,-1.709460,-144.989014,-13.519287,-193.725586,41.712891
760,24.305935,5.808333,-1.503559,-61.248779,-55.267334,15.655518,41.718750
800,23.760057,7.680599,-0.311246,-182.617188,70.037842,34.423828,41.685547
840,19.086576,5.655105,-1.182736,-95.581055,-58.990479,10.772705,41.724609
880,11.851298,2.686294,-0.814029,-125.732422,56.182861,28.839111,41.722656
920,4.707001,1.154005,-2.466028,-12.939453,39.398193,9.887695,41.703125
960,0.028730,-2.987964,-3.251326,59.722900,4.425049,74.249268,41.714844
1000,-3.050213,-5.468357,-1.843535,33.233643,36.956787,200.378418,41.708984
1040,-2.667141,-3.064578,-0.272939,-21.942139,-41.412354,-56.182861,41.695312
1080,12.368446,-1.398214,-2.480393,-17.272949,12.420654,-246.490479,41.695312
1120,25.852591,4.405331,-2.432509,123.931885,-45.654297,23.162842,41.708984
1160,22.021868,5.339070,0.440533,39.215088,32.318115,-0.976562,41.695312
1200,15.500062,4.333505,0.110133,94.085693,-76.110840,-30.303955,41.693359
1240,10.232818,2.786851,1.565808,104.705811,-10.528564,-39.703369,41.685547
1280,4.927267,0.809240,2.394202,30.303955,43.395996,11.993408,41.675781
1320,-1.053449,1.422156,0.057461,-67.474365,59.722900,40.283203,41.705078
1360,-3.217807,2.001553,-1.441309,-39.459229,3.082275,34.149170,41.695312
1400,0.603339,2.681506,-2.442086,-80.657959,116.027832,-50.750732,41.710938
1440,19.282900,7.350199,-3.131616,-99.212646,-295.471191,-28.778076,41.708984
1480,24.478317,8.207323,0.071826,-172.424316,96.588135,42.327881,41.708984
1520,20.609289,7.747637,-2.183512,-151.672363,-74.890137,13.122559,41.708984
1560,15.011644,3.375824,-0.646434,-162.322998,14.129639,45.135498,41.689453
1600,6.320693,0.967257,-3.758897,-47.912598,-29.541016,25.024414,41.693359
1640,0.339977,-1.819593,-2.911349,41.107178,-8.880615,22.277832,41.699219
1680,-3.002329,-5.224148,-2.130840,63.934326,15.502930,30.059814,41.714844
1720,-1.522712,-5.473145,-2.102109,-6.134033,-79.956055,14.831543,41.701172
1760,11.123461,-0.665588,-1.757344,-20.111084,38.208008,-11.749268,41.689453
1800,22.610842,2.533065,-6.574478,112.426758,-59.265137,-9.979248,41.695312
1840,22.371420,0.952892,-3.418920,45.074463,32.531738,0.305176,41.701172
1880,17.372328,4.007894,-3.399766,98.571777,-75.378418,-75.103760,41.685547
1920,11.602302,3.351882,0.019154,95.886230,50.598145,-84.289551,41.712891
1960,4.453215,1.867477,1.517924,28.045654,85.784912,-60.607910,41.695312
2000,-2.552219,2.322376,-1.096544,-43.426514,21.240234,-34.210205,41.703125
2040,-3.552995,1.441309,-1.465251,-68.695068,1.037598,4.272461,41.697266
2080,0.651223,0.991199,-1.613692,-74.645996,-17.822266,26.519775,41.673828
2120,10.170568,3.409343,-2.810793,-78.857422,-92.468262,21.453857,41.722656
2160,21.088129,5.798757,-3.648763,-134.155273,-38.238525,35.858154,41.712891
2200,22.596476,7.220912,-2.695871,-141.876221,-4.272461,39.276123,41.693359
2240,19.867086,5.382165,-0.699107,-145.874023,-0.274658,40.527344,41.691406
2280,12.215217,2.978387,-1.412579,-136.871338,71.075439,42.816162,41.689453
2320,3.107674,0.349553,-4.165911,-14.709473,-8.880615,2.532959,41.705078
2360,-2.557007,-4.400543,-3.409343,113.037109,-9.948730,24.108887,41.687500
2400,-3.912126,-4.999093,-1.584962,61.828613,-11.505127,8.087158,41.710938
2440,2.159570,-3.193865,-0.411803,-24.414062,-31.768799,-44.708252,41.693359
2480,17.994820,-0.014365,-5.506664,63.568115,29.144287,-5.706787,41.705078
2520,23.999477,0.632069,-5.224148,118.713379,-37.963867,-13.549805,41.707031
2560,21.116859,2.561796,-3.371036,114.135742,3.356934,-31.127930,41.720703
2600,13.934254,4.534618,-1.776498,139.984131,-44.158936,-78.369141,41.691406
2640,7.723695,2.695871,1.728614,78.399658,74.371338,-58.410645,41.689453
2680,-0.023942,1.920150,0.660800,12.939453,51.422119,-38.665771,41.707031
2720,-3.749320,2.738967,-1.714248,-38.940430,2.807617,-11.260986,41.705078
2760,-0.574608,1.436521,-1.637634,-84.259033,11.779785,22.430420,41.703125
2800,5.157111,3.102885,-2.480393,-122.497559,-37.292480,19.317627,41.701172
2840,17.688362,5.329493,-2.724602,-76.812744,-81.146240,-18.035889,41.681641
2880,23.137566,5.506664,-2.614468,-132.690430,-29.632568,34.790039,41.685547
2920,21.815966,6.019023,-0.474052,-147.888184,4.364014,39.184570,41.705078
2960,15.504850,3.543418,-0.866701,-188.812256,77.026367,63.354492,41.689453
3000,5.947197,1.120486,-4.644751,-54.107666,6.469727,25.238037,41.708984
3040,0.215478,-2.260126,-3.543418,99.060059,12.512207,4.272461,41.712891
3080,-3.481169,-4.893748,-1.776498,71.014404,21.423340,47.271729,41.699219
3120,-2.906561,-3.433285,-0.622492,39.672852,-39.733887,-0.244141,41.705078
3160,7.297527,-2.154782,-1.067814,-37.048340,24.475098,-42.572021,41.708984
3200,23.051374,1.948880,-6.564901,137.207031,-65.368652,-6.011963,41.693359
3240,24.056938,1.264138,-1.503559,102.569580,75.164795,4.119873,41.685547
3280,18.660408,4.400543,-2.173935,96.343994,-80.688477,-42.541504,41.714844
3320,13.024457,4.453215,1.460463,129.943848,32.257080,-82.214355,41.710938
3360,5.583278,1.249773,2.700660,59.722900,91.613770,-43.640137,41.705078
3400,-1.819593,1.407791,-0.521936,-17.944336,24.383545,-6.866455,41.705078
3440,-3.988740,1.924938,-1.321599,-34.759521,-20.538330,-5.126953,41.689453
3480,-0.349553,0.162806,0.866701,-51.177979,17.059326,10.314941,41.718750
3520,7.532158,2.815581,-1.594538,-141.571045,-5.249023,-5.126953,41.693359
3560,21.514296,4.951209,-3.040636,-39.825439,-129.516602,20.233154,41.705078
3600,22.639572,6.890512,-0.603339,-106.994629,13.641357,27.160645,41.701172
3640,19.766529,4.898537,0.292093,-97.717285,-11.169434,20.568848,41.703125
3680,12.995727,2.154782,-0.952892,-117.034912,45.135498,36.346436,41.699219
3720,5.185841,0.339977,-3.112462,24.566650,22.094727,5.584717,41.712891
3760,-0.469264,-3.356671,-3.227384,108.001709,2.746582,27.648926,41.683594
3800,-3.462016,-4.285621,-1.508347,91.918945,-10.864258,51.177979,41.697266
3840,-0.579397,-2.533065,-0.440533,-19.317627,-66.040039,-66.009521,41.689453
3880,16.505627,-1.130063,-4.031836,46.508789,9.643555,-13.916016,41.689453
3920,25.028984,2.126051,-4.314352,129.791260,-49.804688,-12.603760,41.689453
3960,21.705833,3.643975,-3.155558,98.449707,22.888184,-22.796631,41.693359
4000,15.136143,4.587290,-1.331176,137.481689,-31.158447,-72.540283,41.697266
4040,8.781932,2.274492,1.766921,88.623047,79.895020,-50.415039,41.697266
4080,1.790863,0.866701,0.924162,46.203613,62.042236,-11.047363,41.722656
4120,-2.820370,3.021482,-1.297657,-14.617920,26.580811,6.530762,41.681641
4160,-1.790863,2.489970,-2.518700,-51.055908,-1.800537,15.808105,41.695312
4200,5.166687,2.777274,-3.251326,-99.243164,-40.069580,-24.414062,41.693359
4240,19.172768,5.133168,-2.054225,-65.216064,-95.397949,-3.723145,41.712891
4280,21.777658,6.435614,-1.862689,-150.970459,-5.523682,40.832520,41.693359
4320,20.709845,6.129156,-0.952892,-124.359131,-11.138916,29.907227,41.699219
4360,15.222335,3.174711,-1.034295,-140.350342,38.391113,51.788330,41.685547
4400,6.651093,1.249773,-4.232949,-36.346436,-9.826660,21.148682,41.703125
4440,1.278504,-2.178724,-2.997540,68.084717,19.317627,5.676270,41.705078
4480,-3.040636,-4.649539,-2.001553,38.940430,47.576904,26.550293,41.695312
4520,-3.529053,-3.308787,-0.799663,37.414551,-22.186279,6.774902,41.718750
4560,4.050989,-1.211466,-0.009577,11.291504,-35.888672,-0.274658,41.691406
4600,19.656397,1.666364,-4.764462,116.119385,-24.139404,-0.823975,41.712891
4640,24.229321,0.387861,-2.590526,102.813721,13.153076,6.988525,41.703125
4680,20.757729,4.367024,-1.924938,100.585938,-27.465820,-41.534424,41.708984
4720,14.441825,5.262455,-0.593762,136.138916,-7.904053,-85.906982,41.691406
4760,7.785944,2.082955,1.489193,91.003418,85.540771,-59.509277,41.679688
4800,0.454898,1.431733,0.181959,29.815674,29.235840,-34.545898,41.687500
4840,-3.682282,1.096544,-1.441309,-31.005859,2.899170,8.544922,41.689453
4880,-1.211466,1.039083,-1.455675,-45.257568,-9.033203,31.311035,41.691406
4920,6.770802,3.912126,-2.020706,-101.898193,-55.603027,38.085938,41.705078
4960,20.068199,4.429273,-3.624821,-74.584961,-51.361084,29.113770,41.699219
5000,21.566969,6.833052,-2.571373,-161.132812,-4.211426,47.698975,41.699219
5040,20.264523,5.348647,-1.158794,-130.706787,-16.632080,25.726318,41.705078
5080,14.642938,1.738190,-0.852336,-139.587402,81.329346,56.915283,41.677734
5120,5.640739,1.024718,-3.993528,-8.209229,24.566650,-1.586914,41.697266
5160,-0.703895,-3.385401,-3.620033,110.595703,1.861572,-14.709473,41.705078
5200,-3.883395,-5.473145,-1.158794,64.605713,23.132324,28.320312,41.683594
5240,-2.063802,-2.882619,-0.038307,47.363281,-33.599854,-14.160156,41.708984
5280,6.071695,-1.426944,-0.541090,4.394531,-11.962891,7.476807,41.685547
5320,21.203051,2.087744,-5.295974,117.858887,-92.803955,-16.754150,41.693359
5360,24.914062,1.522712,-2.446874,110.900879,29.235840,-8.911133,41.703125
5400,20.542250,4.165911,-2.489970,104.888916,-41.259766,-50.323486,41.712891
5440,13.670892,3.869030,-0.622492,138.305664,9.338379,-80.718994,41.691406
5480,7.038953,2.355895,1.795651,69.213867,71.716309,-57.556152,41.699219
5520,-1.470040,2.667141,-0.014365,-6.774902,20.629883,-37.109375,41.695312
5560,-3.677494,1.230620,-1.063026,-66.680908,22.277832,10.742188,41.716797
5600,-0.043096,0.938527,-1.757344,-63.751221,-6.439209,28.930664,41.722656
5640,8.130709,3.754108,-2.049437,-104.522705,-43.121338,29.663086,41.695312
5680,20.412964,5.339070,-3.136404,-95.428467,-75.897217,1.647949,41.708984
5720,22.562958,5.894525,-1.465251,-156.433105,-42.358398,28.228760,41.701172
5760,21.308395,4.458004,0.344765,-151.947021,25.787354,49.865723,41.716797
5800,13.891158,2.667141,-1.091756,-163.146973,51.757812,59.020996,41.693359
5840,4.644751,1.273715,-3.179500,-74.127197,42.694092,22.430420,41.701172
5880,-0.459687,-1.522712,-3.126827,44.586182,3.143311,47.302246,41.703125
5920,-2.370260,-2.901772,-3.462016,148.162842,-36.254883,55.938721,41.687500
5960,-3.246537,-2.571373,-1.335965,42.083740,-47.576904,29.144287,41.722656
6000,5.564125,-1.790863,-0.507571,-94.512939,21.667480,-95.611572,41.705078
6040,25.364172,1.168370,-5.080496,143.310547,-88.104248,-49.346924,41.712891
6080,26.388891,-0.541090,-1.829170,110.687256,57.403564,-12.542725,41.716797
6120,19.096153,3.256114,-1.733402,154.174805,-5.645752,-61.614990,41.708984
6160,10.615891,4.309563,-0.215478,132.110596,32.318115,-72.723389,41.708984
6200,4.271256,2.240973,1.426944,68.695068,71.716309,-52.764893,41.710938
6240,-2.695871,2.020706,-0.646434,-14.282227,28.198242,-26.824951,41.691406
6280,-3.648763,1.082179,-1.120486,-66.284180,13.031006,8.697510,41.710938
6320,0.474052,2.001553,-1.403002,-73.486328,17.517090,14.495850,41.722656
6360,8.212111,4.726154,-2.432509,-108.703613,-115.844727,14.343262,41.710938
6400,20.259735,6.335058,-2.375048,-111.633301,-102.294922,1.525879,41.736328
6440,23.051374,5.793968,-0.612916,-150.451660,-37.048340,25.970459,41.710938
6480,20.824766,3.294421,0.627281,-117.156982,23.162842,54.809570,41.708984
6520,13.153744,2.207454,-0.507571,-137.451172,44.067383,65.887451,41.689453
6560,4.630386,1.508347,-2.700660,-5.310059,45.043945,16.479492,41.675781
6600,-0.632069,-1.163582,-2.188300,30.212402,92.742920,70.709229,41.718750
6640,-2.322376,-2.968810,-3.232172,183.837891,-48.980713,84.625244,41.695312
6680,-2.092532,-2.078167,-1.474828,95.916748,-25.939941,-0.488281,41.693359
6720,5.702989,-1.695095,-1.130063,-34.118652,-56.854248,-176.605225,41.673828
6760,26.609158,1.139640,-3.797204,190.673828,-59.387207,-30.395508,41.685547
6800,25.637112,2.647987,-1.455675,143.829346,98.083496,-11.657715,41.683594
6840,16.409859,5.999869,-2.643199,86.151123,-52.551270,-24.230957,41.712891
6880,9.054871,5.324705,0.780510,92.559814,3.448486,-62.805176,41.707031
6920,4.572925,1.910573,1.819593,43.121338,70.861816,-30.242920,41.705078
6960,-1.561020,2.106898,-0.986411,-35.614014,8.605957,13.793945,41.691406
7000,-3.308787,2.073379,-1.264138,-75.653076,28.350830,17.486572,41.695312
7040,1.920150,1.628057,-1.958457,-84.747314,14.465332,-4.180908,41.685547
7080,16.261417,5.104438,-2.643199,-92.651367,-152.343750,2.319336,41.699219
7120,22.424093,7.728483,-1.374272,-156.799316,-26.519775,34.912109,41.691406
7160,21.250935,7.163452,-0.339977,-143.768311,-30.273438,33.355713,41.683594
7200,15.988479,3.227384,0.430956,-127.380371,44.189453,55.572510,41.689453
7240,6.957550,1.867477,-2.815581,-64.575195,10.284424,36.163330,41.695312
7280,0.086191,-0.052672,-3.964798,57.434082,-23.071289,12.390137,41.699219
7320,-1.623269,-3.878607,-2.767697,109.161377,-44.250488,78.002930,41.707031
7360,-1.240196,-5.272032,-1.201889,89.355469,38.696289,60.943604,41.681641
7400,3.394978,-2.997540,-0.804452,-86.242676,0.762939,-215.423584,41.699219
7440,22.931664,0.885855,-5.248090,88.562012,13.061523,17.333984,41.685547
7480,24.339455,3.107674,-1.915361,122.406006,0.915527,-14.221191,41.677734
7520,19.091364,3.586514,-1.537078,94.940186,33.233643,-10.559082,41.689453
7560,10.745177,5.702989,-1.039083,116.577148,-84.167480,-60.943604,41.707031
7600,5.645528,3.706224,2.767697,64.056396,49.102783,-43.670654,41.697266
7640,-0.593762,1.474828,1.048660,-42.510986,73.242188,13.122559,41.679688
7680,-3.763685,1.738190,-1.460463,-49.743652,39.062500,14.190674,41.708984
7720,-0.316035,1.403002,-2.059013,-74.096680,9.033203,9.948730,41.689453
7760,13.220781,4.936844,-2.782062,-55.053711,-161.376953,-23.162842,41.699219
7800,22.414516,7.441179,-1.704672,-174.865723,-10.406494,37.628174,41.675781
7840,21.811178,6.143522,-1.613692,-132.354736,-33.294678,26.458740,41.693359
7880,18.248606,2.624045,-0.220267,-129.333496,3.417969,55.145264,41.691406
7920,10.141838,1.972822,-1.671153,-84.442139,25.299072,40.161133,41.699219
7960,2.183512,0.823605,-2.777274,-37.078857,36.102295,30.273438,41.697266
8000,-2.202666,-2.882619,-3.366248,38.269043,18.005371,52.215576,41.703125
8040,-2.676718,-4.467580,-3.040636,117.767334,-1.678467,77.850342,41.693359
8080,0.272939,-3.260903,-0.833182,-5.065918,-57.373047,-99.822998,41.705078
8120,18.612524,-0.972046,-4.074931,23.010254,-9.155273,-21.697998,41.685547
8160,25.124752,0.699107,-2.389413,150.695801,-0.701904,-17.059326,41.687500
8200,20.389021,3.026271,-2.614468,125.213623,-7.019043,-39.642334,41.708984
8240,14.001291,5.693412,0.100556,141.693115,-29.205322,-81.939697,41.695312
8280,7.536947,2.801216,1.508347,71.197510,68.878174,-43.579102,41.710938
8320,1.110910,1.398214,0.339977,16.326904,56.396484,2.471924,41.675781
8360,-3.940856,1.991976,-1.063026,-36.407471,-2.532959,10.131836,41.689453
8400,-1.537078,1.331176,-0.837971,-51.361084,31.280518,6.072998,41.710938
8440,6.560112,1.355118,-2.126051,-65.124512,-23.010254,-38.238525,41.691406
8480,20.915747,6.306327,-2.355895,-77.667236,-113.006592,22.491455,41.705078
8520,22.634783,7.422025,-1.350330,-131.988525,-1.678467,27.313232,41.689453
8560,20.733788,4.376601,-0.363919,-93.353271,-9.826660,33.111572,41.716797
8600,14.671668,1.896208,0.023942,-110.839844,42.175293,61.279297,41.683594
8640,5.827487,2.303222,-2.221819,-53.192139,46.875000,33.264160,41.699219
8680,-0.316035,-0.497994,-3.069367,22.705078,13.000488,67.138672,41.708984
8720,-2.336741,-3.529053,-3.222595,158.264160,-22.918701,117.553711,41.699219
8760,-2.715025,-4.323928,-1.417367,72.540283,6.195068,89.508057,41.683594
8800,2.700660,-4.103662,-0.129287,-63.323975,-47.424316,-167.114258,41.701172
8840,23.707386,0.593762,-5.837064,178.955078,-92.102051,-116.546631,41.683594
8880,26.666618,2.006341,-1.632846,99.670410,43.334961,-7.598877,41.693359
8920,19.455282,3.797204,-2.585738,117.797852,-37.719727,-44.433594,41.679688
8960,11.650186,4.347870,-0.363919,149.383545,14.099121,-70.678711,41.673828
9000,5.094861,2.964022,1.905785,60.852051,40.100098,-54.168701,41.685547
9040,-2.054225,2.341529,0.033519,-13.763428,-0.762939,-23.223877,41.679688
9080,-3.294421,1.422156,-1.235408,-73.516846,13.031006,14.190674,41.683594
9120,0.272939,1.733402,-1.474828,-85.754395,-4.333496,27.954102,41.701172
9160,8.130709,4.333505,-2.121263,-106.842041,-19.073486,25.360107,41.708984
9200,20.848709,5.003881,-3.251326,-83.160400,-8.880615,1.464844,41.695312
9240,22.572535,6.306327,-2.082955,-143.035889,-54.443359,18.310547,41.695312
9280,21.586123,4.477157,1.048660,-151.977539,41.595459,57.922363,41.666016
9320,13.383588,3.179500,-0.885855,-183.685303,23.620605,77.239990,41.679688
9360,4.371812,1.958457,-2.820370,-63.385010,25.054932,33.172607,41.695312
9400,-1.125275,-1.647211,-2.542642,42.053223,26.794434,63.262939,41.687500
9440,-2.935291,-4.692636,-3.409343,146.453857,-28.320312,101.318359,41.693359
9480,-2.753332,-4.290410,-1.671153,50.292969,-100.952148,-12.512207,41.699219
9520,10.587160,-3.131616,-1.000776,-5.859375,25.726318,-146.057129,41.689453
9560,24.387339,1.877054,-5.018247,179.138184,-79.467773,-40.039062,41.673828
9600,23.913286,0.383072,-3.021482,88.745117,-4.150391,-0.671387,41.703125
9640,17.295713,4.070143,-2.537854,189.575195,-20.019531,-86.120605,41.693359
9680,9.720459,4.429273,-0.191536,134.124756,43.273926,-77.239990,41.695312
9720,3.122039,3.074155,1.331176,36.224365,53.619385,-49.407959,41.699219
9760,-3.361459,2.384625,-0.531513,-30.700684,1.220703,-16.235352,41.705078
9800,-2.638410,1.197101,-1.259350,-58.105469,-0.274658,15.960693,41.699219
9840,2.432509,1.666364,-1.695095,-79.833984,-10.192871,30.822754,41.695312
9880,12.923901,3.256114,-2.398990,-70.617676,-21.331787,16.754150,41.679688
9920,20.432117,5.583278,-3.174711,-114.196777,-31.127930,27.557373,41.697266
9960,22.213404,6.981492,-1.671153,-133.239746,-27.740479,24.169922,41.693359
10000,19.536686,4.472369,0.775721,-169.616699,59.600830,59.967041,41.681641
10040,10.381259,2.504335,-2.408567,-130.615234,29.541016,48.095703,41.695312
10080,2.992752,0.354342,-3.327940,-7.781982,64.971924,5.187988,41.685547
10120,-1.675941,-4.458004,-3.581726,121.673584,17.669678,61.920166,41.685547
10160,-3.792415,-4.644751,-2.269703,106.414795,-15.197754,29.022217,41.681641
10200,-0.344765,-3.112462,0.191536,17.639160,-34.729004,-58.288574,41.683594
10240,14.336480,-0.679953,-2.164358,42.236328,0.640869,-29.785156,41.685547
10280,23.755270,3.193865,-3.643975,118.255615,-75.347900,-15.991211,41.687500
10320,23.573311,1.647211,-2.240973,85.357666,0.488281,-15.747070,41.703125
10360,17.247829,3.629610,-1.680730,161.163330,-39.733887,-72.265625,41.689453
10400,9.538500,3.998317,0.440533,119.079590,32.684326,-71.044922,41.695312
10440,3.021482,2.729390,1.225831,15.319824,33.203125,-45.318604,41.679688
10480,-3.059790,2.327164,-0.526724,-43.334961,2.777100,-16.448975,41.703125
10520,-2.159570,1.321599,-1.139640,-85.449219,6.622314,22.216797,41.701172
10560,1.944092,1.853112,-2.250550,-109.100342,-5.737305,30.151367,41.695312
10600,13.833697,4.055778,-2.197877,-77.331543,-55.023193,-7.873535,41.693359
10640,21.327549,4.970363,-2.351106,-75.164795,-53.070068,11.901855,41.689453
10680,23.233334,6.574478,-0.081403,-145.416260,-24.444580,44.281006,41.685547
10720,19.618090,5.027823,0.962469,-179.443359,68.756104,63.842773,41.699219
10760,10.438720,3.227384,-2.288857,-162.597656,35.949707,52.764893,41.712891
10800,3.055001,0.162806,-3.371036,-1.373291,44.097900,22.216797,41.722656
10840,-1.177947,-3.701436,-3.394978,86.486816,-0.579834,87.036133,41.689453
10880,-3.045424,-3.830723,-2.585738,147.338867,-23.834229,134.368896,41.681641
10920,-3.275268,-2.240973,0.220267,-0.335693,-81.665039,-45.684814,41.703125
10960,9.289502,-2.164358,-1.561020,3.814697,-0.518799,-205.047607,41.681641
11000,24.842237,2.413355,-4.625597,177.825928,-76.202393,-36.041260,41.685547
11040,25.000254,1.019930,-2.451663,87.341309,33.203125,6.988525,41.710938
11080,18.186356,4.707001,-2.533065,174.468994,-37.841797,-72.296143,41.703125
11120,10.228029,5.080496,-0.033519,127.441406,39.337158,-74.920654,41.689453
11160,4.036624,3.035848,1.307234,30.181885,55.572510,-45.715332,41.697266
11200,-3.007117,1.996764,-0.746991,-30.456543,1.403809,-15.747070,41.714844
11240,-3.275268,1.144428,-1.340753,-58.715820,-6.347656,17.333984,41.712891
11280,1.575385,2.164358,-1.910573,-78.887939,-9.857178,26.611328,41.697266
11320,12.181698,3.557784,-2.480393,-74.981689,-38.146973,14.221191,41.695312
11360,20.087353,5.133168,-3.069367,-100.341797,-23.590088,31.250000,41.691406
11400,22.041021,7.752425,-1.877054,-146.423340,-42.510986,28.747559,41.693359
11440,19.996372,5.506664,0.718261,-171.417236,33.081055,53.771973,41.703125
11480,11.482592,3.069367,-1.561020,-155.517578,32.714844,49.835205,41.695312
11520,3.222595,0.234632,-3.126827,-18.829346,51.208496,17.761230,41.699219
11560,-1.580173,-4.118027,-3.682282,105.712891,25.360107,104.919434,41.707031
11600,-3.591303,-4.525041,-3.246537,145.385742,-30.731201,96.466064,41.673828
11640,-1.604115,-2.877831,-0.311246,3.234863,-58.654785,-95.031738,41.693359
11680,14.240712,-1.091756,-2.657564,42.053223,7.110596,-120.574951,41.689453
11720,23.937229,3.055001,-3.481169,163.970947,-59.234619,-10.498047,41.679688
11760,22.620419,2.576161,-2.173935,97.991943,19.195557,-20.812988,41.683594
11800,17.080235,3.849876,-2.279280,167.205811,-31.799316,-57.281494,41.681641
11840,9.753978,4.625597,0.402226,132.995605,62.561035,-67.932129,41.673828
11880,2.461239,3.519476,1.565808,26.062012,43.823242,-44.921875,41.666016
11920,-4.003105,2.442086,-0.555455,-38.940430,6.744385,-15.014648,41.693359
11960,-2.504335,1.340753,-1.738190,-78.308105,-5.737305,21.209717,41.685547
12000,3.706224,2.552219,-2.791639,-114.990234,-26.916504,26.184082,41.689453
12040,16.788143,4.927267,-2.035071,-87.768555,-35.308838,-10.925293,41.693359
12080,20.221428,7.292738,-2.403779,-103.546143,-31.036377,1.739502,41.685547
12120,22.199038,7.517793,-0.373495,-162.384033,-40.466309,33.782959,41.689453
12160,18.215086,4.443638,0.780510,-193.847656,56.884766,73.944092,41.679688
12200,8.475474,2.542642,-2.552219,-172.027588,42.205811,62.774658,41.687500
12240,0.761356,-0.536301,-3.739743,13.763428,22.277832,37.109375,41.683594
12280,-2.231396,-4.036624,-3.485958,83.221436,0.488281,126.770020,41.677734
12320,-3.380613,-3.457227,-2.360683,125.488281,-47.851562,86.669922,41.679688
12360,-0.780510,-2.494758,0.569820,-16.937256,-79.040527,-98.968506,41.703125
12400,16.994043,-0.665588,-4.381389,90.576172,12.329102,-138.977051,41.683594
12440,25.038561,1.953669,-3.145981,148.071289,-42.602539,-13.702393,41.685547
12480,23.812731,1.513135,-2.250550,116.455078,-4.058838,0.549316,41.669922
12520,15.911864,6.454768,-1.350330,179.626465,-3.814697,-93.688965,41.695312
12560,8.896853,4.951209,0.905008,100.097656,68.237305,-69.000244,41.669922
12600,1.891419,2.896984,0.986411,10.284424,44.586182,-38.574219,41.679688
12640,-4.007894,1.312023,-0.746991,-48.339844,-3.936768,3.082275,41.687500
12680,-2.049437,0.799663,-1.699883,-64.147949,-8.758545,28.625488,41.691406
12720,3.634398,1.853112,-2.533065,-82.489014,-38.452148,34.210205,41.705078
12760,15.935806,3.088520,-2.092532,-52.246094,-21.484375,9.613037,41.683594
12800,20.958841,7.125144,-2.068590,-106.689453,-65.032959,27.404785,41.675781
12840,22.677879,7.206547,0.383072,-153.045654,-21.179199,38.879395,41.699219
12880,17.726669,3.658340,0.469264,-184.875488,48.065186,70.526123,41.689453
12920,7.843405,1.412579,-2.925714,-95.214844,25.939941,49.957275,41.666016
12960,0.852336,-0.766145,-2.954445,12.176514,68.450928,33.081055,41.681641
13000,-2.308010,-3.648763,-3.471592,144.958496,-14.465332,114.929199,41.683594
13040,-2.868254,-4.046201,-3.145981,152.587891,-35.614014,64.178467,41.640625
13080,1.604115,-3.457227,0.105345,-54.840088,-73.120117,-185.028076,41.671875
13120,20.910957,0.905008,-5.085284,144.531250,-68.939209,-66.314697,41.689453
13160,24.741680,2.475605,-1.972822,127.166748,31.860352,-21.026611,41.667969
13200,20.570980,3.122039,-3.313575,120.971680,-39.794922,-28.015137,41.691406
13240,12.698846,5.770026,-1.355118,171.905518,-2.716064,-85.144043,41.689453
13280,6.133945,3.505111,1.647211,65.032959,66.436768,-59.265137,41.667969
13320,-0.885855,2.676718,0.670376,-0.213623,23.620605,-36.956787,41.660156
13360,-3.591303,2.006341,-1.556231,-63.842773,-1.007080,9.704590,41.689453
13400,0.162806,1.651999,-2.643199,-104.492188,-13.641357,34.332275,41.673828
13440,10.319010,3.706224,-2.480393,-109.710693,-60.974121,16.143799,41.646484
13480,19.967642,5.846641,-2.231396,-94.726562,20.935059,13.824463,41.693359
13520,21.533449,8.374918,-2.920926,-142.944336,-89.202881,18.402100,41.662109
13560,21.203051,5.233725,0.440533,-175.872803,42.358398,62.957764,41.666016
13600,13.105860,3.179500,-0.972046,-166.442871,67.749023,73.760986,41.689453
13640,3.284845,1.130063,-3.270479,-46.905518,44.769287,39.428711,41.671875
13680,-2.274492,-2.719813,-3.763685,95.886230,6.408691,112.670898,41.693359
13720,-3.797204,-4.328717,-3.854665,165.893555,-61.157227,137.817383,41.666016
13760,-2.499547,-3.524265,-0.435745,-32.226562,-61.279297,-60.302734,41.671875
13800,13.421895,-1.833959,-2.240973,6.896973,15.197754,-245.513916,41.675781
13840,23.874979,2.753332,-3.711013,171.081543,-49.896240,-19.805908,41.666016
13880,23.501484,1.292869,-2.102109,90.026855,35.949707,11.993408,41.656250
13920,16.333244,5.702989,-2.724602,178.802490,-52.185059,-75.164795,41.666016
13960,9.193734,5.200206,0.550666,122.924805,65.490723,-71.533203,41.652344
14000,2.695871,2.901772,1.316811,31.341553,53.558350,-45.349121,41.646484
14040,-3.974375,1.843535,-1.230620,-39.642334,-10.284424,-5.737305,41.664062
14080,-2.504335,1.163582,-1.532289,-65.582275,-4.791260,19.836426,41.656250
14120,3.428497,2.489970,-2.293645,-87.707520,-24.230957,30.029297,41.675781
14160,14.705187,3.897760,-2.264915,-69.885254,-42.968750,19.561768,41.662109
14200,20.379444,7.436390,-2.753332,-137.115479,-27.343750,31.036377,41.667969
14240,22.366632,7.867347,-1.302446,-140.960693,-51.361084,22.705078,41.669922
14280,18.928558,4.429273,0.689530,-195.983887,74.523926,67.932129,41.669922
14320,8.892065,2.418144,-2.695871,-120.635986,41.656494,43.975830,41.666016
14360,1.168370,-0.656011,-3.241749,40.588379,46.691895,41.381836,41.662109
14400,-2.537854,-4.884171,-3.888184,177.276611,4.547119,132.965088,41.695312
14440,-4.103662,-4.529830,-2.011129,60.791016,-54.321289,38.604736,41.666016
14480,1.403002,-2.978387,-0.153229,-32.257080,-74.035645,-119.598389,41.675781
14520,19.369091,1.326388,-4.769250,100.738525,-22.644043,-79.010010,41.662109
14560,24.621971,2.375048,-2.925714,123.657227,-15.167236,-17.486572,41.679688
14600,22.189461,2.911349,-2.973598,107.666016,-13.458252,-26.489258,41.679688
14640,13.747506,5.736507,-1.345541,157.470703,0.305176,-83.251953,41.677734
14680,7.062895,3.983952,1.359907,73.120117,61.218262,-64.056396,41.669922
14720,-0.761356,3.055001,0.766145,-17.028809,24.810791,-42.327881,41.652344
14760,-3.902549,1.714248,-1.302446,-77.148438,1.007080,6.561279,41.666016
14800,-0.296881,1.211466,-2.039860,-97.808838,4.760742,31.250000,41.679688
14840,7.024588,3.394978,-2.686294,-126.037598,-38.848877,29.113770,41.664062
14880,19.100941,4.702212,-2.461239,-78.247070,-20.263672,0.274658,41.662109
14920,21.926100,7.010222,-1.924938,-111.633301,-99.304199,20.904541,41.666016
14960,22.768858,6.631939,1.364695,-182.647705,52.154541,56.304932,41.660156
15000,14.949395,3.586514,-0.718261,-219.390869,66.925049,82.580566,41.660156
15040,4.180276,1.216254,-4.122815,-53.833008,14.434814,33.874512,41.666016
15080,-1.000776,-1.584962,-2.782062,49.804688,41.412354,61.523438,41.662109
15120,-2.806004,-4.232949,-3.490746,177.795410,-39.672852,157.409668,41.685547
15160,-3.754108,-3.423708,-0.890643,26.214600,-70.617676,-5.859375,41.703125
15200,5.516241,-2.868254,-0.627281,-41.381836,-51.269531,-198.760986,41.652344
15240,24.353819,1.781286,-5.286397,202.545166,-72.509766,-75.714111,41.679688
15280,25.843014,1.130063,-2.193089,97.686768,35.308838,3.784180,41.667969
15320,19.115307,5.075707,-2.796427,167.327881,-23.010254,-67.199707,41.677734
15360,10.740389,5.626374,-0.205901,136.749268,42.236328,-79.315186,41.666016
15400,4.213795,2.935291,1.651999,47.821045,62.255859,-53.375244,41.673828
15440,-3.241749,2.063802,-0.368707,-26.000977,-3.601074,-24.322510,41.664062
15480,-3.256114,1.470040,-2.102109,-64.239502,-14.190674,13.793945,41.667969
15520,2.121263,2.087744,-2.475605,-89.080811,-16.754150,26.611328,41.662109
15560,12.617443,2.959233,-2.078167,-66.986084,-31.311035,15.502930,41.679688
15600,19.115307,6.162675,-2.188300,-121.765137,-19.958496,35.766602,41.660156
15640,21.471201,8.422802,-1.704672,-128.784180,-52.490234,19.409180,41.669922
15680,19.847933,5.386954,0.368707,-173.004150,26.397705,55.664062,41.660156
15720,11.583148,3.394978,-1.728614,-153.503418,48.828125,52.185059,41.662109
15760,3.198653,0.670376,-3.179500,-17.028809,58.502197,29.449463,41.669922
15800,-1.584962,-4.074931,-3.624821,134.765625,11.657715,126.800537,41.689453
15840,-3.495534,-4.778827,-3.083732,144.470215,-38.757324,143.402100,41.669922
15880,-2.609680,-2.422932,0.177171,-15.716553,-69.030762,-67.993164,41.666016
15920,11.525687,-2.130840,-2.619257,12.207031,23.132324,-242.401123,41.660156
15960,25.024197,3.169923,-4.639963,172.149658,-90.240479,-34.210205,41.656250
16000,25.206156,2.715025,-2.892196,112.396240,33.355713,-6.134033,41.660156
16040,17.094601,5.999869,-2.437297,175.445557,-12.329102,-70.953369,41.644531
16080,9.346964,4.932055,0.995988,102.813721,82.733154,-60.821533,41.644531
16120,1.877054,3.385401,1.359907,18.890381,48.187256,-44.677734,41.656250
16160,-4.697424,2.030283,-0.670376,-38.238525,-1.983643,-7.995605,41.660156
16200,-2.293645,0.952892,-1.465251,-71.197510,-17.272949,25.695801,41.660156
16240,3.380613,2.245761,-2.466028,-93.627930,-47.241211,26.092529,41.666016
16280,15.739482,5.027823,-1.819593,-91.705322,-42.510986,-0.488281,41.666016
16320,21.303606,7.278373,-2.327164,-93.261719,-22.827148,16.723633,41.677734
16360,22.907722,7.728483,-0.229843,-149.597168,-25.939941,42.999268,41.656250
16400,17.798496,5.094861,0.938527,-199.249268,73.913574,76.232910,41.652344
16440,7.872135,2.418144,-2.825158,-134.094238,26.062012,59.875488,41.652344
16480,0.569820,-0.306458,-2.973598,27.496338,28.594971,42.449951,41.669922
16520,-2.360683,-4.122815,-3.418920,173.400879,-30.853271,135.803223,41.660156
16560,-3.490746,-4.932055,-1.805228,62.774658,-51.696777,84.320068,41.666016
16600,1.446098,-3.926491,-0.354342,-44.677734,-80.963135,-126.831055,41.658203
16640,20.810402,1.690306,-5.018247,157.836914,-29.663086,-110.321045,41.662109
16680,25.407269,1.805228,-2.231396,117.889404,17.456055,-10.742188,41.664062
16720,21.499931,3.174711,-3.193865,145.751953,-28.991699,-44.799805,41.666016
16760,13.005303,5.621585,-0.962469,162.170410,25.451660,-88.562012,41.673828
16800,6.330269,3.801992,1.154005,83.129883,69.274902,-64.758301,41.681641
16840,-1.570596,2.552219,0.703895,-18.951416,17.272949,-34.210205,41.673828
16880,-3.950433,1.173159,-1.589750,-58.654785,-10.864258,7.934570,41.652344
16920,0.090980,0.708684,-1.891419,-70.159912,-8.453369,29.998779,41.642578
16960,8.815451,3.342306,-1.661576,-69.458008,-49.926758,23.895264,41.642578
17000,19.364304,6.675035,-2.427721,-97.900391,-16.113281,17.456055,41.658203
17040,21.624430,8.829816,-2.106898,-174.133301,-45.593262,29.724121,41.666016
17080,20.829556,5.128380,0.268151,-170.593262,9.033203,54.290771,41.646484
17120,13.273455,2.557007,-0.656011,-176.055908,84.625244,67.993164,41.662109
17160,3.399766,1.043872,-3.610456,-29.876709,27.648926,21.423340,41.666016
17200,-2.384625,-3.122039,-3.734955,145.080566,-2.014160,66.284180,41.662109
17240,-3.639187,-5.286397,-2.959233,118.560791,-51.971436,40.130615,41.673828
17280,-0.229843,-4.218584,-0.196325,-15.228271,-65.582275,-58.959961,41.640625
17320,14.460979,-0.632069,-2.126051,25.573730,27.343750,-36.041260,41.652344
17360,22.500708,2.260126,-4.424485,159.027100,-90.057373,-28.015137,41.683594
17400,23.894133,1.125275,-3.126827,104.980469,16.754150,-12.207031,41.646484
17440,17.262194,5.238513,-2.403779,162.200928,-24.841309,-79.559326,41.664062
17480,9.533711,4.209007,0.421380,102.264404,50.476074,-69.244385,41.666016
17520,1.551443,2.978387,1.493982,23.254395,36.743164,-55.969238,41.681641
17560,-4.659117,2.408567,-0.545878,-43.762207,2.960205,-16.723633,41.656250
17600,-1.642422,1.379060,-2.154782,-85.144043,4.821777,25.360107,41.644531
17640,4.687847,2.217031,-3.083732,-99.945068,-27.496338,16.510010,41.650391
17680,16.146496,3.964798,-1.987187,-92.651367,-42.846680,-3.082275,41.652344
17720,20.848709,7.034164,-2.729390,-113.189697,-42.083740,23.925781,41.679688
17760,22.361843,7.105990,-0.316035,-156.768799,-14.434814,40.527344,41.652344
17800,17.707516,4.328717,0.311246,-177.124023,59.875488,71.197510,41.648438
17840,8.767567,2.786851,-1.479617,-154.205322,122.894287,55.511475,41.673828
17880,0.459687,-0.229843,-3.859453,12.207031,28.472900,53.558350,41.675781
17920,-2.389413,-4.347870,-4.323928,176.635742,-59.082031,149.993896,41.646484
17960,-3.232172,-4.113238,-2.810793,134.796143,-59.509277,83.160400,41.675781
18000,0.952892,-3.744531,0.186748,-83.221436,-85.174561,-160.675049,41.652344
18040,21.078552,0.823605,-4.601655,169.738770,9.277344,-138.946533,41.646484
18080,24.516624,2.351106,-1.675941,107.330322,-4.791260,-1.983643,41.671875
18120,21.634007,2.691083,-2.896984,123.962402,-17.761230,-12.054443,41.636719
18160,13.330915,6.196194,-0.804452,169.525146,-1.037598,-82.733154,41.650391
18200,6.550536,3.859453,0.948104,73.547363,71.990967,-47.424316,41.669922
18240,-1.450886,3.313575,-0.110133,-2.990723,7.263184,-31.829834,41.662109
18280,-4.012682,1.656788,-1.149217,-59.082031,-13.366699,3.204346,41.650391
18320,-0.023942,1.101333,-1.599327,-73.333740,-13.854980,25.604248,41.660156
18360,9.217676,3.519476,-2.398990,-107.696533,-23.101807,36.804199,41.646484
18400,19.536686,4.323928,-3.275268,-88.897705,-16.326904,28.076172,41.658203
18440,21.203051,7.728483,-2.217031,-154.724121,-50.140381,27.282715,41.642578
18480,20.623653,5.544971,0.703895,-165.618896,26.123047,46.539307,41.660156
18520,12.909535,2.901772,-1.000776,-180.236816,46.844482,62.042236,41.656250
18560,3.653552,0.665588,-3.222595,-27.587891,49.621582,29.083252,41.646484
18600,-1.948880,-3.332729,-3.658340,128.875732,24.383545,91.796875,41.650391
18640,-3.821146,-4.788404,-3.093309,176.910400,-49.835205,91.888428,41.658203
18680,-1.896208,-3.543418,-0.421380,-26.702881,-81.726074,-71.258545,41.642578
18720,13.843274,-2.001553,-2.446874,38.879395,-7.354736,-142.395020,41.642578
18760,24.799141,2.202666,-4.635174,167.205811,-88.562012,-29.144287,41.650391
18800,23.942017,2.130840,-3.299210,108.856201,41.442871,-11.260986,41.685547
18840,15.749059,5.908890,-2.901772,157.836914,-45.043945,-73.211670,41.662109
18880,8.820239,4.534618,0.445322,107.299805,52.276611,-67.901611,41.673828
18920,1.877054,2.427721,1.422156,16.265869,57.281494,-42.755127,41.652344
18960,-4.357447,2.035071,-0.713472,-37.780762,-2.349854,-10.620117,41.669922
19000,-1.996764,1.297657,-1.527501,-85.449219,-10.864258,29.754639,41.636719
19040,3.782839,2.274492,-2.202666,-115.417480,-9.521484,28.533936,41.664062
19080,16.151285,4.410120,-2.949656,-84.472656,-50.109863,-6.134033,41.664062
19120,21.480778,5.995081,-3.074155,-93.017578,-32.592773,19.927979,41.662109
19160,23.195026,6.775591,-0.972046,-158.111572,-33.721924,37.658691,41.660156
19200,19.120094,4.477157,0.861913,-206.726074,111.602783,75.622559,41.638672
19240,8.307879,2.614468,-3.064578,-129.882812,39.306641,48.126221,41.650391
19280,0.991199,-0.397437,-2.887407,9.582520,52.795410,34.301758,41.650391
19320,-2.432509,-3.936068,-3.428497,142.669678,-10.772705,141.448975,41.667969
19360,-3.869030,-3.730166,-2.710236,125.274658,-59.143066,104.187012,41.636719
19400,-0.387861,-3.189077,-0.153229,-65.032959,-94.635010,-155.944824,41.658203
19440,21.159954,-0.172383,-5.243302,168.426514,5.096436,-132.537842,41.654297
19480,25.215733,1.920150,-1.877054,129.516602,-2.136230,-9.765625,41.654297
19520,21.930887,2.853889,-2.920926,140.869141,-1.983643,-19.134521,41.640625
19560,13.235147,6.282385,-0.967257,169.830322,20.721436,-86.486816,41.642578
19600,6.430826,3.653552,1.436521,75.897217,73.211670,-60.180664,41.656250
19640,-1.326388,2.327164,0.383072,-5.157471,21.789551,-36.041260,41.650391
19680,-4.711789,1.460463,-1.628057,-42.022705,-19.134521,-9.185791,41.654297
19720,-0.723049,1.963245,-1.905785,-62.591553,-11.627197,12.268066,41.646484
19760,7.752425,3.749320,-2.470816,-71.990967,-66.650391,12.969971,41.646484
19800,18.713081,5.511452,-2.260126,-75.408936,-20.141602,11.138916,41.644531
19840,21.399374,8.643068,-2.097321,-126.251221,-56.976318,29.724121,41.650391
19880,20.930111,7.594408,-0.019154,-169.830322,-10.375977,51.879883,41.636719
19920,14.532804,5.918467,0.272939,-175.567627,90.850830,47.424316,41.646484
19960,5.391742,1.805228,-3.141193,-69.213867,52.520752,32.318115,41.636719
20000,-0.694318,-4.055778,-4.525041,103.973389,15.014648,102.203369,41.640625
20040,-2.715025,-5.640739,-4.094085,203.338623,-33.325195,128.051758,41.632812
20080,-2.715025,-3.308787,-0.148441,-0.488281,-40.252686,-19.622803,41.638672
20120,7.781156,-2.255338,-1.321599,-33.264160,-27.160645,-199.218750,41.638672
20160,22.242134,3.567361,-5.281609,177.978516,-120.513916,-9.765625,41.638672
20200,24.430433,2.940080,-1.963245,111.694336,55.114746,-7.141113,41.632812
20240,19.215862,4.611232,-3.466804,173.004150,-36.041260,-56.732178,41.644531
20280,10.917560,5.444415,-0.186748,144.287109,49.438477,-71.868896,41.646484
20320,3.835511,3.514688,1.948880,42.144775,69.946289,-49.743652,41.632812
20360,-3.442862,2.389413,0.023942,-23.132324,6.835938,-22.064209,41.644531
20400,-2.442086,1.149217,-1.436521,-66.741943,-3.112793,18.524170,41.638672
20440,2.451663,1.944092,-2.451663,-104.339600,5.401611,36.987305,41.666016
20480,13.383588,5.257667,-2.983175,-108.612061,-59.265137,-9.185791,41.664062
20520,19.196709,5.674258,-2.255338,-82.977295,-12.969971,16.265869,41.640625
20560,22.074539,7.556100,-1.125275,-173.217773,-87.738037,43.365479,41.630859
20600,20.106506,5.525817,1.321599,-217.620850,74.188232,78.399658,41.636719
20640,10.778696,3.016694,-2.207454,-198.455811,54.290771,73.608398,41.640625
20680,1.934515,0.804452,-3.711013,-41.442871,41.412354,37.322998,41.646484
20720,-1.690306,-3.356671,-3.289633,161.437988,-41.137695,130.889893,41.650391
20760,-2.624045,-4.831499,-3.241749,172.149658,-55.419922,109.558105,41.652344
20800,-1.829170,-3.576937,-0.114922,-72.265625,-85.571289,-75.378418,41.652344
20840,14.944607,-2.293645,-3.912126,48.217773,26.000977,-256.927490,41.646484
20880,25.153482,3.677494,-3.754108,166.198730,-64.514160,-26.367188,41.648438
20920,24.090458,2.102109,-2.422932,127.655029,51.025391,-7.507324,41.654297
20960,13.929465,6.330269,-2.403779,188.079834,-31.890869,-82.000732,41.652344
21000,7.316680,4.654328,1.244985,77.301025,92.926025,-60.546875,41.607422
21040,0.416591,2.825158,1.288081,6.256104,43.914795,-25.390625,41.662109
21080,-4.735731,1.527501,-1.077391,-39.611816,-8.453369,4.180908,41.652344
21120,-1.163582,1.541866,-1.671153,-73.303223,-22.460938,33.874512,41.656250
21160,8.365341,4.371812,-2.097321,-99.731445,-68.969727,26.000977,41.656250
21200,19.469648,5.137957,-2.552219,-83.282471,-14.770508,17.578125,41.658203
21240,21.868639,8.216900,-2.207454,-159.210205,-58.624268,24.139404,41.642578
21280,21.705833,5.142745,0.316035,-194.580078,28.411865,68.725586,41.656250
21320,12.732365,2.705448,-1.790863,-150.939941,-7.019043,63.751221,41.646484
21360,4.165911,1.072602,-2.810793,-24.536133,50.018311,21.789551,41.660156
21400,-1.537078,-3.193865,-3.548207,46.569824,33.081055,38.269043,41.636719
21440,-4.434062,-4.922479,-3.055001,76.690674,-8.544922,1.281738,41.654297
21480,0.330400,-3.758897,-0.095768,36.132812,-21.362305,-11.291504,41.636719
21520,13.517663,0.019154,-2.700660,57.250977,-27.099609,2.410889,41.648438
21560,21.260511,1.939303,-2.585738,138.793945,-14.129639,-20.172119,41.652344
21600,22.893356,0.292093,-2.288857,123.352051,-18.951416,-16.876221,41.636719
21640,18.200722,3.667917,-1.321599,177.917480,7.263184,-74.493408,41.634766
21680,10.591949,4.074931,0.134075,130.249023,40.283203,-76.232910,41.656250
21720,2.485181,2.839523,0.948104,49.041748,25.238037,-56.335449,41.634766
21760,-3.993528,1.963245,-0.402226,-38.970947,-19.622803,-14.343262,41.646484
21800,-1.953669,1.264138,-0.656011,-63.232422,-9.979248,15.533447,41.644531
21840,2.762909,2.068590,-1.446098,-85.205078,-15.289307,27.496338,41.650391
21880,11.166556,3.280056,-2.437297,-84.289551,-49.987793,30.578613,41.621094
21920,20.944477,5.961562,-2.341529,-75.775146,-28.411865,12.298584,41.642578
21960,23.573311,7.287950,-0.914585,-146.362305,-21.392822,41.870117,41.636719
22000,19.206285,4.304775,0.076614,-167.968750,22.766113,63.598633,41.656250
22040,9.955091,2.767697,-2.207454,-109.405518,28.137207,44.097900,41.623047
22080,2.724602,0.129287,-3.193865,-7.354736,68.725586,14.892578,41.640625
22120,-2.288857,-4.309563,-3.725378,97.564697,17.913818,35.797119,41.628906
22160,-4.118027,-4.453215,-1.675941,86.761475,-24.383545,3.173828,41.652344
22200,1.584962,-2.585738,0.263362,6.988525,-76.141357,-31.127930,41.625000
22240,16.816874,0.090980,-4.036624,82.824707,-16.845703,-4.791260,41.646484
22280,23.137566,1.019930,-3.107674,158.782959,-43.334961,-26.428223,41.640625
22320,22.845472,1.742979,-3.145981,134.613037,-19.226074,-19.989014,41.632812
22360,15.107412,5.592855,-2.015918,173.187256,-9.582520,-81.359863,41.652344
22400,7.843405,4.108450,1.115698,89.019775,75.042725,-65.460205,41.638672
22440,0.028730,2.624045,0.967257,16.357422,17.517090,-44.891357,41.642578
22480,-3.830723,2.135628,-1.168370,-52.246094,-16.937256,1.159668,41.642578
22520,-0.282516,2.039860,-1.800440,-99.945068,-14.312744,28.533936,41.630859
22560,7.249643,3.198653,-2.992752,-131.103516,-38.024902,15.411377,41.650391
22600,18.128895,3.581726,-2.667141,-103.302002,3.326416,16.296387,41.628906
22640,21.351490,7.264008,-3.811569,-116.271973,-78.552246,18.249512,41.642578
22680,22.309172,6.234501,-0.114922,-169.494629,16.326904,55.847168,41.646484
22720,15.605407,3.945644,-0.143652,-190.582275,119.598389,69.610596,41.660156
22760,5.257667,1.752556,-3.045424,-79.193115,48.828125,29.510498,41.636719
22800,-0.837971,-2.284068,-3.275268,92.926025,4.638672,67.199707,41.650391
22840,-2.724602,-5.080496,-3.869030,212.158203,-60.302734,124.298096,41.623047
22880,-2.571373,-3.998317,-0.995988,12.298584,-52.032471,-4.669189,41.632812
22920,7.125144,-3.303998,-0.914585,-70.312500,-38.330078,-199.462891,41.646484
22960,23.257275,2.829947,-5.219360,174.041748,-75.256348,-23.925781,41.640625
23000,24.799141,1.594538,-2.370260,123.718262,73.486328,-15.808105,41.636719
23040,18.076223,5.056554,-3.773262,171.844482,-50.476074,-69.213867,41.634766
23080,10.381259,5.793968,-0.129287,135.833740,48.736572,-81.512451,41.650391
23120,3.576937,3.361459,1.656788,35.705566,53.253174,-48.461914,41.646484
23160,-4.821922,2.331953,0.033519,-41.778564,-12.420654,-12.695312,41.660156
23200,-2.705448,1.690306,-0.976834,-79.986572,-14.068604,25.054932,41.623047
23240,3.213019,2.193089,-1.470040,-101.898193,-11.108398,33.782959,41.638672
23280,11.731588,3.782839,-2.308010,-119.842529,-31.951904,24.536133,41.658203
23320,20.087353,5.521029,-3.538630,-92.376709,-28.289795,16.174316,41.632812
23360,23.726540,7.177817,-0.957681,-173.828125,-65.948486,47.424316,41.640625
23400,20.599712,4.970363,0.732626,-197.692871,66.009521,80.902100,41.650391
23440,10.237606,3.011906,-3.088520,-116.302490,25.848389,53.771973,41.636719
23480,2.710236,0.574608,-3.227384,-0.274658,50.109863,21.972656,41.660156
23520,-2.499547,-4.467580,-3.442862,152.587891,12.359619,41.992188,41.652344
23560,-4.568137,-5.568913,-1.608904,83.343506,-15.228271,19.348145,41.626953
23600,1.374272,-3.538630,-0.019154,-0.305176,-76.538086,-33.081055,41.636719
23640,16.199169,1.340753,-4.161122,80.078125,-20.385742,-12.481689,41.642578
23680,22.864626,0.861913,-3.016694,138.153076,-41.229248,-31.188965,41.636719
23720,23.281218,1.168370,-3.136404,126.922607,-22.521973,-23.559570,41.630859
23760,16.036364,4.764462,-1.498770,163.726807,22.308350,-83.587646,41.658203
23800,8.585608,4.041412,0.775721,92.376709,65.734863,-73.730469,41.658203
23840,-0.258574,3.050213,0.488417,8.544922,25.512695,-51.177979,41.634766
23880,-4.592079,1.426944,-0.756568,-59.692383,-6.805420,0.610352,41.650391
23920,-0.780510,1.211466,-0.684742,-71.228027,-18.005371,22.613525,41.642578
23960,4.625597,2.217031,-1.972822,-98.022461,-21.972656,25.024414,41.640625
24000,15.433024,2.978387,-3.102885,-84.838867,-46.630859,11.077881,41.619141
24040,22.404940,6.181829,-3.093309,-107.879639,-52.490234,22.094727,41.640625
24080,23.961170,6.612785,-0.407014,-165.863037,-1.281738,44.433594,41.640625
24120,17.793707,4.113238,-0.105345,-204.345703,109.619141,72.357178,41.652344
24160,7.153875,2.240973,-2.786851,-107.696533,50.079346,30.548096,41.658203
24200,0.622492,-0.823605,-2.231396,16.693115,72.052002,32.104492,41.630859
24240,-2.398990,-4.879383,-4.582502,232.177734,-61.981201,116.271973,41.638672
24280,-3.677494,-4.572925,-1.656788,72.265625,-56.610107,50.354004,41.632812
24320,1.948880,-3.878607,0.330400,-87.677002,-95.306396,-150.421143,41.632812
24360,20.800825,1.359907,-5.190629,125.305176,-22.308350,-72.509766,41.646484
24400,25.766399,2.183512,-2.159570,133.605957,34.088135,-26.123047,41.623047
24440,21.768082,3.232172,-3.663129,139.892578,-24.566650,-45.806885,41.644531
24480,12.445061,5.894525,-0.727837,159.606934,31.951904,-87.219238,41.650391
24520,5.770026,3.643975,1.824382,49.072266,76.477051,-53.649902,41.650391
24560,-2.145205,2.408567,0.067038,-16.876221,-0.061035,-25.299072,41.642578
24600,-3.883395,1.115698,-1.398214,-59.051514,-10.498047,17.303467,41.652344
24640,0.378284,1.900996,-1.723825,-83.801270,-16.571045,30.090332,41.646484
24680,10.251971,4.266468,-2.245761,-101.470947,-60.150146,22.399902,41.621094
24720,20.599712,5.114015,-2.959233,-88.378906,-23.345947,19.439697,41.632812
24760,23.918076,7.857770,-1.407791,-166.503906,-42.633057,35.491943,41.646484
24800,21.231781,4.912902,0.545878,-189.086914,57.861328,77.728271,41.648438
24840,10.922348,3.265691,-2.379837,-136.962891,35.705566,50.903320,41.623047
24880,2.700660,0.775721,-3.490746,-4.913330,30.334473,5.157471,41.648438
24920,-2.777274,-4.697424,-3.667917,78.063965,28.564453,28.900146,41.656250
24960,-4.673482,-5.114015,-2.523489,84.838867,-25.115967,7.110596,41.652344
25000,0.062249,-2.298434,0.521936,50.384521,-30.731201,-20.355225,41.640625
25040,10.347740,0.100556,-1.307234,41.442871,-10.559082,-10.162354,41.638672
25080,21.270088,1.450886,-3.481169,147.491455,-112.426758,-20.751953,41.644531
25120,24.147919,1.000776,-1.857901,119.720459,11.627197,-16.815186,41.632812
25160,18.478449,4.802769,-1.613692,176.269531,15.747070,-82.000732,41.632812
25200,10.453085,4.510676,0.598550,117.187500,75.622559,-73.974609,41.632812
25240,2.346318,3.347094,1.000776,33.325195,36.529541,-55.023193,41.660156
25280,-4.678270,1.546654,-0.708684,-48.370361,-7.171631,-3.265381,41.648438
25320,-2.078167,1.125275,-1.273715,-58.197021,-19.409180,27.099609,41.630859
25360,4.582502,3.227384,-1.833959,-89.721680,-32.135010,33.630371,41.636719
25400,15.883134,4.108450,-2.475605,-90.637207,-43.640137,17.669678,41.642578
25440,22.175097,6.440403,-2.542642,-122.650146,-94.879150,25.360107,41.640625
25480,24.368185,6.569689,0.727837,-168.853760,18.493652,54.138184,41.642578
25520,17.056293,3.883395,0.148441,-214.202881,109.344482,80.657959,41.630859
25560,5.578490,1.915361,-3.313575,-90.393066,26.275635,35.278320,41.646484
25600,-0.110133,-1.786075,-3.313575,63.995361,39.489746,49.285889,41.642578
25640,-2.638410,-5.434838,-5.013458,256.317139,-53.710938,91.033936,41.632812
25680,-2.901772,-5.425261,-1.115698,15.655518,-106.964111,-14.862061,41.628906
25720,9.332599,-3.840300,-0.009577,-28.717041,35.339355,-113.189697,41.628906
25760,22.294806,3.466804,-5.295974,170.867920,-110.321045,-28.381348,41.632812
25800,25.546133,1.618480,-2.288857,107.574463,45.959473,-20.507812,41.634766
25840,18.847157,3.878607,-2.657564,183.074951,23.864746,-85.998535,41.640625
25880,10.160992,4.050989,0.373495,126.922607,53.466797,-80.078125,41.628906
25920,2.245761,3.600879,2.006341,17.913818,45.867920,-59.082031,41.640625
25960,-4.654328,1.790863,-0.746991,-58.197021,-14.190674,-7.751465,41.648438
26000,-2.020706,1.364695,-0.818817,-81.237793,-4.211426,23.132324,41.626953
26040,3.002329,3.629610,-1.900996,-114.410400,-24.810791,31.768799,41.632812
26080,14.164097,4.620809,-2.935291,-98.114014,-56.793213,0.305176,41.644531
26120,22.021868,4.841076,-2.466028,-110.473633,-75.042725,14.862061,41.662109
26160,25.258827,5.233725,0.071826,-157.989502,33.508301,56.701660,41.632812
26200,18.497602,3.356671,-0.938527,-205.505371,39.062500,102.050781,41.623047
26240,7.967903,2.557007,-3.299210,-65.246582,41.809082,41.809082,41.671875
26280,1.043872,-0.651223,-2.916138,36.315918,69.122314,14.038086,41.634766
26320,-4.438850,-4.007894,-2.987964,120.086670,2.532959,6.805420,41.652344
26360,-3.605668,-4.084508,-1.058237,77.819824,-48.095703,-26.123047,41.652344
26400,4.424485,-3.457227,0.052672,45.288086,-42.236328,2.838135,41.632812
26440,16.596605,1.388637,-4.707001,123.352051,-73.638916,-5.035400,41.625000
26480,24.689009,1.599327,-2.446874,133.911133,-7.568359,-32.287598,41.625000
26520,22.888569,2.360683,-2.815581,149.505615,-20.355225,-46.020508,41.615234
26560,15.116989,4.802769,-0.857124,160.186768,33.081055,-80.749512,41.632812
26600,8.614338,3.222595,1.651999,68.267822,73.272705,-55.786133,41.630859
26640,-0.282516,3.174711,-0.124498,-19.836426,16.113281,-32.928467,41.630859
26680,-4.778827,1.738190,-0.981623,-80.963135,-3.143311,13.458252,41.646484
26720,-0.751779,1.982399,-1.915361,-86.547852,-28.137207,29.022217,41.613281
26760,8.671799,2.748544,-2.303222,-81.024170,-63.201904,19.714355,41.644531
26800,19.124884,3.227384,-2.671929,-78.216553,-47.973633,17.974854,41.654297
26840,22.433670,6.742072,-1.489193,-121.643066,-28.411865,37.414551,41.638672
26880,20.882227,5.272032,-0.100556,-170.776367,40.496826,68.786621,41.644531
26920,12.114660,2.940080,-2.207454,-132.202148,18.280029,52.856445,41.650391
26960,5.128380,0.689530,-2.691083,-30.822754,65.704346,17.456055,41.660156
27000,-0.574608,-3.888184,-3.505111,59.570312,41.412354,25.787354,41.630859
27040,-4.874595,-4.381389,-2.580950,94.879150,-8.087158,18.127441,41.646484
27080,-2.030283,-1.977611,1.005565,53.192139,-3.723145,-21.240234,41.617188
27120,6.129156,-1.771709,0.167594,32.409668,-60.577393,-11.566162,41.642578
27160,19.498379,2.078167,-4.874595,119.720459,-103.820801,-19.592285,41.626953
27200,25.828648,0.574608,-2.466028,133.270264,25.817871,-16.326904,41.630859
27240,21.145590,3.543418,-2.035071,168.548584,6.744385,-65.826416,41.650391
27280,12.646173,4.960786,0.316035,125.518799,64.636230,-80.413818,41.632812
27320,5.578490,3.217807,1.632846,51.239014,50.048828,-50.323486,41.623047
27360,-3.055001,1.886631,-0.454898,-24.261475,2.899170,-11.322021,41.642578
27400,-3.308787,1.115698,-1.010353,-56.701660,-11.596680,26.916504,41.626953
27440,2.442086,3.131616,-1.929727,-80.047607,-27.404785,26.855469,41.628906
27480,13.608643,4.381389,-2.274492,-96.771240,-55.114746,-9.185791,41.632812
27520,21.054609,4.711789,-2.485181,-98.236084,-80.322266,25.543213,41.650391
27560,22.941240,5.597643,0.397437,-157.073975,-18.676758,82.061768,41.630859
27600,17.496826,4.936844,0.426168,-176.544189,29.510498,85.205078,41.625000
27640,8.365341,4.007894,-1.656788,-122.070312,43.365479,37.445068,41.638672
27680,1.230620,0.507571,-2.782062,-64.849854,46.020508,11.108398,41.611328
27720,-2.298434,-5.176264,-3.845088,77.423096,-22.857666,80.474854,41.621094
27760,-3.366248,-4.903325,-3.026271,123.565674,-39.337158,6.835938,41.623047
27800,3.179500,-3.007117,0.095768,-29.327393,-71.380615,-89.294434,41.625000
27840,19.804836,1.029507,-5.798757,113.464355,-58.197021,-24.658203,41.621094
27880,25.239674,-0.143652,-3.251326,122.375488,12.664795,-36.712646,41.630859
27920,20.958841,2.039860,-3.624821,162.231445,-19.165039,-64.758301,41.626953
27960,12.780249,5.090073,-0.857124,133.300781,24.444580,-83.862305,41.642578
28000,6.047753,3.394978,1.110910,50.354004,53.497314,-57.312012,41.634766
28040,-2.480393,2.906561,-0.229843,-35.339355,10.589600,-30.853271,41.625000
28080,-3.485958,1.733402,-1.053449,-80.932617,-0.274658,9.979248,41.628906
28120,1.168370,1.522712,-2.039860,-82.000732,-1.770020,19.866943,41.630859
28160,9.528923,2.911349,-2.829947,-80.596924,-33.691406,4.058838,41.628906
28200,20.360291,4.659117,-3.203442,-84.686279,-74.554443,16.174316,41.630859
28240,23.482330,6.866570,-1.312023,-134.643555,-20.568848,46.386719,41.607422
28280,20.896593,5.262455,-0.608127,-177.062988,37.841797,69.671631,41.617188
28320,11.990162,3.476381,-2.063802,-139.251709,48.583984,57.250977,41.626953
28360,3.284845,0.895431,-2.552219,-56.579590,77.087402,33.172607,41.640625
28400,-2.379837,-3.936068,-3.447650,100.646973,5.065918,116.973877,41.630859
28440,-4.060566,-4.553771,-3.533842,168.731689,-17.303467,88.348389,41.623047
28480,-2.121263,-2.695871,0.071826,9.796143,-67.108154,-85.968018,41.640625
28520,10.965444,-2.082955,-2.700660,21.087646,-0.091553,-145.843506,41.621094
28560,23.860615,2.389413,-3.720589,166.076660,-83.099365,-26.733398,41.636719
28600,24.382549,3.399766,-1.762132,110.992432,19.927979,-17.761230,41.605469
28640,18.464083,4.730943,-2.082955,176.544189,6.439209,-63.293457,41.650391
28680,10.414778,3.821146,0.550666,120.605469,48.614502,-64.941406,41.628906
28720,2.250550,2.806004,0.699107,30.792236,35.430908,-40.802002,41.630859
28760,-4.204218,1.953669,-0.469264,-44.403076,6.683350,-2.655029,41.642578
28800,-1.838747,1.130063,-1.537078,-63.018799,7.385254,28.076172,41.621094
28840,3.931279,2.715025,-2.025495,-80.047607,-33.813477,39.550781,41.613281
28880,14.571112,4.400543,-1.786075,-82.672119,-51.666260,7.781982,41.621094
28920,21.533449,6.560112,-2.106898,-131.744385,-65.002441,22.735596,41.632812
28960,23.822308,6.014235,-0.430956,-176.544189,-5.798340,57.708740,41.619141
29000,17.046717,3.682282,-0.866701,-205.322266,77.087402,72.845459,41.621094
29040,6.780379,2.169147,-3.586514,-97.656250,54.779053,29.937744,41.636719
29080,0.842759,-0.703895,-3.299210,84.045410,28.381348,10.620117,41.640625
29120,-3.394978,-5.420473,-3.088520,146.759033,-31.585693,52.764893,41.640625
29160,-3.280056,-5.391742,-0.723049,0.305176,-50.476074,-10.681152,41.634766
29200,6.081272,-3.289633,-0.560243,-8.361816,-29.388428,-54.443359,41.630859
29240,20.561403,2.035071,-4.639963,165.313721,-71.502686,-37.841797,41.642578
29280,24.114399,1.340753,-1.139640,103.607178,28.381348,-10.894775,41.623047
29320,20.250158,3.931279,-1.987187,159.271240,5.493164,-67.810059,41.636719
29360,12.564771,4.553771,-0.866701,150.360107,47.363281,-82.397461,41.607422
29400,5.372589,2.504335,0.952892,54.931641,51.025391,-51.696777,41.630859
29440,-3.227384,2.676718,0.043096,-21.850586,-1.190186,-22.460938,41.607422
29480,-3.303998,1.776498,-1.268927,-63.140869,-9.185791,20.751953,41.623047
29520,2.245761,2.197877,-2.092532,-93.200684,-22.033691,37.445068,41.625000
29560,11.444284,3.232172,-1.948880,-81.420898,-41.809082,8.087158,41.621094
29600,19.776106,5.200206,-1.561020,-109.985352,-45.501709,22.308350,41.623047
29640,23.271641,6.876147,-0.153229,-170.776367,-26.580811,53.466797,41.607422
29680,19.551050,5.185841,0.909797,-172.851562,57.434082,66.101074,41.632812
29720,9.457097,2.580950,-3.045424,-122.833252,37.170410,33.020020,41.630859
29760,1.719037,-1.110910,-4.185065,24.414062,26.977539,7.232666,41.642578
29800,-2.844312,-5.774815,-3.830723,149.749756,-8.911133,46.783447,41.654297
29840,-4.477157,-4.113238,-0.895431,70.770264,-6.988525,8.666992,41.634766
29880,0.239420,-2.111686,-0.014365,36.285400,-97.686768,-43.945312,41.625000
29920,15.897499,-0.780510,-3.658340,93.048096,-18.371582,-22.613525,41.619141
29960,26.891674,1.824382,-2.389413,143.524170,-27.954102,-19.073486,41.630859
30000,23.415293,2.375048,-3.117251,131.103516,-6.774902,-19.866943,41.646484
30040,14.408306,5.114015,-1.862689,165.405273,-7.965088,-79.010010,41.623047
30080,8.025364,3.763685,1.819593,72.631836,70.373535,-64.605713,41.636719
30120,-0.857124,2.758120,-0.210690,-14.678955,23.254395,-36.285400,41.621094
30160,-3.931279,1.110910,-1.029507,-64.727783,4.669189,13.275146,41.621094
30200,0.033519,1.575385,-1.417367,-79.589844,3.143311,30.609131,41.628906
30240,8.911219,4.046201,-2.849100,-110.900879,-62.103271,10.559082,41.626953
30280,21.217415,3.385401,-2.676718,-78.918457,-43.487549,15.502930,41.646484
30320,24.827871,5.961562,-1.991976,-126.464844,-53.100586,49.072266,41.634766
30360,22.050598,6.042965,0.646434,-194.610596,81.176758,70.617676,41.644531
30400,10.797850,2.705448,-2.815581,-161.590576,58.074951,69.885254,41.630859
30440,1.637634,-0.268151,-3.428497,-9.582520,56.365967,20.507812,41.632812
30480,-2.446874,-4.616021,-4.046201,157.196045,-7.232666,97.991943,41.636719
30520,-4.596867,-4.984728,-2.686294,141.693115,-42.938232,58.624268,41.646484
30560,-0.670376,-3.476381,0.608127,-7.598877,-62.469482,-61.676025,41.652344
30600,15.476120,-0.158017,-3.562572,94.055176,10.406494,-131.042480,41.642578
30640,25.704149,0.679953,-3.078943,122.833252,-42.114258,-18.463135,41.636719
30680,24.061728,1.005565,-3.232172,149.810791,-12.939453,-28.656006,41.652344
30720,15.796943,5.090073,-1.441309,176.666260,18.524170,-96.893311,41.646484
30760,8.513782,3.658340,1.556231,79.315186,74.798584,-71.258545,41.658203
30800,-0.780510,2.580950,0.301669,-7.110596,21.057129,-38.787842,41.646484
30840,-3.979163,1.101333,-1.173159,-53.466797,-9.338379,8.178711,41.626953
30880,-0.110133,1.522712,-1.647211,-70.678711,-9.399414,21.179199,41.642578
30920,7.484274,3.337517,-2.183512,-94.451904,-29.052734,17.456055,41.650391
30960,17.065870,3.385401,-2.782062,-87.066650,-33.630371,15.380859,41.615234
31000,22.620419,6.780379,-1.685518,-163.513184,-44.982910,42.327881,41.640625
31040,21.758505,5.990293,0.464475,-156.188965,12.908936,49.804688,41.638672
31080,13.436260,3.960010,-1.120486,-190.277100,55.816650,62.774658,41.630859
31120,3.950433,1.082179,-3.940856,-27.343750,39.062500,7.904053,41.636719
31160,-1.714248,-4.534618,-4.414908,136.627197,-8.605957,8.148193,41.630859
31200,-4.443638,-6.019023,-1.814805,99.822998,-3.479004,25.726318,41.646484
31240,-1.446098,-2.849100,0.785298,41.290283,-37.689209,-17.272949,41.656250
31280,8.025364,-1.182736,-0.972046,21.331787,-13.549805,-12.664795,41.628906
31320,22.974760,1.833959,-5.228937,132.110596,-115.966797,-21.972656,41.636719
31360,25.661055,1.690306,-2.609680,118.988037,39.337158,-30.700684,41.626953
31400,19.982008,4.333505,-2.566584,144.653320,-18.310547,-73.852539,41.628906
31440,11.204864,4.572925,0.407014,107.971191,37.628174,-76.934814,41.619141
31480,2.829947,3.174711,1.714248,18.218994,36.743164,-57.220459,41.632812
31520,-4.022259,1.699883,-0.627281,-51.300049,-9.155273,-14.343262,41.621094
31560,-2.145205,0.823605,-1.221043,-79.589844,-4.669189,26.763916,41.646484
31600,2.111686,1.924938,-1.465251,-96.038818,-13.305664,34.210205,41.642578
31640,13.642161,4.563348,-2.647987,-102.203369,-44.158936,12.542725,41.621094
31680,22.529438,6.014235,-3.481169,-117.858887,-52.917480,25.268555,41.619141
31720,24.243687,7.445967,-0.488417,-181.671143,7.202148,39.276123,41.636719
31760,18.665197,4.491522,0.675165,-195.709229,85.388184,65.765381,41.640625
31800,6.837840,1.675941,-3.040636,-121.490479,47.363281,43.792725,41.640625
31840,-1.345541,-1.139640,-3.916914,67.504883,15.350342,15.472412,41.619141
31880,-4.687847,-4.577713,-4.046201,151.306152,-51.818848,54.809570,41.603516
31920,-2.518700,-5.037400,-1.091756,13.702393,-43.304443,-13.122559,41.626953
31960,7.244854,-3.452439,-0.387861,-11.291504,-47.698975,-33.416748,41.630859
32000,21.605276,3.308787,-5.137957,162.902832,-70.861816,-57.525635,41.621094
32040,26.240450,0.694318,-2.710236,105.102539,35.797119,-4.882812,41.626953
32080,20.853497,4.094085,-2.796427,166.778564,32.867432,-63.934326,41.626953
32120,12.066776,5.698200,0.134075,140.441895,69.274902,-83.160400,41.650391
32160,4.290410,3.088520,1.412579,42.144775,71.777344,-40.954590,41.625000
32200,-4.405331,1.814805,-0.828394,-31.433105,-12.573242,-9.613037,41.650391
32240,-3.519476,0.814029,-1.484405,-66.467285,-10.101318,23.071289,41.628906
32280,1.407791,1.048660,-1.331176,-67.810059,-33.386230,28.076172,41.625000
32320,10.194510,3.519476,-1.786075,-92.681885,-47.698975,26.794434,41.611328
32360,20.336349,5.037400,-2.446874,-94.879150,-53.192139,20.843506,41.607422
32400,23.228544,7.364564,-0.622492,-147.827148,-42.694092,27.191162,41.626953
32440,20.403387,4.721366,1.149217,-180.419922,55.541992,65.917969,41.650391
32480,9.950302,2.375048,-2.504335,-127.075195,36.773682,48.675537,41.607422
32520,1.335965,-0.172383,-3.466804,-19.927979,59.753418,10.955811,41.632812
32560,-2.987964,-4.486734,-4.027047,170.745850,-28.778076,77.087402,41.636719
32600,-3.979163,-4.271256,-2.236184,124.816895,-40.527344,18.280029,41.632812
32640,0.857124,-2.671929,0.857124,-27.465820,-77.728271,-133.758545,41.619141
32680,19.349937,0.517148,-5.209783,104.156494,-50.170898,-21.118164,41.625000
32720,27.188555,2.193089,-3.236961,137.023926,12.176514,-27.435303,41.632812
32760,23.496695,3.524265,-3.830723,129.119873,10.986328,-35.156250,41.638672
32800,13.737929,5.669470,-1.364695,141.876221,38.909912,-83.160400,41.640625
32840,6.110003,3.509900,1.575385,66.864014,60.363770,-66.741943,41.644531
32880,-2.911349,2.293645,0.593762,-10.437012,-6.500244,-36.529541,41.611328
32920,-3.816358,1.216254,-0.967257,-74.035645,5.432129,18.402100,41.626953
32960,0.378284,1.604115,-1.766921,-80.566406,-14.465332,34.576416,41.607422
33000,7.570466,3.394978,-2.154782,-97.930908,-61.614990,26.214600,41.634766
33040,19.579781,5.995081,-2.264915,-100.372314,-42.114258,9.216309,41.642578
33080,24.320301,7.785944,-1.915361,-148.223877,-54.687500,29.724121,41.613281
33120,22.222980,5.439626,0.272939,-182.739258,64.483643,65.307617,41.626953
33160,11.602302,3.141193,-2.236184,-182.830811,76.110840,68.725586,41.626953
33200,2.020706,0.713472,-3.380613,-20.294189,46.630859,27.557373,41.611328
33240,-2.662352,-3.859453,-3.773262,113.037109,-19.195557,98.937988,41.621094
33280,-4.170700,-4.687847,-2.973598,116.363525,-20.812988,69.274902,41.626953
33320,-0.521936,-2.964022,-0.148441,-17.242432,-114.654541,-124.359131,41.626953
33360,19.077000,0.296881,-4.232949,110.473633,11.108398,-89.141846,41.636719
33400,26.594793,1.254562,-2.873042,138.702393,5.615234,-14.099121,41.611328
33440,23.257275,2.552219,-3.145981,149.169922,29.846191,-18.127441,41.611328
33480,13.096283,6.660669,-1.039083,176.971436,50.720215,-92.285156,41.623047
33520,5.324705,3.706224,1.254562,85.205078,67.138672,-58.197021,41.626953
33560,-3.509900,2.111686,0.248997,-2.685547,-19.042969,-27.526855,41.623047
33600,-4.213795,1.527501,-1.517924,-55.114746,-33.569336,18.218994,41.615234
33640,1.091756,1.637634,-1.484405,-61.584473,-25.177002,25.115967,41.634766
33680,8.101978,3.289633,-2.600103,-91.278076,-75.164795,19.989014,41.615234
33720,20.614077,5.391742,-3.462016,-90.545654,-36.926270,25.909424,41.636719
33760,22.960394,7.479486,-2.882619,-133.819580,-31.463623,39.306641,41.621094
33800,20.982784,6.344635,-0.057461,-159.942627,38.818359,59.112549,41.601562
33840,12.382812,4.932055,-1.206678,-170.959473,85.418701,53.527832,41.619141
33880,3.064578,1.086968,-3.658340,-52.215576,58.868408,34.118652,41.626953
33920,-2.308010,-5.013458,-4.458004,136.779785,-5.737305,123.382568,41.609375
33960,-4.616021,-4.888960,-2.571373,130.493164,-38.970947,95.306396,41.625000
34000,-1.996764,-2.092532,1.024718,-25.299072,-71.044922,-88.928223,41.597656
34040,12.435484,-0.842759,-2.820370,17.150879,-2.319336,-115.997314,41.613281
34080,25.627535,1.723825,-3.222595,155.426025,-63.598633,-8.453369,41.623047
34120,24.933216,2.652776,-2.595315,127.593994,-28.533936,-5.859375,41.626953
34160,17.922995,4.778827,-2.130840,182.830811,9.613037,-67.810059,41.619141
34200,9.466674,2.303222,-0.622492,126.617432,55.389404,-68.084717,41.617188
34240,1.264138,1.968034,0.268151,57.037354,26.306152,-47.790527,41.611328
34280,-3.615245,2.557007,-0.397437,-28.533936,15.533447,-2.197266,41.607422
34320,-1.278504,2.159570,-0.488417,-72.906494,-1.770020,31.463623,41.619141
34360,2.676718,2.743755,-1.230620,-114.471436,11.322021,42.419434,41.619141
34400,12.722788,5.090073,-2.844312,-118.927002,-31.890869,9.155273,41.626953
34440,22.323536,5.032612,-3.543418,-109.069824,-87.677002,18.280029,41.611328
34480,24.430433,4.936844,-0.550666,-166.961670,8.483887,54.779053,41.603516
34520,18.152838,4.213795,0.033519,-200.805664,82.916260,71.899414,41.630859
34560,6.928820,2.097321,-3.055001,-117.309570,32.836914,38.391113,41.611328
34600,-0.272939,-0.900220,-2.892196,24.047852,37.078857,14.343262,41.609375
34640,-3.983952,-5.099649,-3.567361,165.649414,-42.755127,35.797119,41.623047
34680,-3.126827,-4.764462,-1.604115,45.593262,-73.272705,-24.353027,41.623047
34720,7.675811,-2.758120,-0.550666,-35.217285,-20.416260,-41.351318,41.617188
34760,21.729774,1.857901,-5.827487,164.489746,-95.275879,-38.604736,41.611328
34800,24.612394,-0.062249,-2.949656,103.607178,32.440186,-11.474609,41.621094
34840,19.814413,4.529830,-3.303998,153.167725,0.335693,-81.451416,41.636719
34880,11.602302,5.319916,-0.943315,133.514404,36.926270,-95.367432,41.613281
34920,4.797980,2.662352,1.288081,41.839600,64.392090,-56.274414,41.628906
34960,-3.299210,2.422932,-0.201113,-36.468506,-6.103516,-20.965576,41.630859
35000,-3.232172,1.613692,-1.288081,-75.988770,-1.098633,15.686035,41.613281
35040,1.441309,1.134852,-1.422156,-74.249268,-13.549805,24.291992,41.617188
35080,9.653421,2.509123,-2.317587,-86.669922,-45.104980,20.629883,41.603516
35120,20.173544,5.530606,-4.012682,-108.215332,-54.565430,29.418945,41.613281
35160,22.893356,8.063671,-2.178724,-132.659912,-45.745850,28.442383,41.619141
35200,21.035456,5.521029,0.464475,-165.252686,55.999756,59.143066,41.613281
35240,11.520899,3.543418,-2.212242,-157.501221,65.948486,57.769775,41.613281
35280,2.935291,0.181959,-3.552995,-35.339355,69.061279,26.153564,41.585938
35320,-1.747767,-4.582502,-3.720589,123.077393,2.288818,119.049072,41.601562
35360,-4.036624,-4.151546,-2.600103,158.691406,-34.149170,109.222412,41.632812
35400,-2.681506,-1.800440,1.249773,-16.357422,-56.152344,-99.853516,41.621094
35440,13.986926,-1.403002,-3.548207,41.717529,-11.352539,-149.597168,41.619141
35480,25.728092,3.390190,-2.600103,134.796143,-29.418945,-10.223389,41.609375
35520,23.870192,3.007117,-2.360683,110.351562,-12.451172,-23.864746,41.621094
35560,17.262194,4.314352,-1.929727,178.222656,30.029297,-72.326660,41.613281
35600,8.844181,4.118027,0.718261,106.170654,51.452637,-64.361572,41.625000
35640,0.718261,3.174711,1.312023,10.253906,20.385742,-44.616699,41.605469
35680,-3.979163,1.723825,-0.536301,-47.515869,-6.713867,0.396729,41.605469
35720,-1.379060,0.967257,-1.096544,-65.032959,-6.744385,32.714844,41.617188
35760,3.816358,2.695871,-2.068590,-102.294922,-20.202637,38.024902,41.613281
35800,15.701175,5.626374,-2.035071,-97.259521,-48.553467,5.584717,41.621094
35840,22.323536,6.555324,-2.207454,-110.931396,-68.817139,19.073486,41.617188
35880,23.750481,6.382942,0.167594,-163.787842,-14.404297,47.576904,41.613281
35920,17.444153,4.194642,0.497994,-203.063965,83.648682,79.559326,41.615234
35960,6.617573,2.427721,-3.189077,-92.773438,47.790527,34.881592,41.621094
36000,-0.162806,-0.785298,-3.294421,13.305664,38.116455,49.163818,41.601562
36040,-3.399766,-3.897760,-3.323152,135.711670,-25.634766,114.105225,41.625000
36080,-3.878607,-4.180276,-1.077391,64.025879,-49.743652,19.744873,41.613281
36120,3.141193,-4.414908,0.023942,-64.453125,-69.091797,-145.263672,41.656250
36160,22.716187,1.905785,-5.300763,200.347900,-50.140381,-68.176270,41.617188
36200,25.048138,2.959233,-1.268927,103.851318,11.657715,-22.033691,41.611328
36240,20.585346,3.624821,-2.643199,153.106689,-9.887695,-56.671143,41.619141
36280,11.760319,5.434838,-0.215478,148.620605,44.860840,-87.249756,41.605469
36320,4.745308,3.409343,1.489193,49.468994,58.380127,-53.558350,41.597656
36360,-2.892196,2.331953,-0.373495,-31.158447,-5.859375,-11.657715,41.583984
36400,-3.098097,1.221043,-1.441309,-66.802979,-11.199951,25.817871,41.603516
36440,1.288081,1.403002,-1.637634,-81.512451,-23.132324,36.315918,41.626953
36480,11.156980,3.763685,-1.958457,-105.773926,-28.747559,20.507812,41.597656
36520,19.986795,5.305551,-2.782062,-103.088379,-43.701172,28.869629,41.623047
36560,22.826319,7.805098,-1.082179,-146.636963,-65.612793,31.738281,41.619141
36600,20.451271,5.477933,1.197101,-170.806885,68.695068,61.767578,41.626953
36640,10.462662,3.160346,-2.063802,-129.425049,41.839600,41.473389,41.619141
36680,1.972822,0.181959,-3.299210,-38.696289,51.177979,19.226074,41.613281
36720,-2.825158,-4.692636,-4.065354,126.129150,-16.143799,55.450439,41.617188
36760,-3.706224,-5.056554,-2.389413,98.937988,-21.331787,15.441895,41.607422
36800,0.718261,-3.251326,0.019154,30.212402,-61.340332,-53.771973,41.623047
36840,13.560759,-0.938527,-2.906561,48.950195,5.279541,-26.519775,41.605469
36880,24.262840,3.945644,-3.093309,155.853271,-84.960938,-32.714844,41.621094
36920,24.396915,2.892196,-2.518700,112.304688,-2.136230,-24.017334,41.613281
36960,17.353174,4.161122,-2.149993,172.058105,-5.737305,-70.922852,41.611328
37000,9.428367,3.739743,1.048660,122.894287,69.732666,-68.603516,41.611328
37040,1.034295,2.997540,0.761356,25.299072,43.365479,-41.687012,41.607422
37080,-4.050989,1.891419,-0.933739,-41.137695,5.401611,3.326416,41.625000
37120,-1.154005,1.268927,-1.805228,-66.497803,-17.761230,31.036377,41.601562
37160,6.186617,3.213019,-2.087744,-104.919434,-32.196045,32.135010,41.611328
37200,17.204733,5.252879,-2.327164,-91.430664,-27.496338,2.136230,41.605469
37240,22.222980,7.359776,-2.327164,-151.184082,-43.029785,26.580811,41.609375
37280,22.811954,5.722142,-0.641646,-176.208496,-0.305176,50.231934,41.621094
37320,15.361198,2.829947,-0.847547,-189.666748,98.541260,78.643799,41.615234
37360,4.951209,1.584962,-3.720589,-61.187744,30.273438,17.730713,41.605469
37400,-1.000776,-2.829947,-3.830723,83.129883,3.265381,31.494141,41.617188
37440,-4.400543,-4.946421,-2.647987,93.994141,-13.397217,44.494629,41.640625
37480,-2.504335,-3.313575,-0.612916,13.580322,-59.753418,-33.782959,41.623047
37520,8.528147,-2.097321,-0.483629,11.688232,-11.810303,-34.484863,41.609375
37560,22.505495,1.814805,-5.008670,170.501709,-100.830078,-32.409668,41.636719
37600,25.057714,0.301669,-1.867477,98.358154,45.593262,-1.953125,41.619141
37640,19.402611,3.883395,-2.518700,166.778564,-27.343750,-65.887451,41.630859
37680,11.789049,4.683059,0.043096,143.493652,59.387207,-80.047607,41.611328
37720,4.486734,2.949656,1.005565,56.701660,56.579590,-58.563232,41.601562
37760,-3.538630,2.135628,-0.785298,-27.954102,-7.171631,-23.468018,41.615234
37800,-3.308787,1.043872,-0.995988,-54.779053,-5.645752,12.542725,41.630859
37840,1.010353,1.484405,-1.288081,-63.323975,-16.510010,20.172119,41.607422
37880,9.112331,3.160346,-2.001553,-83.770752,-58.746338,16.204834,41.630859
37920,20.245369,5.046977,-2.614468,-95.214844,-39.093018,23.162842,41.617188
37960,23.424870,8.293514,-1.254562,-143.432617,-33.477783,31.158447,41.617188
38000,21.437681,5.870583,0.339977,-170.410156,41.046143,52.459717,41.607422
38040,12.076353,3.313575,-2.001553,-145.751953,50.933838,46.630859,41.593750
38080,3.169923,0.277727,-2.801216,-22.277832,77.941895,25.054932,41.619141
38120,-2.231396,-3.940856,-3.787627,155.487061,-12.603760,87.829590,41.593750
38160,-3.892972,-4.419696,-2.456451,130.950928,-56.579590,60.760498,41.601562
38200,-0.952892,-2.609680,0.737414,-26.672363,-67.169189,-100.799561,41.615234
38240,15.246277,-1.484405,-3.150769,50.262451,-12.664795,-58.105469,41.607422
38280,25.072081,2.633622,-3.773262,175.750732,-45.898438,-23.498535,41.625000
38320,22.974760,3.035848,-3.145981,120.422363,22.644043,-17.822266,41.621094
38360,15.064317,5.884948,-2.499547,186.553955,-14.709473,-76.080322,41.615234
38400,7.771579,4.390966,1.584962,82.092285,66.040039,-59.844971,41.613281
38440,0.335188,2.863465,1.019930,14.251709,18.188477,-41.198730,41.597656
38480,-3.375824,1.666364,-1.144428,-47.668457,-2.532959,5.187988,41.621094
38520,-0.320823,1.355118,-1.321599,-87.127686,-7.659912,37.261963,41.609375
38560,5.837064,3.471592,-2.600103,-131.317139,-40.710449,30.334473,41.601562
38600,18.909405,5.683835,-2.552219,-83.526611,-18.524170,2.777100,41.599609
38640,22.701820,7.110779,-3.045424,-133.026123,-74.157715,26.733398,41.626953
38680,22.491131,5.612009,0.263362,-202.301025,72.113037,68.267822,41.613281
38720,13.230358,2.949656,-2.054225,-209.960938,60.760498,82.214355,41.621094
38760,3.567361,1.216254,-3.275268,-31.585693,53.985596,26.672363,41.611328
38800,-1.312023,-3.011906,-3.337517,117.767334,20.690918,65.765381,41.601562
38840,-4.237737,-5.166687,-3.213019,125.061035,-29.785156,81.329346,41.613281
38880,-2.418144,-3.620033,-0.660800,8.544922,-99.548340,-45.379639,41.623047
38920,12.785037,-1.522712,-1.786075,26.397705,5.889893,-108.642578,41.613281
38960,24.957159,2.533065,-3.275268,160.644531,-66.009521,-31.646729,41.630859
39000,24.665066,1.517924,-1.800440,115.631104,27.496338,-10.284424,41.613281
39040,15.892711,5.736507,-1.790863,182.922363,24.993896,-95.428467,41.626953
39080,8.101978,4.352659,1.034295,93.261719,55.267334,-69.824219,41.611328
39120,0.550666,2.427721,0.785298,7.568359,16.540527,-40.374756,41.636719
39160,-4.055778,1.383849,-1.479617,-45.318604,-29.144287,2.044678,41.619141
39200,-1.173159,1.221043,-1.192312,-63.110352,-17.395020,21.087646,41.628906
39240,4.429273,2.398990,-1.872266,-104.614258,-31.555176,28.198242,41.617188
39280,17.209522,4.022259,-2.834735,-75.073242,-39.764404,18.737793,41.609375
39320,22.103270,7.144298,-2.609680,-104.644775,-79.376221,28.350830,41.619141
39360,22.821531,6.804321,0.043096,-145.629883,17.517090,49.285889,41.626953
39400,16.467319,4.577713,0.090980,-180.358887,91.369629,65.246582,41.625000
39440,6.162675,2.264915,-3.203442,-74.005127,64.239502,23.071289,41.640625
39480,-0.287304,-2.240973,-3.519476,64.056396,45.288086,56.640625,41.623047
39520,-3.347094,-5.233725,-4.146757,188.140869,-46.600342,115.631104,41.623047
39560,-3.643975,-3.165135,-0.373495,16.448975,-69.702148,-34.301758,41.603516
39600,6.512228,-2.116474,-0.239420,-27.191162,-49.133301,-148.071289,41.607422
39640,23.874979,2.102109,-5.147533,176.116943,-100.219727,-19.836426,41.603516
39680,24.689009,2.614468,-2.073379,113.006592,41.687012,-19.622803,41.611328
39720,19.005173,4.491522,-3.198653,165.222168,-21.057129,-52.337646,41.599609
39760,10.711658,4.601655,-0.301669,120.941162,47.302246,-63.751221,41.615234
39800,3.208230,3.375824,1.292869,28.564453,49.224854,-46.264648,41.607422
39840,-4.098873,2.470816,-0.641646,-32.928467,-8.514404,-19.287109,41.617188
39880,-2.561796,1.154005,-1.517924,-71.716309,-14.587402,23.834229,41.615234
39920,2.863465,1.958457,-2.140416,-101.165771,-21.697998,32.348633,41.623047
39960,14.834474,4.496311,-2.571373,-89.385986,-36.804199,0.915527,41.613281
40000,21.911734,6.574478,-3.246537,-102.966309,-38.848877,20.843506,41.623047
40040,23.970747,7.455544,-0.833182,-166.290283,-5.981445,43.395996,41.613281
40080,18.890251,4.769250,0.239420,-194.763184,89.569092,69.152832,41.623047
40120,7.728483,2.628834,-3.112462,-157.196045,78.308105,52.276611,41.617188
40160,-0.023942,-0.809240,-3.514688,22.338867,46.813965,54.534912,41.626953
40200,-3.055001,-4.797980,-4.285621,174.346924,-24.658203,130.065918,41.617188
40240,-4.261679,-3.739743,-1.369483,50.598145,-39.428711,34.057617,41.597656
40280,1.082179,-2.528277,0.536301,-30.212402,-114.227295,-102.416992,41.626953
40320,19.469648,0.727837,-4.515464,146.270752,4.180908,-139.648438,41.607422
40360,25.986666,2.059013,-1.733402,98.632812,-1.464844,0.549316,41.630859
40400,22.653936,3.567361,-2.494758,149.444580,-19.073486,-30.700684,41.623047
40440,13.512875,6.459556,-0.497994,163.116455,45.654297,-87.799072,41.589844
40480,6.105214,3.509900,1.537078,56.274414,68.298340,-54.016113,41.611328
40520,-2.331953,1.972822,-0.148441,-10.162354,-11.596680,-24.139404,41.613281
40560,-3.778050,1.326388,-1.489193,-51.818848,-18.737793,13.031006,41.625000
40600,0.349553,1.690306,-1.642422,-74.981689,-12.023926,26.214600,41.603516
40640,8.408437,3.351882,-2.126051,-89.691162,-54.962158,22.003174,41.601562
40680,19.680338,4.951209,-2.451663,-92.254639,-33.203125,23.254395,41.626953
40720,22.878992,7.939173,-1.403002,-142.333984,-64.453125,34.759521,41.599609
40760,21.495142,6.354211,0.723049,-165.313721,30.792236,54.626465,41.611328
40800,13.110648,4.170700,-0.900220,-160.430908,63.171387,57.403564,41.611328
40840,3.706224,1.417367,-3.485958,-34.210205,68.450928,15.045166,41.603516
40880,-1.240196,-3.576937,-3.687071,110.290527,4.699707,103.454590,41.615234
40920,-3.169923,-5.722142,-3.581726,158.782959,-33.721924,149.353027,41.619141
40960,-2.777274,-2.901772,0.354342,-25.451660,-70.739746,-81.024170,41.621094
41000,11.520899,-0.962469,-2.322376,34.851074,9.246826,-201.690674,41.615234
41040,23.951593,3.184288,-3.169923,165.710449,-79.772949,-18.402100,41.593750
41080,23.625982,2.815581,-2.015918,108.612061,7.537842,-12.847900,41.615234
41120,16.443377,5.798757,-2.217031,185.272217,-8.728027,-76.324463,41.607422
41160,9.112331,4.367024,0.761356,103.820801,46.264648,-61.218262,41.607422
41200,1.561020,3.045424,1.144428,16.571045,23.773193,-44.830322,41.611328
41240,-4.050989,2.020706,-0.924162,-44.342041,-4.180908,-6.530762,41.613281
41280,-1.168370,1.168370,-1.886631,-80.566406,0.946045,33.691406,41.621094
41320,5.956774,3.083732,-2.389413,-116.302490,-19.989014,39.489746,41.617188
41360,16.998833,5.937620,-2.255338,-95.397949,-29.998779,3.356934,41.609375
41400,21.734564,7.527370,-2.255338,-138.671875,-87.280273,17.517090,41.617188
41440,22.481554,5.832275,0.368707,-168.121338,13.000488,51.574707,41.623047
41480,15.974113,3.921702,0.244209,-204.620361,98.785400,76.812744,41.603516
41520,5.367800,2.197877,-3.615245,-82.397461,27.404785,34.118652,41.609375
41560,-0.464475,-1.072602,-3.217807,45.135498,33.721924,72.204590,41.607422
41600,-2.911349,-5.046977,-3.825934,201.446533,-57.128906,154.174805,41.599609
41640,-3.912126,-4.797980,-0.790087,1.739502,-77.667236,-11.505127,41.617188
41680,7.335834,-3.648763,-0.833182,-46.630859,-25.665283,-204.772949,41.585938
41720,24.090458,3.500323,-4.750096,190.460205,-64.971924,-51.574707,41.605469
41760,25.072081,1.206678,-2.226608,79.681396,29.998779,8.483887,41.607422
41800,17.875111,4.429273,-2.523489,180.755615,-29.754639,-72.174072,41.589844
41840,9.911995,4.888960,0.258574,126.129150,58.715820,-74.462891,41.601562
41880,2.844312,3.059790,1.288081,26.092529,59.448242,-37.292480,41.603516
41920,-4.237737,2.126051,-1.019930,-43.395996,-10.223389,-12.847900,41.615234
41960,-2.738967,1.350330,-1.278504,-66.741943,-12.359619,12.420654,41.597656
42000,2.571373,1.972822,-1.589750,-93.505859,-8.361816,23.895264,41.613281
42040,14.039598,3.509900,-2.312799,-64.605713,-22.827148,12.420654,41.601562
42080,21.619642,6.071695,-2.537854,-111.419678,-52.185059,24.108887,41.599609
42120,22.946030,7.196970,-0.114922,-141.265869,-30.670166,24.444580,41.605469
42160,19.273323,4.414908,1.345541,-184.967041,95.367432,62.194824,41.613281
42200,9.002198,1.996764,-2.604892,-92.987061,31.860352,36.254883,41.607422
42240,1.565808,-0.809240,-2.853889,6.011963,62.927246,39.123535,41.587891
42280,-3.064578,-3.782839,-5.056554,261.810303,-51.574707,62.072754,41.593750
42320,-3.438074,-3.730166,-0.378284,62.622070,-39.581299,32.409668,41.611328
42360,1.182736,-2.834735,1.216254,-82.336426,-64.117432,-147.430420,41.597656
42400,18.478449,1.417367,-4.678270,63.751221,-21.545410,-1.464844,41.593750
42440,24.650702,3.117251,-2.513912,142.425537,-2.136230,-30.090332,41.578125
42480,22.883780,2.384625,-2.987964,125.854492,-29.083252,-21.392822,41.607422
42520,14.508862,5.377377,-1.144428,185.791016,16.967773,-79.772949,41.583984
42560,6.694188,3.931279,0.981623,94.421387,46.813965,-59.295654,41.603516
42600,-0.517148,3.011906,0.670376,6.195068,9.216309,-33.691406,41.593750
42640,-3.471592,1.948880,-1.048660,-51.696777,1.922607,5.889893,41.597656
42680,-0.459687,1.158794,-1.838747,-77.423096,-10.437012,34.484863,41.613281
42720,6.962338,3.294421,-2.873042,-117.004395,-38.818359,30.700684,41.603516
42760,17.482460,6.066907,-2.331953,-81.787109,-10.467529,-17.974854,41.593750
42800,21.021091,7.929596,-3.476381,-112.274170,-89.294434,-1.922607,41.611328
42840,22.088905,6.493075,0.143652,-156.982422,15.350342,28.503418,41.597656
42880,16.261417,3.993528,0.569820,-192.718506,90.820312,63.934326,41.605469
42920,6.507440,1.364695,-2.992752,-111.999512,68.237305,51.239014,41.611328
42960,-0.244209,-2.011129,-3.739743,68.176270,32.440186,99.304199,41.587891
43000,-3.098097,-4.007894,-3.620033,198.028564,-68.084717,151.031494,41.603516
43040,-3.505111,-3.442862,-1.278504,90.728760,-22.583008,28.930664,41.613281
43080,3.787627,-3.193865,-0.014365,-106.170654,-32.470703,-223.968506,41.623047
43120,23.017855,4.242526,-4.376601,202.484131,-74.218750,-68.756104,41.634766
43160,24.684219,4.003105,0.004788,74.737549,49.072266,19.042969,41.611328
43200,19.704281,4.496311,-2.298434,140.045166,-43.548584,-26.733398,41.619141
43240,11.563994,5.875371,0.052672,138.916016,29.785156,-64.849854,41.603516
43280,5.176264,3.562572,1.465251,57.647705,53.009033,-52.825928,41.607422
43320,-2.442086,2.264915,-0.378284,-21.636963,-6.958008,-21.514893,41.609375
43360,-3.318364,1.082179,-1.264138,-64.697266,-3.692627,14.831543,41.623047
43400,0.641646,2.025495,-2.001553,-93.383789,-6.439209,28.778076,41.617188
43440,10.453085,4.309563,-2.312799,-85.479736,-50.537109,19.256592,41.595703
43480,21.226992,5.597643,-2.844312,-73.028564,-20.111084,10.406494,41.619141
43520,22.179884,7.412448,-1.091756,-129.058838,-71.197510,39.520264,41.601562
43560,19.900604,6.052542,1.244985,-166.076660,50.445557,70.434570,41.611328
43600,11.295844,4.553771,-1.829170,-147.155762,37.139893,51.727295,41.607422
43640,3.960010,1.589750,-3.246537,-20.172119,50.292969,17.791748,41.611328
43680,-0.383072,-4.189853,-4.041412,114.562988,16.540527,101.867676,41.623047
43720,-2.853889,-5.808333,-3.088520,155.120850,-19.561768,168.060303,41.607422
43760,-3.270479,-2.284068,-0.028730,-24.444580,-91.033936,-52.368164,41.599609
43800,9.782708,0.790087,-1.891419,19.866943,-2.716064,-197.967529,41.621094
43840,24.329878,2.734178,-3.160346,142.456055,-78.674316,-18.890381,41.607422
43880,23.985113,1.704672,-1.848324,90.301514,15.533447,-12.695312,41.597656
43920,17.836803,4.299986,-2.552219,178.558350,-46.875000,-68.206787,41.585938
43960,10.084377,4.194642,0.459687,115.447998,37.078857,-61.920166,41.617188
44000,2.892196,3.122039,1.527501,32.287598,50.537109,-51.086426,41.617188
44040,-3.845088,2.700660,-0.847547,-29.571533,-0.549316,-20.721436,41.591797
44080,-1.599327,1.197101,-1.877054,-69.732666,-2.105713,25.634766,41.603516
44120,4.845864,2.437297,-2.964022,-126.861572,-27.557373,31.402588,41.601562
44160,16.352398,4.400543,-2.293645,-105.804443,-34.088135,4.058838,41.613281
44200,20.025103,7.043741,-3.241749,-103.729248,-21.881104,12.908936,41.597656
44240,22.222980,6.521805,-0.785298,-156.829834,-21.179199,49.041748,41.621094
44280,16.955736,4.367024,0.622492,-203.674316,114.135742,77.758789,41.611328
44320,7.019799,2.557007,-2.753332,-113.220215,40.588379,45.288086,41.603516
44360,0.071826,-0.660800,-3.337517,23.437500,20.690918,59.020996,41.605469
44400,-2.700660,-5.018247,-3.897760,225.036621,-50.903320,97.747803,41.599609
44440,-2.925714,-4.879383,-1.163582,18.249512,-52.551270,7.385254,41.593750
44480,6.521805,-3.792415,-0.383072,-62.683105,-80.444336,-159.240723,41.617188
44520,23.386562,2.303222,-5.329493,171.875000,-66.040039,-9.490967,41.605469
44560,23.324312,1.790863,-2.365471,97.015381,43.426514,-21.820068,41.603516
44600,18.248606,3.634398,-3.873818,199.096680,-70.037842,-80.444336,41.626953
44640,10.429143,4.711789,-0.272939,121.765137,53.710938,-76.202393,41.595703
44680,3.366248,3.711013,1.714248,28.137207,57.525635,-53.955078,41.595703
44720,-3.193865,2.743755,-0.780510,-37.963867,2.349854,-24.383545,41.593750
44760,-2.829947,1.283292,-1.762132,-74.218750,-6.134033,9.613037,41.599609
44800,2.844312,2.317587,-1.843535,-123.962402,-5.279541,27.008057,41.613281
44840,15.121778,4.338294,-2.078167,-79.681396,-31.829834,0.915527,41.615234
44880,22.146366,6.009446,-2.499547,-122.283936,-48.828125,29.876709,41.609375
44920,23.305159,6.579266,0.086191,-192.352295,-7.873535,75.012207,41.587891
44960,17.214310,4.879383,0.354342,-191.314697,67.169189,83.801270,41.587891
45000,7.498640,2.513912,-3.031059,-66.528320,54.901123,21.606445,41.576172
45040,0.569820,-2.274492,-3.840300,59.387207,25.268555,16.784668,41.609375
45080,-3.591303,-5.200206,-3.299210,103.912354,8.453369,29.144287,41.593750
45120,-3.251326,-3.375824,-1.431733,73.699951,-41.381836,-23.925781,41.607422
45160,5.157111,-2.274492,-0.201113,17.913818,-45.654297,-12.451172,41.599609
45200,18.444929,0.775721,-4.520253,140.777588,-72.906494,3.784180,41.613281
45240,22.366632,1.201889,-1.326388,126.373291,-9.338379,-19.134521,41.595703
45280,21.614853,2.432509,-2.557007,128.234863,-29.876709,-29.479980,41.611328
45320,15.327680,4.242526,-1.096544,171.813965,30.090332,-90.026855,41.603516
45360,7.522582,3.026271,1.288081,82.336426,82.550049,-70.892334,41.605469
45400,-2.154782,2.700660,-0.052672,0.488281,17.456055,-41.503906,41.603516
45440,-3.993528,1.953669,-1.024718,-57.220459,-8.483887,-3.509521,41.578125
45480,0.110133,1.848324,-1.723825,-79.925537,-13.763428,12.237549,41.583984
45520,8.499416,2.920926,-2.810793,-119.781494,-56.121826,12.512207,41.601562
45560,19.191921,3.725378,-2.734178,-60.852051,-54.138184,0.000000,41.613281
45600,23.108835,6.564901,-1.695095,-113.433838,-67.565918,31.768799,41.603516
45640,22.189461,5.750873,0.512359,-151.733398,37.719727,68.359375,41.617188
45680,13.771448,4.213795,-0.756568,-165.802002,72.387695,74.798584,41.607422
45720,4.458004,2.547431,-2.796427,-96.038818,81.359863,30.456543,41.621094
45760,-1.187524,-1.886631,-3.969586,131.225586,-20.812988,78.399658,41.597656
45800,-2.901772,-5.482722,-3.260903,186.614990,-23.223877,136.322021,41.583984
45840,-3.217807,-4.271256,0.277727,-71.472168,-68.542480,-23.284912,41.617188
45880,7.570466,-3.318364,-1.790863,-22.369385,-31.982422,-216.369629,41.582031
45920,23.621195,3.069367,-4.932055,176.025391,-95.336914,-32.806396,41.597656
45960,25.067291,1.637634,-1.565808,95.947266,50.720215,-8.239746,41.609375
46000,18.430565,4.371812,-3.394978,167.419434,-49.926758,-53.985596,41.599609
46040,10.165780,5.956774,-0.158017,133.453369,29.418945,-83.831787,41.603516
46080,4.601655,2.944868,2.030283,22.460938,71.655273,-48.583984,41.607422
46120,-2.489970,2.384625,-0.679953,-26.794434,2.014160,-24.780273,41.605469
46160,-3.256114,1.216254,-1.728614,-79.467773,2.349854,18.310547,41.607422
46200,1.340753,2.011129,-2.106898,-108.856201,-2.075195,30.883789,41.607422
46240,13.421895,4.055778,-2.279280,-75.012207,-35.095215,5.340576,41.621094
46280,20.743364,5.386954,-2.427721,-82.061768,-43.670654,18.493652,41.607422
46320,22.874203,7.196970,-0.105345,-165.008545,-36.407471,49.407959,41.591797
46360,19.723434,5.291186,0.766145,-171.661377,51.483154,74.737549,41.625000
46400,10.079589,3.059790,-2.422932,-125.549316,31.219482,61.645508,41.609375
46440,2.365471,-0.148441,-3.375824,5.645752,39.031982,27.099609,41.617188
46480,-2.997540,-4.347870,-3.787627,109.252930,10.437012,24.261475,41.593750
46520,-4.141969,-4.711789,-1.953669,72.601318,-35.400391,-3.173828,41.585938
46560,2.734178,-3.433285,0.943315,7.019043,8.422852,18.676758,41.623047
46600,16.290148,1.216254,-4.271256,109.619141,-56.915283,-4.211426,41.601562
46640,23.290794,1.800440,-1.829170,117.309570,-6.500244,-22.186279,41.617188
46680,22.155943,1.407791,-2.351106,145.782471,-40.832520,-40.161133,41.625000
46720,15.227123,4.362236,-1.312023,170.196533,-3.845215,-85.876465,41.611328
46760,8.092402,3.021482,0.196325,93.231201,38.543701,-64.331055,41.621094
46800,1.283292,2.398990,0.502782,20.172119,15.045166,-49.865723,41.607422
46840,-3.782839,1.651999,-0.656011,-48.706055,-8.605957,-7.507324,41.623047
46880,-1.206678,1.268927,-0.545878,-67.871094,2.105713,21.423340,41.611328
46920,4.826711,2.748544,-2.020706,-99.670410,-10.620117,30.212402,41.634766
46960,15.456966,3.744531,-3.500323,-60.852051,-68.481445,12.664795,41.621094
47000,22.213404,5.884948,-2.547431,-106.292725,-29.113770,35.095215,41.603516
47040,22.558168,6.435614,-0.526724,-159.027100,-1.708984,56.427002,41.605469
47080,16.519991,4.572925,-0.464475,-172.637939,2.929688,61.004639,41.617188
47120,7.709330,2.346318,-2.806004,-86.578369,48.217773,25.604248,41.599609
47160,1.412579,-2.269703,-3.792415,53.894043,62.286377,14.434814,41.623047
47200,-2.777274,-5.789180,-3.916914,144.836426,14.465332,42.144775,41.609375
47240,-3.739743,-3.754108,-0.454898,45.776367,-16.784668,-0.091553,41.603516
47280,2.624045,-1.599327,0.593762,9.338379,-60.211182,-43.365479,41.597656
47320,16.859968,1.604115,-4.022259,82.366943,-37.719727,-16.052246,41.599609
47360,25.086445,1.168370,-2.035071,128.356934,-15.014648,-14.343262,41.597656
47400,22.855049,2.389413,-3.098097,119.567871,-57.403564,-22.644043,41.564453
47440,15.356410,4.874595,-1.096544,154.846191,-2.319336,-79.193115,41.593750
47480,8.470686,3.011906,1.168370,84.045410,71.105957,-71.014404,41.611328
47520,-0.033519,2.695871,0.325611,-7.781982,35.003662,-53.253174,41.597656
47560,-4.367024,1.910573,-1.125275,-63.964844,7.080078,-6.225586,41.578125
47600,-0.584185,1.637634,-1.091756,-88.653564,6.805420,21.453857,41.591797
47640,5.966351,2.844312,-2.355895,-128.784180,-38.970947,15.930176,41.576172
47680,16.567875,4.084508,-1.963245,-100.006104,-34.729004,-13.641357,41.605469
47720,22.562958,6.124368,-2.700660,-71.411133,-54.443359,13.214111,41.595703
47760,22.572535,6.244078,0.229843,-142.639160,-4.760742,49.987793,41.587891
47800,15.777789,5.343858,0.593762,-177.307129,74.615479,54.016113,41.593750
47840,6.253655,2.418144,-2.509123,-115.509033,67.626953,35.827637,41.593750
47880,0.100556,-2.427721,-3.380613,71.655273,28.930664,70.739746,41.593750
47920,-2.944868,-5.243302,-5.224148,272.155762,-97.473145,87.951660,41.597656
47960,-2.518700,-3.902549,-0.292093,18.585205,-4.058838,-4.791260,41.597656
48000,6.435614,-2.427721,0.670376,-88.043213,-54.260254,-186.340332,41.582031
48040,23.836672,4.108450,-4.778827,180.389404,-47.912598,-9.033203,41.601562
48080,24.334665,1.680730,-1.292869,84.655762,65.826416,9.765625,41.601562
48120,18.890251,3.241749,-3.773262,173.614502,-53.405762,-28.839111,41.572266
48160,10.788273,6.512228,-0.148441,160.339355,27.923584,-80.474854,41.615234
48200,5.056554,3.643975,2.154782,31.097412,73.974609,-44.982910,41.601562
48240,-2.298434,2.250550,-0.636858,-16.052246,-3.265381,-21.636963,41.589844
48280,-3.375824,0.799663,-1.781286,-60.424805,10.131836,11.749268,41.578125
48320,0.962469,1.723825,-1.958457,-85.876465,11.505127,21.850586,41.611328
48360,11.889606,4.252102,-1.766921,-98.480225,-63.781738,14.038086,41.607422
48400,21.131224,5.746084,-2.039860,-84.381104,-20.874023,13.000488,41.603516
48440,23.032221,7.623138,-1.048660,-189.208984,-42.663574,45.867920,41.597656
48480,19.862297,5.066131,0.828394,-159.851074,22.796631,59.020996,41.605469
48520,11.099519,2.633622,-1.393425,-158.721924,77.270508,66.650391,41.609375
48560,2.221819,0.569820,-4.132392,1.190186,26.977539,14.801025,41.589844
48600,-2.394202,-4.175488,-4.228160,141.387939,20.324707,63.354492,41.615234
48640,-4.132392,-4.917690,-2.437297,116.058350,-22.979736,43.273926,41.628906
48680,-0.780510,-3.169923,0.196325,5.004883,-68.298340,-73.760986,41.591797
48720,15.136143,-0.119710,-2.604892,23.895264,19.592285,-27.587891,41.595703
48760,22.218191,3.260903,-3.471592,146.026611,-87.585449,-31.860352,41.607422
48800,23.961170,1.235408,-2.188300,115.570068,16.052246,-10.986328,41.611328
48840,17.429789,4.659117,-2.537854,180.664062,-36.987305,-72.357178,41.619141
48880,9.591172,4.845864,0.493206,122.802734,46.966553,-78.277588,41.599609
48920,2.877831,2.676718,1.345541,26.947021,47.760010,-48.187256,41.595703
48960,-3.543418,1.963245,-0.756568,-25.238037,-6.683350,-16.632080,41.582031
49000,-2.149993,0.804452,-1.015141,-72.509766,2.777100,21.209717,41.591797
49040,2.284068,1.580173,-1.426944,-88.012695,0.976562,26.824951,41.607422
49080,13.158532,3.830723,-2.576161,-106.567383,-27.221680,17.639160,41.611328
49120,21.011515,5.602432,-3.050213,-85.083008,-61.462402,11.627197,41.601562
49160,22.917299,6.459556,-0.421380,-143.341064,-32.379150,37.017822,41.582031
49200,19.685127,4.237737,0.579397,-156.280518,42.724609,63.385010,41.601562
49240,10.907983,2.935291,-1.383849,-149.078369,116.180420,52.429199,41.587891
49280,2.398990,1.637634,-2.585738,-36.773682,79.528809,4.791260,41.617188
49320,-1.426944,-3.016694,-3.284845,110.931396,-30.395508,86.517334,41.613281
49360,-2.609680,-5.372589,-4.280833,207.733154,-59.967041,81.787109,41.597656
49400,-1.920150,-4.132392,-0.186748,-31.188965,-112.030029,-46.112061,41.617188
49440,13.101071,-1.810017,-0.660800,-0.061035,60.791016,-156.158447,41.611328
49480,23.793577,5.631162,-4.094085,151.123047,-131.896973,-15.594482,41.605469
49520,26.020184,1.173159,-1.134852,96.618652,98.632812,16.235352,41.623047
49560,17.439365,4.994305,-2.806004,196.563721,-46.752930,-66.345215,41.597656
49600,8.829816,5.406107,0.009577,132.720947,33.142090,-71.258545,41.601562
49640,2.652776,2.887407,1.709460,25.878906,74.127197,-42.297363,41.605469
49680,-3.227384,1.824382,-0.507571,-20.080566,-7.476807,-16.357422,41.607422
49720,-2.078167,0.890643,-0.976834,-73.425293,22.827148,16.174316,41.601562
49760,3.615245,2.485181,-1.283292,-119.049072,-4.150391,35.736084,41.621094
49800,15.188815,5.099649,-1.642422,-81.268311,-48.553467,-1.617432,41.576172
49840,20.484789,4.654328,-0.828394,-97.961426,-40.527344,21.423340,41.611328
49880,21.547815,5.549759,0.876278,-147.552490,-16.510010,47.546387,41.613281
49920,16.931795,4.390966,0.723049,-167.755127,31.799316,60.668945,41.621094
49960,8.724471,2.494758,-1.728614,-88.439941,41.748047,27.740479,41.609375
50000,1.666364,-0.952892,-3.251326,29.998779,23.712158,5.218506,41.615234
50040,-2.930503,-4.802769,-3.620033,129.089355,7.904053,13.763428,41.589844
50080,-3.634398,-4.338294,-1.905785,93.292236,-42.053223,-20.416260,41.589844
50120,3.983952,-3.347094,0.349553,21.636963,-76.232910,-28.015137,41.613281
50160,19.278112,1.015141,-4.951209,140.228271,-34.576416,12.847900,41.607422
50200,23.214180,2.245761,-2.379837,126.129150,-20.111084,-30.090332,41.607422
50240,22.309172,2.336741,-3.035848,133.331299,-43.884277,-35.339355,41.607422
50280,14.451402,4.908113,-1.292869,169.982910,-0.793457,-80.871582,41.601562
50320,7.321469,3.236961,0.905008,94.848633,50.506592,-66.619873,41.601562
50360,0.090980,2.255338,0.306458,17.578125,20.751953,-45.867920,41.601562
50400,-3.806781,1.766921,-1.110910,-42.480469,-3.295898,-8.331299,41.595703
50440,-0.660800,1.244985,-0.995988,-77.545166,24.322510,19.042969,41.591797
50480,6.574478,3.040636,-1.886631,-112.640381,14.648438,26.031494,41.623047
50520,17.592594,3.227384,-3.102885,-50.598145,-48.583984,11.230469,41.597656
50560,20.834343,4.836287,-2.102109,-76.477051,-49.194336,16.326904,41.619141
50600,21.686680,5.363012,0.502782,-125.946045,-2.624512,45.379639,41.595703
50640,15.763424,3.270479,-0.225055,-141.571045,69.335938,70.068359,41.623047
50680,6.967127,2.226608,-2.087744,-61.981201,76.232910,27.862549,41.613281
50720,0.512359,-0.268151,-2.489970,41.442871,52.886963,16.296387,41.611328
50760,-2.499547,-4.434062,-4.477157,213.592529,-46.783447,50.659180,41.615234
50800,-3.356671,-4.797980,-0.876278,61.126709,-35.156250,6.408691,41.617188
50840,4.003105,-3.983952,-0.248997,-47.119141,-95.733643,-147.674561,41.617188
50880,23.606829,2.202666,-5.152322,151.763916,-42.419434,13.153076,41.599609
50920,23.630772,4.046201,-1.230620,129.150391,26.580811,-22.186279,41.615234
50960,21.610065,2.059013,-2.365471,125.976562,-30.761719,-18.646240,41.603516
51000,12.990938,4.783615,-0.900220,177.093506,5.828857,-71.533203,41.589844
51040,6.038177,2.355895,1.015141,99.151611,45.959473,-49.652100,41.617188
51080,0.416591,1.527501,0.373495,10.559082,37.719727,-22.796631,41.583984
51120,-3.610456,1.651999,-1.316811,-28.411865,-3.784180,-1.098633,41.574219
51160,-1.498770,1.642422,-0.119710,-76.568604,23.468018,18.096924,41.583984
51200,3.931279,3.232172,-0.689530,-113.800049,22.125244,28.106689,41.593750
51240,17.616535,3.088520,-2.480393,-33.569336,-70.831299,12.634277,41.603516
51280,21.849485,2.557007,-1.728614,-71.258545,-20.782471,32.287598,41.597656
51320,20.638020,5.717354,0.684742,-145.477295,-22.735596,40.863037,41.591797
51360,16.797720,3.021482,0.124498,-118.804932,51.544189,47.393799,41.605469
51400,9.035717,0.359130,-2.327164,-27.923584,34.637451,13.244629,41.599609
51440,2.796427,-0.847547,-1.963245,21.789551,61.523438,-18.798828,41.605469
51480,-3.122039,-3.284845,-3.303998,87.829590,-0.274658,-13.580322,41.609375
51520,-3.940856,-3.907337,-2.006341,97.961426,-33.447266,-26.214600,41.587891
51560,5.396531,-3.830723,-0.450110,72.082520,-53.253174,-0.335693,41.603516
51600,19.316420,1.407791,-5.185841,135.498047,-65.155029,11.047363,41.609375
51640,23.127989,1.757344,-1.900996,149.200439,24.566650,-23.895264,41.601562
51680,22.213404,0.828394,-2.715025,144.012451,-57.861328,-29.205322,41.603516
51720,14.460979,4.122815,-0.804452,194.488525,9.918213,-83.648682,41.601562
51760,7.000646,3.236961,1.005565,125.732422,57.556152,-66.101074,41.578125
51800,-0.617704,2.806004,-0.335188,39.703369,13.946533,-44.677734,41.589844
51840,-4.223372,1.498770,-0.952892,-33.996582,6.072998,-2.899170,41.578125
51880,-0.895431,1.029507,0.081403,-56.213379,29.602051,18.737793,41.601562
51920,5.736507,2.489970,-0.914585,-72.174072,49.255371,32.836914,41.587891
51960,17.338808,2.494758,-3.093309,-18.310547,-96.832275,23.590088,41.562500
52000,21.724987,4.084508,-0.603339,-62.774658,-32.440186,18.798828,41.601562
52040,22.012291,4.443638,1.642422,-126.922607,33.203125,53.497314,41.583984
52080,15.830462,2.183512,-0.450110,-111.999512,66.284180,64.361572,41.593750
52120,7.987057,1.177947,-1.853112,-36.376953,73.211670,21.362305,41.574219
52160,1.604115,-0.560243,-2.691083,79.315186,57.922363,13.397217,41.615234
52200,-3.131616,-4.572925,-3.691859,257.141113,-29.937744,69.824219,41.583984
52240,-3.869030,-5.559336,-0.933739,34.667969,-156.829834,-37.322998,41.587891
52280,10.419566,-6.502652,-1.312023,80.291748,51.361084,-60.058594,41.568359
52320,22.946030,2.609680,-6.234501,233.001709,-121.276855,-24.719238,41.591797
52360,23.918076,4.103662,-2.375048,132.995605,23.468018,-38.055420,41.605469
52400,19.761742,3.193865,-2.360683,194.976807,-9.216309,-62.103271,41.630859
52440,12.445061,3.529053,0.359130,143.829346,42.175293,-54.138184,41.593750
52480,4.261679,3.576937,0.957681,46.081543,70.129395,-46.478271,41.595703
52520,-4.534618,3.313575,-0.320823,-26.947021,27.282715,-17.425537,41.611328
52560,-2.877831,1.833959,-0.569820,-70.495605,36.987305,2.899170,41.589844
52600,4.256891,2.059013,-1.867477,-96.313477,-18.402100,19.866943,41.611328
52640,15.528792,1.537078,-2.317587,-48.248291,-62.561035,16.418457,41.619141
52680,20.393810,4.707001,-2.796427,-135.162354,-91.674805,14.007568,41.611328
52720,23.214180,5.841852,-0.320823,-189.605713,-9.307861,62.500000,41.617188
52760,18.626888,4.084508,-1.211466,-149.627686,46.295166,64.544678,41.591797
52800,9.998186,2.355895,-3.931279,-117.675781,95.001221,32.440186,41.572266
52840,3.280056,-0.071826,-4.094085,71.197510,23.132324,8.544922,41.582031
52880,-0.933739,-5.851429,-2.547431,241.943359,-18.432617,203.735352,41.582031
52920,-5.204995,-5.631162,-0.871489,74.035645,-40.557861,133.483887,41.585938
52960,-0.972046,-4.256891,-0.909797,-138.244629,-22.033691,-253.051758,41.593750
53000,22.567745,1.867477,-6.584054,182.312012,-70.678711,-143.615723,41.593750
53040,26.513390,3.193865,-1.168370,82.916260,65.704346,9.887695,41.585938
53080,20.585346,2.724602,-3.845088,135.314941,-50.170898,-17.425537,41.597656
53120,11.784261,5.434838,-1.537078,165.130615,-12.725830,-76.049805,41.605469
53160,5.779603,2.997540,2.035071,38.513184,96.801758,-43.548584,41.580078
53200,-2.384625,3.040636,-0.186748,-30.334473,21.667480,-20.477295,41.605469
53240,-4.390966,1.857901,-1.781286,-84.533691,7.019043,12.145996,41.580078
53280,1.297657,2.466028,-2.126051,-116.790771,-12.176514,29.388428,41.591797
53320,12.837709,3.792415,-2.916138,-106.048584,-71.838379,10.833740,41.587891
53360,20.762518,2.834735,-2.638410,-125.671387,-14.526367,45.837402,41.564453
53400,21.906946,5.851429,-1.551443,-170.928955,-45.715332,67.199707,41.591797
53440,17.779343,4.204218,-0.593762,-166.717529,16.113281,71.624756,41.578125
53480,9.394848,1.963245,-2.461239,-64.666748,30.578613,21.575928,41.587891
53520,2.772485,0.138864,-2.949656,2.258301,28.381348,21.728516,41.591797
53560,-2.288857,-4.299986,-3.337517,140.380859,-8.941650,43.731689,41.601562
53600,-3.816358,-5.870583,-2.207454,80.078125,-17.944336,10.559082,41.611328
53640,2.360683,-3.150769,-1.312023,31.951904,-42.938232,-36.987305,41.621094
53680,16.701952,0.799663,-6.263232,129.760742,-5.767822,-29.602051,41.593750
53720,23.975536,0.392649,-4.266468,137.573242,-19.683838,-23.651123,41.591797
53760,22.108059,0.766145,-4.098873,123.901367,-23.651123,-12.664795,41.593750
53800,14.556746,4.462792,-2.470816,180.816650,-29.663086,-81.970215,41.601562
53840,7.867347,3.303998,0.545878,92.468262,89.324951,-70.831299,41.601562
53880,-0.435745,2.949656,0.225055,8.819580,46.539307,-49.163818,41.583984
53920,-4.525041,2.466028,-1.431733,-50.476074,15.045166,-13.336182,41.589844
53960,-0.608127,1.508347,-1.762132,-78.033447,2.288818,16.723633,41.591797
54000,6.660669,2.207454,-2.485181,-101.745605,-56.243896,10.406494,41.593750
54040,18.478449,3.916914,-2.801216,-97.625732,-13.824463,10.559082,41.593750
54080,21.839909,5.616797,-2.959233,-116.485596,-34.729004,27.130127,41.572266
54120,21.634007,5.118803,-0.186748,-132.476807,9.307861,52.368164,41.589844
54160,14.604630,3.840300,-0.397437,-162.475586,101.745605,75.073242,41.587891
54200,4.687847,2.240973,-2.873042,-66.528320,55.633545,31.738281,41.568359
54240,-0.928950,-1.972822,-3.246537,115.661621,2.716064,88.043213,41.582031
54280,-2.212242,-5.669470,-5.224148,260.620117,-62.500000,69.885254,41.568359
54320,-0.924162,-6.047753,-1.187524,-55.389404,-125.152588,-42.480469,41.582031
54360,13.757083,-0.770933,-1.790863,-0.946045,69.000244,-110.473633,41.595703
54400,22.634783,3.222595,-3.629610,158.081055,-74.768066,-21.514893,41.599609
54440,22.601265,0.383072,-3.150769,68.756104,9.582520,-1.739502,41.560547
54480,15.897499,4.592079,-2.466028,180.633545,-37.414551,-81.390381,41.591797
54520,7.987057,4.328717,-0.009577,101.806641,25.115967,-77.789307,41.591797
54560,1.005565,2.667141,1.513135,-5.584717,36.193848,-51.757812,41.607422
54600,-3.754108,2.159570,-1.101333,-55.053711,0.732422,-15.319824,41.593750
54640,-1.235408,1.541866,-1.958457,-101.226807,8.361816,15.930176,41.587891
54680,5.497087,2.892196,-1.900996,-127.410889,22.125244,28.472900,41.601562
54720,16.314091,3.711013,-2.322376,-65.612793,-42.236328,9.124756,41.583984
54760,21.217415,5.659893,-2.001553,-150.268555,-41.473389,37.261963,41.593750
54800,22.510284,5.382165,0.239420,-158.203125,12.786865,56.854248,41.587891
54840,15.897499,3.074155,-0.699107,-177.398682,40.252686,79.132080,41.599609
54880,6.828263,2.025495,-2.863465,-46.295166,35.583496,19.226074,41.597656
54920,0.469264,-1.829170,-3.280056,50.720215,31.433105,17.395020,41.587891
54960,-4.094085,-5.281609,-3.208230,117.675781,15.838623,23.773193,41.593750
55000,-2.987964,-4.113238,-1.757344,63.507080,-62.957764,-21.759033,41.607422
55040,8.427590,-2.384625,-0.675165,28.564453,-6.256104,-9.857178,41.587891
55080,18.799273,1.991976,-5.846641,182.739258,-104.827881,-31.555176,41.591797
55120,24.679432,-0.536301,-2.600103,128.784180,26.977539,-11.962891,41.619141
55160,20.604500,3.557784,-3.059790,174.896240,-28.930664,-61.676025,41.607422
55200,12.066776,5.669470,-0.478840,151.672363,35.980225,-85.174561,41.615234
55240,4.486734,3.155558,1.517924,54.595947,71.319580,-56.915283,41.593750
55280,-3.778050,2.355895,-0.296881,-11.657715,0.732422,-28.228760,41.611328
55320,-3.428497,1.604115,-1.546654,-63.842773,-10.864258,12.481689,41.597656
55360,1.589750,1.551443,-1.920150,-90.240479,-7.080078,30.609131,41.599609
55400,11.827356,2.844312,-2.284068,-79.040527,-20.355225,13.488770,41.587891
55440,20.570980,4.343082,-2.121263,-80.535889,-20.507812,16.113281,41.613281
55480,22.471977,7.086837,-1.422156,-136.657715,-50.354004,30.334473,41.597656
55520,20.638020,5.554548,0.928950,-175.598145,74.676514,59.448242,41.589844
55560,11.008539,2.964022,-1.872266,-162.963867,77.270508,53.985596,41.593750
55600,2.020706,-0.138864,-3.011906,-20.599365,69.244385,29.357910,41.605469
55640,-2.116474,-5.075707,-4.285621,202.514648,-15.655518,108.642578,41.603516
55680,-3.811569,-4.826711,-2.964022,139.099121,-54.901123,81.024170,41.607422
55720,-1.192312,-2.849100,0.344765,-51.727295,-117.858887,-117.462158,41.603516
55760,17.721882,-1.259350,-3.615245,77.667236,-0.030518,-73.181152,41.601562
55800,26.240450,2.671929,-2.700660,151.123047,-11.230469,-20.507812,41.619141
55840,23.420080,3.011906,-3.830723,134.185791,-22.766113,-33.111572,41.595703
55880,14.839262,5.521029,-1.086968,168.884277,49.835205,-87.402344,41.605469
55920,6.382942,3.548207,1.709460,78.369141,84.136963,-59.875488,41.593750
55960,-2.796427,2.207454,0.536301,7.354736,-4.852295,-31.768799,41.583984
56000,-4.199430,1.259350,-1.216254,-52.673340,-9.521484,12.176514,41.593750
56040,0.550666,1.685518,-0.814029,-75.408936,-3.814697,26.123047,41.587891
56080,7.637504,3.955221,-1.944092,-124.908447,-10.681152,38.299561,41.603516
56120,19.943701,4.668694,-2.863465,-49.316406,-62.744141,5.950928,41.601562
56160,23.463177,6.291962,-1.187524,-158.782959,-37.933350,31.097412,41.605469
56200,22.443247,5.219360,0.871489,-180.084229,58.685303,58.990479,41.599609
56240,13.335704,3.385401,-1.063026,-172.668457,78.796387,54.748535,41.601562
56280,3.739743,1.192312,-2.820370,-35.919189,53.466797,9.460449,41.607422
56320,-2.212242,-3.912126,-3.682282,86.456299,39.215088,35.339355,41.587891
56360,-4.932055,-4.611232,-3.275268,111.785889,-46.752930,32.653809,41.591797
56400,-0.311246,-2.801216,0.043096,11.077881,-132.598877,-56.640625,41.591797
56440,15.394717,-2.193089,-2.269703,56.304932,26.092529,3.295898,41.597656
56480,23.290794,2.523489,-3.620033,159.576416,-98.327637,-37.414551,41.607422
56520,24.387339,1.508347,-2.839523,124.114990,22.918701,-10.253906,41.601562
56560,16.127342,5.104438,-1.776498,184.753418,32.196045,-79.040527,41.607422
56600,7.694964,4.050989,1.244985,100.982666,104.888916,-62.927246,41.607422
56640,-1.259350,2.638410,0.153229,27.008057,19.989014,-32.409668,41.611328
56680,-4.338294,1.757344,-1.091756,-38.665771,-14.282227,14.312744,41.572266
56720,0.153229,1.776498,-1.441309,-67.016602,-32.501221,33.874512,41.593750
56760,8.892065,3.787627,-1.738190,-95.001221,-74.432373,20.996094,41.597656
56800,19.163191,5.453991,-2.149993,-103.851318,-27.252197,19.866943,41.601562
56840,22.567745,7.139510,-1.584962,-160.369873,-26.855469,28.015137,41.599609
56880,20.264523,5.008670,0.335188,-177.276611,54.534912,55.969238,41.611328
56920,11.089942,2.873042,-1.709460,-155.151367,94.543457,42.327881,41.611328
56960,2.858677,-0.210690,-3.572149,33.508301,22.735596,4.608154,41.611328
57000,-1.690306,-5.281609,-4.031836,171.539307,13.061523,62.225342,41.595703
57040,-3.926491,-4.616021,-1.604115,51.971436,-35.614014,51.635742,41.601562
57080,0.196325,-2.700660,0.430956,-49.713135,-112.792969,-120.605469,41.617188
57120,19.244593,-0.134075,-3.648763,97.595215,1.251221,12.481689,41.591797
57160,23.922863,4.218584,-2.662352,120.880127,-37.109375,-25.939941,41.599609
57200,22.955606,2.518700,-2.782062,112.670898,5.889893,-17.364502,41.595703
57240,14.259866,5.822699,-1.493982,163.726807,14.587402,-90.026855,41.599609
57280,7.278373,3.983952,2.001553,64.361572,71.777344,-59.051514,41.582031
57320,-1.091756,2.772485,0.253785,-18.432617,18.646240,-26.458740,41.582031
57360,-3.897760,1.225831,-1.240196,-81.573486,-5.798340,27.740479,41.597656
57400,0.464475,2.844312,-2.341529,-108.001709,-24.871826,35.949707,41.593750
57440,9.346964,4.266468,-3.232172,-97.778320,-80.780029,21.972656,41.580078
57480,21.064186,4.750096,-3.950433,-94.970703,-84.503174,30.822754,41.609375
57520,26.187778,6.354211,-1.067814,-187.377930,-11.260986,68.023682,41.617188
57560,21.624430,5.602432,-0.129287,-188.201904,53.558350,82.702637,41.574219
57600,10.477027,3.677494,-4.223372,-109.649658,26.092529,34.301758,41.607422
57640,3.758897,-0.770933,-4.122815,50.048828,11.138916,18.402100,41.595703
57680,-1.628057,-5.865794,-3.529053,154.876709,110.656738,76.141357,41.615234
57720,-5.530606,-5.568913,-1.393425,23.681641,-87.310791,35.156250,41.607422
57760,2.030283,-2.695871,-0.976834,55.480957,-79.803467,-69.305420,41.615234
57800,16.352398,1.082179,-5.415684,131.317139,-26.824951,-42.510986,41.607422
57840,22.778435,1.388637,-3.294421,99.121094,-8.453369,-24.353027,41.601562
57880,20.403387,1.561020,-4.663905,108.032227,-56.854248,-42.083740,41.582031
57920,14.575900,4.089296,-2.537854,156.616211,-11.993408,-87.738037,41.601562
57960,8.475474,3.280056,0.972046,45.043945,88.897705,-70.831299,41.578125
58000,-0.349553,3.347094,0.043096,-25.299072,31.097412,-53.833008,41.601562
58040,-4.223372,2.231396,-1.163582,-82.611084,-4.974365,-6.042480,41.603516
58080,-0.512359,1.714248,-1.312023,-86.395264,-8.880615,4.394531,41.578125
58120,5.046977,1.513135,-3.222595,-86.700439,-46.112061,-1.159668,41.587891
58160,16.385916,2.413355,-4.170700,-56.823730,-45.776367,4.638672,41.597656
58200,22.658726,6.081272,-3.026271,-124.938965,-50.933838,35.705566,41.580078
58240,22.720974,6.057330,-0.320823,-145.080566,37.902832,52.734375,41.597656
58280,15.887922,5.377377,-0.708684,-164.886475,69.458008,68.237305,41.580078
58320,6.694188,4.165911,-2.676718,-90.118408,75.134277,27.526855,41.597656
58360,0.459687,-1.704672,-3.557784,91.674805,23.162842,57.647705,41.597656
58400,-2.456451,-6.464345,-3.481169,187.438965,16.296387,191.558838,41.603516
58440,-5.018247,-3.730166,-0.636858,18.615723,-89.752197,80.871582,41.591797
58480,-0.004788,-2.078167,0.828394,-63.873291,-73.455811,-178.924561,41.603516
58520,17.817650,0.656011,-5.827487,144.317627,-9.155273,-172.790527,41.578125
58560,27.289110,4.558560,-2.801216,101.776123,-3.173828,-4.730225,41.578125
58600,22.462400,3.232172,-3.371036,137.420654,-21.514893,-33.203125,41.572266
58640,15.002068,5.272032,-0.995988,153.198242,14.434814,-78.277588,41.574219
58680,7.546524,3.663129,2.130840,35.644531,71.502686,-56.274414,41.566406
58720,-1.517924,2.834735,-0.248997,-39.764404,28.381348,-34.729004,41.597656
58760,-4.276044,1.881842,-1.608904,-76.538086,-0.823975,9.063721,41.585938
58800,-0.454898,2.240973,-1.561020,-104.888916,9.643555,31.158447,41.595703
58840,6.909666,4.118027,-2.954445,-135.070801,-77.667236,30.212402,41.583984
58880,20.417751,5.291186,-2.873042,-79.620361,-66.619873,6.408691,41.574219
58920,24.985889,6.344635,-2.475605,-140.197754,-38.696289,33.233643,41.572266
58960,22.898146,5.937620,0.349553,-170.043945,76.385498,60.333252,41.568359
59000,13.441049,4.630386,-1.996764,-194.458008,63.171387,66.436768,41.574219
59040,4.122815,1.795651,-3.256114,-36.682129,64.086914,27.893066,41.558594
59080,-0.909797,-2.753332,-3.327940,114.013672,12.451172,113.342285,41.591797
59120,-3.055001,-5.061342,-4.060566,238.433838,-73.211670,155.426025,41.562500
59160,-3.495534,-3.509900,0.043096,-48.126221,-97.595215,-13.824463,41.576172
59200,8.394072,-2.351106,-0.938527,-52.337646,-4.150391,-278.930664,41.572266
59240,25.182213,4.683059,-5.181053,193.725586,-83.587646,-33.874512,41.556641
59280,24.794353,1.968034,-2.011129,83.496094,93.109131,17.181396,41.583984
59320,16.208746,5.420473,-4.414908,167.266846,-125.427246,-66.314697,41.568359
59360,10.544065,5.008670,-0.565032,112.213135,26.550293,-69.732666,41.574219
59400,5.420473,3.031059,1.268927,0.793457,80.383301,-43.975830,41.574219
59440,-2.288857,2.446874,-0.833182,-34.271240,15.350342,-27.618408,41.564453
59480,-4.156334,1.197101,-1.101333,-70.800781,5.737305,3.173828,41.574219
59520,0.842759,1.623269,-1.383849,-83.007812,-6.408691,19.348145,41.558594
59560,9.093178,2.451663,-1.939303,-62.591553,-26.733398,25.054932,41.564453
59600,17.022774,5.564125,-2.983175,-101.013184,-73.913574,22.369385,41.562500
59640,21.078552,6.967127,-1.297657,-118.927002,-38.574219,29.388428,41.570312
59680,20.163967,5.913678,0.119710,-132.598877,10.803223,39.550781,41.570312
59720,13.393165,5.142745,-0.129287,-199.096680,96.466064,51.147461,41.580078
59760,5.612009,2.475605,-3.222595,-55.786133,66.680908,11.779785,41.572266
59800,0.100556,-3.572149,-5.027823,157.501221,-19.531250,37.597656,41.566406
59840,-3.414132,-5.679047,-2.370260,147.369385,23.040771,80.749512,41.595703
59880,-3.643975,-2.533065,1.331176,-8.087158,-73.791504,-13.702393,41.574219
59920,5.075707,-1.891419,-0.325611,-24.658203,-45.074463,-91.033936,41.564453
59960,20.896593,3.471592,-5.865794,133.636475,-97.930908,-19.348145,41.566406
60000,25.201366,2.528277,-1.733402,114.135742,33.111572,-10.192871,41.580078
60040,22.098482,2.533065,-1.814805,139.221191,3.784180,-20.477295,41.583984
60080,13.943830,3.663129,-1.489193,168.945312,13.305664,-50.109863,41.591797
60120,6.675035,3.035848,0.919373,111.053467,49.957275,-49.072266,41.582031
60160,-1.422156,3.280056,-0.311246,11.444092,15.655518,-37.322998,41.582031
60200,-4.697424,1.599327,-0.895431,-55.938721,22.613525,12.695312,41.597656
60240,0.770933,2.628834,-2.240973,-82.366943,0.488281,37.933350,41.599609
60280,11.334151,4.285621,-1.958457,-92.529297,-84.564209,22.918701,41.560547
60320,18.741812,4.544195,-2.638410,-104.736328,-39.123535,15.625000,41.583984
60360,21.940464,6.157887,-2.422932,-169.006348,-46.691895,30.700684,41.593750
60400,20.714634,4.678270,-0.359130,-192.687988,19.958496,64.025879,41.554688
60440,12.876017,3.021482,-1.335965,-198.730469,100.585938,73.516846,41.582031
60480,4.228160,1.618480,-3.730166,-40.527344,65.887451,10.833740,41.589844
60520,-0.885855,-2.829947,-4.922479,206.542969,-29.266357,0.335693,41.591797
60560,-2.772485,-6.268020,-1.594538,90.789795,6.286621,91.278076,41.589844
60600,-2.236184,-4.046201,0.196325,-45.654297,-65.612793,-48.828125,41.564453
60640,11.386824,-0.818817,-1.900996,12.176514,11.749268,-71.289062,41.587891
60680,22.902933,3.342306,-4.563348,169.738770,-107.666016,-29.693604,41.574219
60720,24.176649,0.608127,-1.503559,86.486816,78.002930,-0.091553,41.582031
60760,17.812860,4.596867,-3.002329,126.892090,-53.894043,-53.039551,41.583984
60800,10.247183,4.821922,-0.067038,118.316650,24.993896,-76.660156,41.580078
60840,3.854665,2.394202,1.661576,15.563965,90.179443,-45.440674,41.578125
60880,-3.878607,2.499547,-0.723049,-40.283203,-4.241943,-18.798828,41.587891
60920,-3.074155,1.613692,-1.996764,-78.735352,-0.946045,16.082764,41.572266
60960,3.107674,2.226608,-2.351106,-90.698242,-33.020020,20.874023,41.582031
61000,15.045163,2.786851,-2.303222,-43.060303,-36.895752,3.997803,41.578125
61040,21.442471,6.325481,-2.379837,-120.117188,-53.588867,32.592773,41.582031
61080,22.428881,7.843405,0.052672,-187.347412,-17.150879,46.325684,41.564453
61120,18.104954,3.916914,-0.052672,-173.828125,66.955566,71.441650,41.570312
61160,8.149862,2.130840,-3.213019,-93.505859,26.702881,43.060303,41.585938
61200,0.756568,-0.780510,-3.778050,24.810791,38.909912,20.874023,41.591797
61240,-3.682282,-4.367024,-3.600879,116.607666,19.805908,49.652100,41.597656
61280,-4.132392,-4.161122,-1.527501,81.237793,-42.541504,-9.490967,41.562500
61320,3.581726,-2.700660,0.191536,-2.777100,-50.231934,-75.836182,41.572266
61360,20.417751,0.948104,-5.770026,147.979736,-54.840088,-12.451172,41.576172
61400,24.554934,2.145205,-1.719037,120.025635,9.765625,-16.387939,41.558594
61440,21.758505,3.663129,-2.346318,154.235840,-1.281738,-43.518066,41.564453
61480,13.407530,5.257667,-1.618480,173.034668,14.160156,-89.263916,41.583984
61520,6.215348,2.796427,1.326388,78.887939,91.979980,-60.729980,41.576172
61560,-1.929727,2.580950,0.158017,13.000488,-0.488281,-31.585693,41.564453
61600,-3.782839,2.135628,-1.450886,-49.865723,-3.784180,4.119873,41.572266
61640,0.344765,1.364695,-1.388637,-92.193604,-2.502441,27.740479,41.568359
61680,7.484274,2.523489,-2.820370,-130.523682,-43.548584,13.763428,41.554688
61720,19.349937,4.151546,-2.298434,-68.206787,-20.538330,10.742188,41.568359
61760,22.017078,7.872135,-2.293645,-110.473633,-67.443848,12.390137,41.582031
61800,22.586899,6.473921,0.646434,-167.907715,27.221680,50.476074,41.572266
61840,15.279796,3.873818,-0.234632,-204.193115,115.814209,81.756592,41.603516
61880,4.960786,2.183512,-2.844312,-98.937988,100.067139,45.257568,41.580078
61920,-1.254562,-1.470040,-3.203442,47.912598,38.360596,116.516113,41.585938
61960,-2.978387,-4.137180,-3.782839,147.399902,-105.712891,172.180176,41.576172
62000,-3.371036,-3.069367,-2.992752,167.480469,-55.694580,-17.364502,41.583984
62040,3.509900,-4.046201,0.723049,-140.289307,-100.036621,-243.316650,41.589844
62080,24.669855,2.322376,-5.142745,198.608398,-13.763428,-81.176758,41.589844
62120,27.322630,4.501099,-0.181959,103.973389,62.652588,2.410889,41.587891
62160,20.326773,4.467580,-3.371036,152.435303,-13.916016,-31.280518,41.583984
62200,11.003751,6.449979,-0.143652,147.338867,39.489746,-75.408936,41.582031
62240,4.400543,3.026271,2.087744,40.893555,63.568115,-42.846680,41.603516
62280,-3.620033,2.039860,-0.205901,-10.070801,-5.462646,-20.233154,41.583984
62320,-3.720589,1.225831,-1.623269,-68.725586,-9.063721,15.167236,41.591797
62360,0.924162,2.035071,-1.077391,-86.578369,-0.091553,21.392822,41.568359
62400,8.169016,4.189853,-2.197877,-106.140137,-44.799805,22.369385,41.593750
62440,19.148825,5.506664,-2.925714,-61.523438,-73.425293,9.002686,41.582031
62480,22.998701,6.675035,-1.024718,-141.113281,-66.619873,45.989990,41.597656
62520,22.203827,6.071695,0.277727,-148.559570,14.801025,57.983398,41.578125
62560,15.222335,5.075707,-0.038307,-178.131104,105.773926,66.711426,41.582031
62600,6.373365,3.265691,-2.686294,-66.375732,46.569824,26.733398,41.578125
62640,0.119710,-2.202666,-3.629610,38.970947,12.207031,66.711426,41.562500
62680,-4.663905,-4.491522,-3.423708,142.913818,2.899170,78.826904,41.593750
62720,-5.051765,-3.476381,0.531513,24.597168,-92.071533,-3.814697,41.560547
