MS,Accel X (m/s²),Accel Y (m/s²),Accel Z (m/s²),Gyro X (°/s),Gyro Y (°/s),Gyro Z (°/s),Temp (°C)
2360,4.055778,-10.544065,3.246537,12.542725,7.781982,-24.261475,27.878906
2400,2.949656,-11.123461,1.666364,16.174316,-23.468018,-16.754150,27.902344
2440,1.857901,-10.433931,1.752556,-5.859375,7.995605,-10.833740,27.916016
2480,3.107674,-8.465898,0.316035,2.075195,9.887695,-10.925293,27.890625
2520,4.386178,-8.355764,-0.162806,27.923584,10.833740,-13.031006,27.904297
2560,4.611232,-9.471462,0.387861,10.131836,19.042969,-11.840820,27.902344
2600,3.960010,-9.825804,0.531513,-19.195557,-1.495361,-10.559082,27.894531
2640,2.796427,-8.638280,0.679953,-35.064697,-26.519775,-8.087158,27.906250
2680,2.485181,-7.560889,1.029507,-33.050537,-0.335693,0.427246,27.914062
2720,2.906561,-7.278373,1.661576,-49.407959,50.292969,3.204346,27.900391
2760,3.342306,-7.876924,2.351106,-67.199707,46.051025,-1.007080,27.906250
2800,3.505111,-8.255207,2.054225,-61.889648,9.429932,-1.770020,27.925781
2840,4.036624,-8.231265,1.656788,-36.376953,-21.118164,1.281738,27.927734
2880,4.659117,-8.135497,1.680730,4.638672,-18.493652,-1.739502,27.925781
2920,5.607220,-8.576031,1.695095,20.935059,-8.789062,-0.152588,27.927734
2960,5.789180,-8.801085,2.020706,2.502441,-10.986328,-3.295898,27.925781
3000,5.621585,-10.395624,2.652776,-1.037598,1.251221,-9.796143,27.912109
3040,5.386954,-11.233594,1.503559,29.357910,12.786865,-0.854492,27.941406
3080,4.955997,-10.625467,-0.339977,59.661865,-0.610352,11.199951,27.933594
3120,3.366248,-8.810662,-1.058237,87.860107,-29.418945,14.923096,27.927734
3160,2.039860,-8.212111,0.239420,59.631348,-38.970947,1.098633,27.923828
3200,2.049437,-9.356541,1.072602,30.120850,-45.349121,-2.807617,27.943359
3240,2.164358,-9.136273,0.526724,5.157471,-53.863525,2.807617,27.925781
3280,2.073379,-7.766790,1.561020,-14.373779,-9.124756,3.112793,27.931641
3320,2.571373,-6.837840,2.384625,-18.066406,10.009766,3.143311,27.949219
3360,2.801216,-7.302315,1.776498,-15.716553,-14.038086,3.723145,27.955078
3400,2.964022,-8.030152,2.336741,-7.568359,-27.801514,4.272461,27.951172
3440,3.303998,-8.140285,3.213019,-0.579834,-27.221680,4.150391,27.931641
3480,4.050989,-7.766790,2.940080,-24.536133,-7.293701,-14.160156,27.943359
3520,5.233725,-8.643068,2.375048,-37.078857,-1.892090,-16.632080,27.949219
3560,4.903325,-10.606314,4.132392,-35.552979,35.522461,-10.772705,27.955078
3600,4.869806,-11.243171,4.544195,18.402100,60.455322,-7.965088,27.945312
3640,5.382165,-10.630256,1.388637,47.149658,-14.831543,-8.728027,27.957031
3680,3.926491,-9.940725,-1.551443,50.140381,-71.990967,9.765625,27.945312
3720,2.135628,-9.222465,-1.345541,50.994873,-44.281006,-4.547119,27.962891
3760,4.070143,-9.088389,-0.143652,12.573242,8.178711,-15.350342,27.941406
3800,5.975927,-9.787497,-0.699107,-11.749268,-7.324219,-3.631592,27.945312
3840,4.797980,-9.260772,-0.440533,-33.691406,-15.289307,0.488281,27.966797
3880,2.446874,-7.704541,1.268927,-53.192139,-15.533447,4.455566,27.968750
3920,2.020706,-6.617573,2.140416,-53.741455,29.479980,8.575439,27.960938
3960,3.476381,-6.584054,0.952892,-19.470215,16.021729,11.627197,27.988281
4000,4.917690,-7.048530,0.727837,14.312744,-28.686523,3.326416,27.980469
4040,5.367800,-7.436390,1.197101,25.146484,-44.677734,3.082275,27.984375
4080,4.606444,-7.905654,1.814805,27.709961,-33.264160,4.333496,27.957031
4120,4.764462,-8.403648,1.623269,20.751953,-5.706787,7.904053,27.982422
4160,5.688623,-8.714894,1.604115,4.180908,0.396729,4.486084,27.984375
4200,5.851429,-9.777920,2.480393,-10.070801,-19.805908,-8.392334,27.974609
4240,6.066907,-11.176133,2.188300,24.017334,1.495361,-6.408691,28.009766
4280,5.631162,-10.563218,-0.181959,62.896729,-7.476807,9.826660,27.982422
4320,3.447650,-8.963891,-1.292869,95.520020,-30.639648,16.479492,27.990234
4360,2.159570,-9.883265,0.397437,62.744141,-66.528320,2.929688,28.091797
4400,2.260126,-10.443508,1.532289,24.719238,-54.138184,-2.044678,28.080078
4440,3.141193,-8.092402,0.751779,-6.927490,-26.275635,6.774902,28.093750
4480,3.280056,-5.899313,1.024718,-13.153076,-28.381348,1.586914,28.072266
4520,3.303998,-5.444415,1.810017,-22.949219,-3.662109,1.403809,28.083984
4560,3.265691,-6.574478,1.690306,-22.583008,17.486572,9.643555,28.072266
4600,3.801992,-7.632715,2.207454,-12.420654,-5.828857,6.866455,28.076172
4640,3.696647,-7.809886,2.772485,-8.575439,-27.923584,-1.342773,28.072266
4680,3.821146,-8.374918,2.987964,-26.763916,2.136230,-4.455566,28.070312
4720,5.516241,-10.280702,3.356671,-9.307861,65.002441,-4.150391,28.068359
4760,6.531382,-11.348516,5.473145,68.176270,111.175537,10.803223,28.107422
4800,5.932832,-10.821792,4.400543,84.411621,-58.380127,8.514404,28.105469
4840,3.897760,-10.381259,0.689530,43.548584,-168.670654,56.274414,28.111328
4880,1.187524,-10.448297,-0.842759,81.512451,-113.677979,18.981934,28.087891
4920,1.455675,-9.107543,0.148441,57.464600,-72.753906,7.080078,28.095703
4960,3.888184,-9.414001,-0.119710,38.940430,-34.637451,-16.632080,28.099609
5000,6.363788,-9.576807,-0.019154,-6.652832,58.807373,11.444092,28.128906
5040,5.707777,-7.244854,-0.268151,-60.119629,39.215088,12.176514,28.115234
5080,4.280833,-5.473145,0.430956,-102.813721,39.489746,0.671387,28.111328
5120,3.998317,-5.626374,0.981623,-114.013672,75.531006,-6.164551,28.113281
5160,3.854665,-7.019799,1.134852,-122.344971,80.657959,-5.187988,28.119141
5200,3.629610,-8.365341,0.991199,-115.753174,31.433105,-0.671387,28.128906
5240,3.955221,-8.523358,2.025495,-73.455811,8.209229,-8.392334,28.140625
5280,4.639963,-9.265560,1.757344,-24.536133,-5.249023,-6.561279,28.115234
5320,6.019023,-10.026917,0.689530,32.531738,-38.269043,-3.936768,28.125000
5360,6.885724,-10.563218,1.225831,70.159912,-55.419922,-17.089844,28.138672
5400,6.742072,-11.233594,0.253785,107.330322,-27.099609,-10.375977,28.125000
5440,4.865018,-9.935937,-2.260126,129.455566,-69.061279,-3.753662,28.134766
5480,2.236184,-9.174581,-2.030283,110.687256,-116.516113,22.338867,28.140625
5520,0.474052,-10.745177,0.234632,51.330566,-88.897705,16.723633,28.150391
5560,2.600103,-10.146626,3.457227,25.695801,80.596924,10.070801,28.142578
5600,4.443638,-6.392519,3.189077,12.207031,94.696045,2.319336,28.130859
5640,3.404555,-4.764462,1.546654,20.263672,42.388916,34.271240,28.134766
5680,1.522712,-5.679047,0.612916,58.288574,-29.602051,2.471924,28.134766
5720,2.700660,-7.240066,1.991976,16.662598,-24.658203,3.295898,28.150391
5760,4.161122,-7.805098,3.026271,-30.334473,28.045654,-5.065918,28.128906
5800,4.898537,-7.613562,3.572149,-76.141357,34.362793,-20.660400,28.140625
5840,5.932832,-8.590396,4.007894,-72.174072,25.054932,-21.545410,28.144531
5880,5.793968,-10.156203,6.426037,-32.043457,74.615479,-21.392822,28.154297
5920,5.808333,-10.802638,4.103662,65.399170,8.605957,-30.700684,28.152344
5960,3.916914,-11.314998,-1.541866,74.432373,-82.031250,16.296387,28.175781
6000,1.561020,-10.596737,0.679953,19.256592,-16.845703,-1.434326,28.164062
6040,2.901772,-10.342952,0.981623,4.455566,19.592285,-12.695312,28.177734
6080,4.558560,-10.505757,-0.636858,-45.257568,4.241943,-7.751465,28.150391
6120,4.055778,-9.366117,-0.129287,-92.224121,-0.030518,-6.225586,28.158203
6160,2.858677,-7.675811,1.058237,-118.621826,34.332275,4.302979,28.146484
6200,1.953669,-6.215348,1.561020,-118.682861,76.599121,8.026123,28.175781
6240,2.312799,-5.995081,1.340753,-82.672119,79.711914,7.904053,28.166016
6280,3.605668,-6.727707,1.154005,-31.860352,12.451172,-1.739502,28.183594
6320,4.774038,-7.637504,0.737414,0.183105,-32.318115,3.387451,28.244141
6360,5.209783,-8.561666,1.101333,24.322510,-43.670654,-0.122070,28.263672
6400,5.406107,-9.935937,1.259350,34.637451,-34.698486,2.899170,28.251953
6440,5.559336,-10.568007,1.350330,17.059326,-39.642334,-7.019043,28.250000
6480,6.469133,-11.841722,1.403002,29.541016,-7.415771,-5.798340,28.250000
6520,5.607220,-11.128249,-0.675165,65.032959,-44.799805,0.396729,28.253906
6560,3.332729,-8.801085,-2.059013,105.743408,-94.421387,-5.981445,28.271484
6600,1.695095,-9.935937,-0.742203,72.570801,-96.893311,14.587402,28.271484
6640,1.197101,-11.142614,2.063802,21.911621,-8.850098,8.911133,28.279297
6680,3.021482,-8.686164,3.500323,30.059814,93.536377,13.854980,28.261719
6720,3.222595,-5.808333,2.327164,22.552490,51.177979,29.571533,28.275391
6760,2.054225,-5.200206,0.746991,76.324463,-23.193359,12.512207,28.265625
6800,2.580950,-6.119579,0.780510,75.531006,-75.958252,-1.922607,28.283203
6840,4.151546,-7.067683,2.604892,-10.375977,-13.397217,-1.129150,28.277344
6880,4.826711,-7.350199,3.323152,-51.940918,34.271240,-15.380859,28.271484
6920,5.506664,-7.781156,3.428497,-87.158203,32.440186,-28.533936,28.298828
6960,6.133945,-9.557653,5.458780,-85.510254,68.908691,-13.244629,28.273438
7000,6.129156,-9.825804,6.445191,53.680420,59.112549,-35.461426,28.277344
7040,5.080496,-10.658986,1.359907,54.321289,-47.576904,-8.941650,28.291016
7080,2.456451,-11.295844,-0.976834,78.521729,-92.742920,16.204834,28.291016
7120,1.302446,-10.342952,1.383849,9.826660,24.719238,-2.471924,28.296875
7160,3.500323,-10.697293,0.071826,-15.472412,23.742676,-12.420654,28.298828
7200,5.363012,-10.759542,-1.067814,-47.698975,4.241943,-1.678467,28.291016
7240,4.362236,-8.916007,0.229843,-100.402832,10.162354,1.586914,28.300781
7280,2.695871,-7.010222,2.049437,-136.871338,73.669434,6.439209,28.308594
7320,2.001553,-6.033388,2.068590,-117.340088,111.846924,12.207031,28.273438
7360,2.638410,-6.397307,1.077391,-73.303223,71.990967,8.544922,28.287109
7400,3.821146,-7.101202,0.938527,-13.122559,-22.644043,-5.828857,28.292969
7440,4.721366,-7.742848,1.345541,13.427734,-49.957275,-1.312256,28.316406
7480,5.013458,-8.518570,1.326388,35.888672,-38.513184,-1.403809,28.289062
7520,5.324705,-9.586384,1.302446,43.273926,-26.672363,1.434326,28.281250
7560,5.702989,-10.735600,1.565808,19.195557,-29.113770,-13.366699,28.306641
7600,6.861782,-12.612655,0.866701,35.766602,-19.287109,-9.521484,28.316406
7640,5.578490,-11.051635,-0.790087,42.449951,-57.617188,3.265381,28.333984
7680,3.145981,-8.465898,-1.493982,68.817139,-93.139648,-1.922607,28.308594
7720,1.379060,-10.098742,-0.134075,15.777588,-90.118408,19.317627,28.310547
7760,1.015141,-10.807426,2.734178,-0.274658,48.278809,13.702393,28.333984
7800,2.700660,-8.202535,2.633622,6.805420,82.183838,17.242432,28.312500
7840,2.858677,-5.674258,1.422156,22.766113,22.491455,25.939941,28.328125
7880,2.035071,-5.310339,1.125275,87.524414,-37.109375,15.380859,28.318359
7920,2.288857,-6.976704,1.264138,78.552246,-74.432373,5.279541,28.328125
7960,3.730166,-8.125920,2.097321,8.239746,-27.557373,-0.640869,28.324219
8000,4.683059,-7.661446,2.820370,-51.025391,27.587891,-6.500244,28.333984
8040,5.128380,-8.068460,4.084508,-71.411133,67.871094,-27.221680,28.314453
8080,5.985504,-9.490616,4.927267,-23.681641,46.203613,-23.864746,28.337891
8120,5.966351,-9.854534,6.426037,48.553467,40.069580,-27.770996,28.333984
8160,5.248090,-11.032481,2.351106,39.184570,-52.978516,-19.256592,28.328125
8200,3.442862,-11.683704,-0.823605,70.587158,-117.553711,0.762939,28.320312
8240,1.599327,-10.275913,1.570596,7.995605,15.777588,-3.265381,28.310547
8280,2.987964,-9.476251,0.459687,-5.249023,26.580811,-11.901855,28.333984
8320,5.094861,-9.969456,-1.154005,-19.226074,6.652832,-5.310059,28.425781
8360,4.975151,-8.892065,-0.809240,-51.452637,-21.240234,1.129150,28.414062
8400,3.524265,-7.163452,0.761356,-95.214844,-13.000488,3.479004,28.427734
8440,2.422932,-5.899313,1.565808,-107.330322,40.191650,1.098633,28.419922
8480,2.394202,-6.205771,1.316811,-93.811035,70.892334,7.965088,28.435547
8520,3.059790,-7.201759,1.350330,-52.917480,45.806885,2.349854,28.435547
8560,4.390966,-7.623138,0.981623,-23.101807,-12.634277,-0.457764,28.416016
8600,5.449203,-8.034941,0.981623,5.310059,-41.625977,1.434326,28.425781
8640,5.856217,-9.639056,1.661576,23.620605,-6.958008,4.119873,28.435547
8680,6.014235,-10.424355,1.905785,15.319824,-29.479980,0.915527,28.441406
8720,6.718130,-11.338940,1.776498,25.421143,-8.544922,-7.812500,28.441406
8760,6.531382,-11.362882,0.038307,67.962646,-13.305664,1.892090,28.435547
8800,4.481946,-8.767567,-1.896208,113.311768,-71.319580,7.019043,28.462891
8840,2.413355,-7.896077,-1.647211,106.781006,-97.015381,2.410889,28.455078
8880,1.709460,-10.582372,-0.186748,72.814941,-82.092285,16.021729,28.439453
8920,1.714248,-10.491392,1.805228,14.526367,7.263184,18.463135,28.455078
8960,3.399766,-7.551312,3.672705,-1.373291,117.675781,21.240234,28.445312
9000,3.859453,-5.181053,2.676718,-8.209229,79.742432,7.080078,28.453125
9040,3.778050,-5.204995,0.306458,43.395996,-17.242432,6.256104,28.458984
9080,3.897760,-6.430826,0.876278,27.282715,-37.292480,0.549316,28.455078
9120,3.979163,-7.287950,2.312799,-30.670166,9.124756,-0.915527,28.445312
9160,4.654328,-7.623138,3.600879,-73.455811,31.341553,-18.859863,28.451172
9200,6.387730,-8.868123,3.897760,-64.239502,34.210205,-20.690918,28.451172
9240,6.833052,-9.667787,6.890512,10.070801,86.242676,-17.242432,28.478516
9280,5.717354,-9.825804,4.280833,40.466309,-8.300781,-21.514893,28.455078
9320,3.701436,-11.147403,-0.785298,56.793213,-91.918945,12.786865,28.445312
9360,1.292869,-10.965444,0.004788,54.412842,-42.877197,12.695312,28.470703
9400,2.001553,-10.208876,1.412579,-10.803223,28.076172,-1.586914,28.447266
9440,4.759673,-10.558430,-0.354342,-13.916016,36.712646,-7.904053,28.458984
9480,5.808333,-9.543288,-0.861913,-50.781250,20.507812,2.532959,28.464844
9520,4.304775,-7.867347,0.177171,-93.048096,-5.157471,6.317139,28.482422
9560,2.671929,-6.560112,1.656788,-115.356445,58.044434,5.371094,28.466797
9600,2.394202,-6.258443,1.795651,-109.039307,99.914551,5.859375,28.468750
9640,2.873042,-7.082048,1.446098,-58.898926,75.103760,6.866455,28.482422
9680,3.864242,-7.747637,1.134852,-33.020020,-0.946045,-5.126953,28.472656
9720,4.869806,-7.541735,1.426944,4.943848,-23.742676,-0.610352,28.486328
9760,5.200206,-8.398860,1.288081,26.885986,-13.000488,0.457764,28.468750
9800,5.118803,-9.504981,1.283292,33.813477,-16.784668,3.265381,28.478516
9840,5.319916,-10.098742,1.690306,17.395020,-34.027100,-13.244629,28.503906
9880,6.363788,-11.334151,1.288081,36.987305,-13.427734,-16.448975,28.498047
9920,5.741296,-10.630256,-0.828394,59.143066,-38.726807,-2.716064,28.492188
9960,3.600879,-9.160215,-1.498770,73.486328,-85.510254,-2.014160,28.484375
10000,1.934515,-10.884041,0.191536,34.240723,-90.759277,24.688721,28.480469
10040,1.254562,-11.142614,3.136404,28.381348,51.666260,18.890381,28.478516
10080,2.116474,-7.627927,3.653552,-7.659912,82.031250,16.479492,28.470703
10120,2.308010,-5.391742,1.862689,27.435303,30.334473,14.831543,28.486328
10160,2.389413,-5.540183,0.306458,82.580566,-62.103271,1.251221,28.511719
10200,3.500323,-6.871359,1.192312,25.787354,-38.299561,-4.974365,28.507812
10240,4.654328,-7.402872,2.035071,-34.240723,11.108398,-4.272461,28.519531
10280,4.874595,-7.264008,2.715025,-65.429688,52.551270,-17.486572,28.583984
10320,5.779603,-8.437167,4.089296,-84.320068,50.567627,-32.653809,28.593750
10360,5.884948,-10.955867,6.823475,-30.181885,89.721680,-11.535645,28.591797
10400,4.419696,-12.038046,5.042189,85.754395,10.345459,8.422852,28.585938
10440,2.470816,-12.296620,-1.436521,84.472656,-137.542725,13.977051,28.582031
10480,2.643199,-10.711658,-1.493982,98.449707,-112.640381,0.610352,28.595703
10520,4.314352,-9.897630,0.632069,38.299561,-44.525146,1.525879,28.589844
10560,4.247314,-10.639832,0.038307,-32.409668,11.657715,7.141113,28.576172
10600,3.385401,-9.825804,-0.373495,-83.740234,25.512695,11.962891,28.605469
10640,3.342306,-7.062895,0.794875,-123.199463,44.189453,4.699707,28.601562
10680,2.925714,-5.310339,1.474828,-149.993896,67.810059,1.556396,28.583984
10720,2.667141,-5.731719,1.283292,-131.530762,97.045898,1.129150,28.599609
10760,2.987964,-7.216124,1.833959,-93.505859,91.094971,0.671387,28.583984
10800,4.156334,-8.192958,1.900996,-58.044434,-1.678467,-4.486084,28.582031
10840,5.037400,-8.441956,1.436521,18.310547,-13.641357,-8.239746,28.589844
10880,5.650316,-9.188946,0.751779,59.204102,-11.596680,3.204346,28.595703
10920,5.975927,-10.007763,0.991199,71.868896,-25.848389,-1.586914,28.617188
10960,6.617573,-11.516110,1.158794,63.354492,-20.141602,-10.284424,28.634766
11000,6.162675,-11.645397,-0.239420,63.781738,-39.550781,-1.007080,28.605469
11040,3.916914,-9.366117,-1.714248,88.043213,-83.648682,-0.976562,28.599609
11080,2.231396,-9.251195,-1.072602,63.262939,-91.979980,10.528564,28.615234
11120,0.665588,-10.860099,0.871489,18.768311,-48.706055,17.303467,28.625000
11160,1.029507,-9.390059,2.806004,12.786865,77.667236,10.467529,28.615234
11200,2.552219,-6.569689,3.256114,-26.733398,104.949951,15.594482,28.605469
11240,2.667141,-5.449203,1.733402,12.939453,35.614014,16.235352,28.611328
11280,2.695871,-5.985504,0.646434,64.117432,-52.581787,-0.488281,28.626953
11320,3.840300,-7.268796,1.465251,10.955811,-35.705566,1.647949,28.601562
11360,3.993528,-7.460332,2.446874,-34.240723,11.810303,-3.601074,28.595703
11400,4.338294,-8.111555,4.050989,-61.157227,51.391602,-24.749756,28.609375
11440,5.765238,-9.725247,4.673482,-32.684326,26.947021,-22.918701,28.609375
11480,6.248867,-10.194510,6.823475,45.654297,48.309326,-19.561768,28.615234
11520,5.458780,-10.678140,2.829947,49.682617,-50.506592,-18.249512,28.628906
11560,3.409343,-11.511322,-1.259350,104.034424,-135.009766,17.944336,28.626953
11600,1.101333,-10.558430,0.521936,49.713135,-37.933350,11.871338,28.625000
11640,2.815581,-9.931149,1.268927,5.828857,34.149170,-16.296387,28.615234
11680,5.544971,-10.041282,-0.296881,-24.047852,16.601562,-11.260986,28.605469
11720,4.927267,-9.021352,-0.608127,-75.378418,-24.291992,4.211426,28.619141
11760,2.791639,-7.173028,1.139640,-106.872559,10.070801,4.455566,28.625000
11800,1.829170,-6.052542,2.489970,-130.371094,97.320557,9.674072,28.625000
11840,2.705448,-5.980716,1.326388,-106.567383,98.052979,4.577637,28.642578
11880,4.108450,-6.588843,0.967257,-49.377441,24.261475,-5.126953,28.619141
11920,4.826711,-7.513005,1.043872,-10.253906,-23.559570,-2.777100,28.640625
11960,4.965574,-8.508993,1.288081,19.439697,-26.733398,1.220703,28.626953
12000,5.640739,-9.945514,1.613692,39.978027,-18.585205,-0.610352,28.642578
12040,6.344635,-10.721235,1.896208,23.742676,-27.313232,-3.448486,28.634766
12080,6.813898,-11.832145,1.335965,34.606934,-22.277832,-7.751465,28.658203
12120,5.281609,-10.845734,-0.713472,63.354492,-45.013428,4.272461,28.648438
12160,2.935291,-8.939949,-1.972822,102.386475,-107.147217,-1.373291,28.626953
12200,2.164358,-10.601525,-0.148441,56.335449,-101.348877,17.242432,28.648438
12240,1.972822,-10.749966,3.950433,-21.026611,62.683105,35.217285,28.640625
12280,2.303222,-7.527370,3.098097,4.425049,91.217041,16.021729,28.734375
12320,2.432509,-5.473145,0.234632,68.267822,-6.408691,9.277344,28.746094
12360,2.896984,-5.281609,0.349553,102.752686,-60.791016,2.410889,28.744141
12400,3.811569,-6.167464,1.790863,24.566650,-26.000977,-0.488281,28.732422
12440,3.931279,-7.196970,2.082955,-32.806396,12.481689,-5.157471,28.736328
12480,4.276044,-7.781156,4.122815,-103.729248,56.213379,-21.514893,28.714844
12520,6.268020,-8.868123,4.424485,-55.694580,44.769287,-34.759521,28.732422
12560,6.928820,-10.481815,6.641516,-0.274658,88.439941,-16.479492,28.728516
12600,4.836287,-11.994950,4.309563,47.027588,-1.953125,-0.946045,28.763672
12640,2.403779,-11.942278,-1.786075,106.933594,-142.028809,23.834229,28.734375
12680,1.819593,-10.323798,-0.584185,107.543945,-74.737549,-2.166748,28.750000
12720,4.050989,-9.787497,1.182736,29.663086,-13.488770,-4.760742,28.732422
12760,5.257667,-9.758766,0.181959,-15.441895,1.525879,-0.549316,28.724609
12800,4.314352,-9.016563,-0.253785,-65.917969,-1.770020,7.385254,28.736328
12840,3.126827,-7.445967,0.699107,-103.851318,22.705078,9.277344,28.753906
12880,2.370260,-6.272809,1.891419,-137.115479,69.580078,8.728027,28.742188
12920,2.959233,-6.081272,2.236184,-135.833740,119.445801,0.152588,28.755859
12960,4.213795,-6.526594,1.805228,-94.512939,84.930420,-5.371094,28.734375
13000,4.754885,-7.287950,0.957681,-42.785645,24.261475,-0.732422,28.740234
13040,5.142745,-8.068460,0.991199,6.561279,-14.587402,-6.011963,28.751953
13080,5.779603,-9.093178,1.082179,36.346436,-22.033691,2.624512,28.750000
13120,5.932832,-10.050858,1.561020,33.081055,-24.108887,-1.312256,28.759766
13160,6.507440,-11.554418,1.805228,34.515381,-5.493164,-10.070801,28.753906
13200,5.995081,-10.998962,0.090980,55.053711,-29.022217,-0.488281,28.773438
13240,3.960010,-8.820239,-1.417367,77.850342,-76.995850,-3.417969,28.773438
13280,2.480393,-9.720459,-0.521936,61.553955,-98.205566,9.826660,28.753906
13320,0.962469,-11.563994,1.575385,16.632080,-16.754150,15.502930,28.763672
13360,1.647211,-9.107543,3.821146,-8.514404,78.002930,13.458252,28.773438
13400,2.403779,-6.196194,2.691083,-8.453369,81.695557,17.578125,28.773438
13440,2.260126,-5.195418,0.445322,61.096191,-9.826660,6.225586,28.775391
13480,2.849100,-6.095637,0.287304,56.274414,-51.025391,-3.662109,28.779297
13520,4.031836,-7.431602,1.824382,-11.840820,-0.152588,-0.427246,28.779297
13560,4.477157,-7.675811,3.246537,-70.098877,49.621582,-8.453369,28.769531
13600,5.348647,-8.298303,4.256891,-70.648193,60.394287,-33.203125,28.773438
13640,6.421249,-9.720459,5.281609,-42.541504,45.959473,-17.913818,28.785156
13680,5.755661,-10.443508,6.186617,78.460693,29.266357,-19.836426,28.771484
13720,3.926491,-11.640609,0.186748,58.868408,-101.196289,8.178711,28.779297
13760,1.762132,-11.180922,-1.417367,80.810547,-96.160889,10.864258,28.789062
13800,2.489970,-10.338163,1.288081,30.334473,-4.241943,-2.716064,28.771484
13840,4.678270,-10.472239,0.627281,-7.568359,42.907715,-12.390137,28.789062
13880,5.109226,-9.921572,-1.130063,-46.508789,7.629395,2.471924,28.783203
13920,3.835511,-8.202535,0.000000,-87.097168,-0.762939,3.784180,28.789062
13960,2.633622,-6.382942,1.589750,-114.685059,50.598145,3.082275,28.787109
14000,2.236184,-6.095637,1.431733,-112.976074,96.160889,8.941650,28.785156
14040,2.676718,-6.804321,1.302446,-67.932129,100.830078,8.026123,28.794922
14080,3.830723,-7.431602,1.446098,-40.374756,18.280029,-5.920410,28.798828
14120,4.932055,-7.891289,1.460463,-4.760742,-18.981934,-0.518799,28.800781
14160,5.291186,-8.671799,1.321599,21.179199,-23.620605,4.333496,28.794922
14200,5.137957,-9.581595,1.503559,33.508301,-37.231445,5.523682,28.785156
14240,5.305551,-10.223241,2.375048,26.763916,-31.402588,-8.972168,28.886719
14280,6.631939,-11.578360,1.498770,52.856445,-15.899658,-7.812500,28.853516
14320,6.119579,-10.773908,-0.814029,76.080322,-58.563232,1.129150,28.880859
14360,3.562572,-8.623915,-1.680730,112.701416,-113.952637,6.988525,28.847656
14400,1.561020,-9.500193,-0.110133,62.957764,-122.650146,26.031494,28.859375
14440,0.603339,-10.682928,2.667141,25.482178,6.866455,10.223389,28.900391
14480,2.250550,-8.465898,3.696647,-18.798828,95.977783,16.815186,28.876953
14520,3.107674,-6.339846,2.523489,-31.860352,84.259033,17.028809,28.873047
14560,2.983175,-5.908890,0.660800,39.855957,6.774902,0.854492,28.871094
14600,3.950433,-6.698977,0.900220,29.998779,-32.470703,-1.800537,28.892578
14640,4.453215,-7.259220,2.370260,-13.275146,6.164551,-0.701904,28.888672
14680,3.892972,-7.287950,2.533065,-46.173096,22.308350,-7.110596,28.867188
14720,4.673482,-7.848193,2.949656,-63.598633,29.418945,-26.184082,28.884766
14760,6.076484,-9.538500,4.276044,-69.610596,32.440186,-12.115479,28.896484
14800,6.066907,-10.160992,6.062119,51.177979,49.682617,-36.743164,28.886719
14840,5.674258,-10.840945,1.288081,76.568604,-88.836670,-17.028809,28.880859
14880,3.150769,-11.209652,-0.478840,80.474854,-102.020264,29.144287,28.876953
14920,0.579397,-10.242394,1.790863,8.483887,24.444580,-2.471924,28.865234
14960,3.088520,-10.362105,0.430956,-3.997803,37.506104,-23.498535,28.902344
15000,5.453991,-10.237606,-0.794875,-51.208496,25.115967,-4.669189,28.916016
15040,4.304775,-8.714894,-0.220267,-97.442627,0.000000,5.432129,28.910156
15080,2.126051,-7.129933,1.675941,-136.718750,61.920166,9.735107,28.900391
15120,1.699883,-6.291962,1.747767,-111.175537,107.818604,10.986328,28.904297
15160,2.671929,-6.291962,1.613692,-60.485840,109.863281,0.549316,28.916016
15200,3.845088,-7.196970,1.182736,-34.179688,20.141602,-4.730225,28.904297
15240,4.903325,-8.001422,0.852336,-3.479004,-45.074463,-2.624512,28.904297
15280,5.497087,-8.767567,1.522712,27.252197,-43.151855,-6.988525,28.904297
15320,5.401319,-9.773131,1.766921,32.196045,-34.484863,-4.089355,28.892578
15360,5.746084,-11.185710,1.790863,25.909424,-22.155762,-10.711670,28.921875
15400,6.287174,-12.320562,0.857124,47.149658,-23.315430,-4.882812,28.906250
15440,4.630386,-10.515334,-1.479617,79.559326,-93.475342,1.922607,28.900391
15480,2.432509,-8.480263,-1.608904,99.304199,-127.380371,9.857178,28.906250
15520,0.928950,-10.328587,0.746991,41.107178,-85.083008,16.906738,28.906250
15560,1.383849,-10.448297,3.600879,14.251709,60.638428,13.122559,28.919922
15600,2.504335,-7.570466,2.911349,-1.068115,75.012207,11.840820,28.919922
15640,2.695871,-5.837064,1.302446,35.827637,27.282715,16.296387,28.923828
15680,2.801216,-6.119579,0.660800,61.798096,-53.710938,6.378174,28.929688
15720,3.524265,-6.947973,1.527501,21.362305,-41.839600,3.082275,28.935547
15760,4.098873,-7.158663,2.126051,-21.148682,2.502441,-2.136230,28.929688
15800,4.094085,-7.359776,3.600879,-68.969727,54.260254,-18.951416,28.933594
15840,5.540183,-8.590396,3.811569,-61.279297,30.456543,-38.177490,28.945312
15880,5.971139,-10.208876,5.870583,-31.433105,60.821533,-11.688232,28.945312
15920,5.171476,-10.864887,5.621585,78.430176,18.829346,-24.993896,28.919922
15960,4.232949,-11.319786,-0.694318,95.733643,-133.026123,0.671387,28.947266
16000,2.145205,-10.563218,-0.354342,45.257568,-77.148438,12.420654,28.916016
16040,2.049437,-10.251971,1.508347,9.643555,15.167236,-1.831055,28.925781
16080,4.280833,-10.764331,-0.043096,-18.310547,8.056641,-8.117676,28.916016
16120,5.453991,-9.844957,-0.952892,-50.109863,12.573242,4.211426,28.962891
16160,4.395754,-7.661446,0.292093,-105.285645,8.697510,4.516602,28.933594
16200,2.964022,-5.980716,1.570596,-125.030518,57.861328,-2.380371,28.931641
16240,2.753332,-5.760449,1.551443,-126.922607,94.299316,-1.434326,29.001953
16280,2.892196,-6.828263,1.206678,-80.963135,87.921143,5.859375,29.007812
16320,3.533842,-7.795521,1.230620,-31.524658,-8.087158,-6.591797,29.007812
16360,4.515464,-8.111555,1.374272,5.828857,-37.872314,-4.943848,29.009766
16400,5.166687,-9.078813,1.412579,44.982910,-17.517090,-0.274658,29.007812
16440,5.755661,-10.108319,1.426944,62.377930,-25.390625,4.669189,29.013672
16480,6.411672,-11.128249,1.556231,48.126221,-20.935059,-8.361816,29.015625
16520,6.488286,-11.688493,0.608127,53.527832,-28.289795,-5.218506,29.011719
16560,4.563348,-9.557653,-1.249773,70.922852,-73.638916,4.638672,29.015625
16600,2.322376,-8.264784,-1.695095,79.528809,-95.001221,8.605957,29.015625
16640,1.288081,-10.448297,-0.430956,47.912598,-92.407227,21.392822,29.037109
16680,1.403002,-10.678140,2.437297,24.932861,38.238525,19.958496,29.035156
16720,2.734178,-7.436390,3.878607,-7.446289,101.806641,18.066406,29.021484
16760,3.141193,-5.410896,2.351106,13.305664,44.097900,21.209717,29.035156
16800,2.868254,-5.549759,0.756568,88.684082,-76.721191,10.253906,29.027344
16840,3.658340,-6.981492,1.340753,40.069580,-76.385498,9.124756,29.042969
16880,4.194642,-7.560889,1.987187,-22.064209,-16.662598,7.080078,29.039062
16920,4.553771,-7.924808,4.534618,-82.977295,92.407227,-16.723633,29.037109
16960,6.349423,-9.385271,5.023035,-58.868408,53.009033,-34.729004,29.042969
17000,6.746861,-11.257536,6.526594,40.252686,59.936523,-12.512207,29.056641
17040,4.256891,-12.449849,1.953669,48.431396,-90.545654,16.815186,29.072266
17080,2.365471,-11.597513,-1.795651,106.628418,-121.154785,-2.319336,29.035156
17120,3.117251,-10.002975,0.067038,68.603516,-77.423096,2.960205,29.044922
17160,3.691859,-9.366117,0.603339,2.319336,-3.479004,8.056641,29.033203
17200,3.543418,-9.390059,-0.660800,-29.266357,16.052246,4.241943,29.037109
17240,3.696647,-8.154651,-0.210690,-81.665039,42.480469,4.089355,29.027344
17280,3.505111,-6.607996,0.799663,-131.683350,47.332764,1.922607,29.052734
17320,2.896984,-6.435614,1.594538,-150.115967,91.674805,-0.732422,29.050781
17360,3.011906,-6.919243,1.877054,-116.119385,128.784180,-1.922607,29.050781
17400,3.706224,-7.565677,1.728614,-75.256348,62.500000,-4.760742,29.062500
17440,4.553771,-7.905654,1.369483,-34.301758,-11.352539,-6.988525,29.070312
17480,4.965574,-7.924808,1.115698,22.949219,-11.322021,-3.143311,29.046875
17520,5.267244,-8.968679,1.063026,54.412842,1.831055,1.861572,29.066406
17560,5.884948,-9.979033,1.393425,35.888672,-28.656006,-8.453369,29.044922
17600,6.789956,-11.056423,2.025495,25.451660,-5.981445,-20.812988,29.056641
17640,6.636727,-11.070788,0.330400,41.870117,-8.544922,-9.155273,29.062500
17680,4.874595,-9.088389,-1.350330,57.525635,-39.672852,1.220703,29.062500
17720,3.160346,-8.585608,-1.077391,62.225342,-38.360596,-1.525879,29.056641
17760,2.116474,-10.965444,-0.378284,37.048340,-72.143555,14.465332,29.066406
17800,0.967257,-10.970232,1.048660,3.112793,5.126953,12.512207,29.058594
17840,1.680730,-7.647080,2.896984,3.875732,94.543457,16.754150,29.089844
17880,2.820370,-5.042189,2.542642,-10.314941,68.298340,11.260986,29.062500
17920,3.016694,-5.343858,0.737414,43.029785,-1.739502,10.528564,29.060547
17960,3.572149,-6.962338,0.723049,45.745850,-65.216064,-2.136230,29.076172
18000,4.362236,-8.140285,2.068590,-25.268555,-7.202148,1.892090,29.066406
18040,4.611232,-7.910442,3.964798,-62.255859,59.326172,-15.289307,29.076172
18080,5.789180,-8.566454,3.912126,-45.684814,48.736572,-35.919189,29.076172
18120,6.603208,-10.170568,5.980716,8.850098,43.975830,-7.324219,29.062500
18160,5.391742,-11.338940,4.764462,73.028564,-27.069092,-1.861572,29.058594
18200,3.428497,-11.860875,-1.570596,87.829590,-141.723633,13.244629,29.156250
18240,3.007117,-10.381259,-1.139640,108.734131,-90.332031,5.706787,29.128906
18280,4.137180,-9.500193,0.780510,43.792725,1.251221,2.716064,29.146484
18320,4.429273,-9.840169,-0.636858,-16.235352,2.990723,4.302979,29.146484
18360,4.118027,-8.810662,-0.493206,-67.230225,-14.404297,4.364014,29.158203
18400,3.552995,-7.096414,1.383849,-129.821777,35.491943,5.432129,29.167969
18440,2.561796,-6.220136,1.867477,-149.871826,75.317383,8.453369,29.167969
18480,2.676718,-6.344635,1.996764,-142.791748,117.523193,4.272461,29.169922
18520,4.022259,-6.924031,2.092532,-88.684082,81.146240,-3.112793,29.169922
18560,5.046977,-7.675811,0.967257,-35.003662,-4.730225,-4.058838,29.164062
18600,5.434838,-8.145074,0.866701,23.986816,-23.559570,-6.042480,29.167969
18640,5.765238,-9.385271,1.182736,61.218262,-20.263672,-0.885010,29.177734
18680,6.382942,-10.362105,1.221043,67.199707,-40.374756,-12.145996,29.181641
18720,6.895301,-11.382035,0.881066,66.711426,-31.433105,-15.258789,29.181641
18760,5.770026,-10.491392,-0.603339,68.115234,-46.264648,-1.739502,29.164062
18800,3.586514,-8.963891,-1.058237,74.890137,-63.995361,0.366211,29.167969
18840,1.934515,-10.486604,0.292093,27.557373,-53.131104,28.442383,29.162109
18880,0.713472,-11.238382,2.212242,4.913330,35.522461,14.129639,29.189453
18920,2.020706,-8.073248,3.122039,5.706787,108.917236,7.476807,29.185547
18960,3.074155,-5.664681,2.035071,-6.744385,51.513672,16.418457,29.179688
19000,2.868254,-5.367800,1.115698,51.269531,-17.364502,11.016846,29.169922
19040,3.524265,-6.454768,1.723825,50.231934,-45.410156,2.349854,29.185547
19080,3.983952,-7.196970,2.173935,-13.397217,-7.141113,-3.875732,29.169922
19120,3.897760,-7.316680,3.059790,-57.312012,47.088623,-13.488770,29.201172
19160,4.960786,-8.279149,3.667917,-91.247559,61.676025,-15.533447,29.207031
19200,5.008670,-10.524911,6.019023,-57.403564,110.992432,-1.251221,29.187500
19240,4.979939,-11.204864,6.301539,47.576904,-0.244141,-26.580811,29.185547
19280,3.500323,-11.903971,-1.082179,93.383789,-160.949707,-0.366211,29.177734
19320,1.824382,-11.022904,-0.478840,60.211182,-88.928223,12.298584,29.193359
19360,2.240973,-9.902418,0.809240,67.413330,-35.766602,-2.014160,29.193359
19400,4.309563,-10.409989,-0.023942,18.676758,14.892578,-4.791260,29.195312
19440,5.090073,-9.830592,-0.905008,-32.928467,11.322021,9.033203,29.197266
19480,4.304775,-7.752425,0.134075,-87.738037,-8.575439,5.554199,29.199219
19520,3.409343,-5.851429,1.498770,-116.546631,40.283203,-1.892090,29.197266
19560,2.964022,-5.583278,1.474828,-123.046875,78.979492,-0.885010,29.201172
19600,2.901772,-6.746861,1.628057,-112.365723,99.395752,10.040283,29.189453
19640,3.471592,-7.771579,2.164358,-66.223145,25.115967,-4.638672,29.179688
19680,4.352659,-8.231265,1.369483,-5.920410,-23.254395,-1.892090,29.199219
19720,4.888960,-9.188946,1.154005,22.186279,-19.622803,-0.457764,29.214844
19760,5.755661,-10.467450,1.719037,55.419922,-37.536621,2.014160,29.199219
19800,6.880936,-11.635820,1.857901,56.457520,-18.341064,-9.582520,29.205078
19840,6.670246,-11.908759,0.201113,65.429688,-35.034180,-2.563477,29.214844
19880,4.295198,-9.385271,-1.843535,85.327148,-98.144531,0.305176,29.201172
19920,2.250550,-8.705317,-1.407791,75.592041,-109.863281,5.615234,29.203125
19960,0.885855,-11.080365,0.703895,22.735596,-44.891357,20.690918,29.226562
20000,1.364695,-9.888053,3.174711,5.432129,85.906982,22.094727,29.189453
20040,2.312799,-6.703765,2.887407,-23.895264,96.008301,23.193359,29.216797
20080,2.671929,-5.171476,1.144428,44.525146,4.089355,19.866943,29.220703
20120,3.107674,-5.755661,1.120486,83.068848,-56.549072,9.216309,29.228516
20160,3.696647,-7.129933,1.810017,22.827148,-35.034180,5.401611,29.230469
20200,4.223372,-7.805098,2.398990,-15.808105,16.998291,-1.831055,29.285156
20240,4.994305,-8.111555,4.778827,-74.768066,83.190918,-30.303955,29.294922
20280,6.627151,-9.682152,5.161899,-50.109863,61.401367,-28.900146,29.304688
20320,6.478710,-9.686940,6.617573,32.287598,36.621094,-24.291992,29.312500
20360,5.094861,-10.266336,3.236961,49.774170,-51.147461,-27.923584,29.314453
20400,3.533842,-10.754754,-0.536301,85.662842,-122.955322,-1.159668,29.292969
20440,1.651999,-10.568007,0.335188,36.407471,-41.320801,0.244141,29.291016
20480,2.331953,-11.348516,1.024718,12.603760,58.105469,-11.840820,29.287109
20520,5.789180,-10.778696,0.105345,-25.360107,54.443359,-18.249512,29.296875
20560,5.913678,-8.231265,-0.617704,-75.286865,-7.568359,3.662109,29.275391
20600,3.351882,-5.942409,0.229843,-88.348389,-1.983643,10.681152,29.292969
20640,1.426944,-5.032612,1.206678,-118.499756,48.095703,14.129639,29.308594
20680,1.522712,-5.731719,1.460463,-103.088379,92.773438,3.784180,29.298828
20720,3.399766,-7.398083,1.374272,-97.534180,87.097168,0.854492,29.316406
20760,5.185841,-8.240842,1.551443,-80.841064,20.202637,-10.925293,29.291016
20800,5.798757,-8.930372,1.905785,-62.042236,-27.130127,-20.477295,29.302734
20840,6.181829,-10.438720,1.561020,-0.396729,11.138916,2.319336,29.300781
20880,6.493075,-10.472239,1.551443,42.938232,-2.838135,0.732422,29.333984
20920,6.871359,-10.591949,1.019930,75.805664,-1.525879,-11.566162,29.318359
20960,5.784391,-9.868899,-1.192312,119.415283,-42.053223,-11.596680,29.298828
21000,3.921702,-9.251195,-2.331953,131.927490,-114.929199,-0.976562,29.339844
21040,2.331953,-10.572795,-0.881066,76.995850,-117.980957,23.895264,29.335938
21080,0.593762,-11.583148,1.211466,18.981934,-42.541504,18.737793,29.314453
21120,1.206678,-8.796297,2.221819,-0.518799,98.785400,18.096924,29.339844
21160,2.887407,-5.382165,2.432509,-22.766113,145.019531,13.275146,29.324219
21200,3.490746,-4.419696,1.656788,-26.184082,87.982178,0.976562,29.316406
21240,4.103662,-5.813122,0.948104,13.122559,0.030518,-2.960205,29.347656
21280,4.486734,-7.455544,2.068590,-11.871338,-5.462646,0.030518,29.326172
21320,3.921702,-7.891289,2.973598,-46.325684,22.125244,-10.467529,29.328125
21360,5.204995,-8.643068,3.313575,-47.851562,31.188965,-26.306152,29.332031
21400,6.373365,-10.295067,5.449203,-33.996582,85.662842,-15.625000,29.332031
21440,6.272809,-10.333375,6.641516,42.114258,13.580322,-37.353516,29.332031
21480,4.721366,-11.626244,0.095768,62.469482,-141.448975,0.915527,29.345703
21520,1.240196,-11.238382,-1.805228,65.246582,-118.621826,27.709961,29.326172
21560,1.067814,-10.304645,0.943315,67.382812,13.031006,-20.507812,29.349609
21600,4.467580,-10.850522,0.363919,12.054443,47.424316,-15.045166,29.343750
21640,5.257667,-9.414001,-1.139640,-55.389404,-7.019043,5.615234,29.347656
21680,3.960010,-7.230489,-0.196325,-78.979492,-22.216797,4.943848,29.349609
21720,2.743755,-5.602432,1.513135,-114.166260,42.541504,2.471924,29.339844
21760,2.054225,-5.717354,1.891419,-130.004883,95.672607,4.913330,29.335938
21800,2.662352,-7.105990,2.355895,-100.738525,95.428467,-2.349854,29.328125
21840,4.237737,-8.054094,1.977611,-56.427002,-2.105713,-8.483887,29.349609
21880,4.951209,-8.422802,0.861913,3.753662,-45.135498,-12.725830,29.363281
21920,5.339070,-9.308656,1.015141,58.013916,-29.388428,3.692627,29.339844
21960,6.009446,-9.983821,1.422156,65.521240,-51.910400,-4.119873,29.351562
22000,6.928820,-11.338940,1.359907,65.368652,-30.029297,-12.451172,29.345703
22040,6.215348,-11.429919,-0.253785,59.875488,-43.090820,0.396729,29.357422
22080,3.983952,-9.452309,-1.522712,75.592041,-84.381104,1.281738,29.392578
22120,2.255338,-10.065224,-0.608127,30.822754,-87.219238,30.914307,29.361328
22160,0.464475,-11.525687,1.522712,-4.791260,4.089355,21.392822,29.427734
22200,1.551443,-8.992621,2.839523,-11.444092,84.228516,18.768311,29.421875
22240,2.973598,-5.688623,2.173935,-5.615234,70.617676,17.303467,29.439453
22280,2.959233,-4.199430,1.388637,40.618896,-1.007080,19.683838,29.419922
22320,2.643199,-5.770026,1.460463,92.468262,-91.064453,9.124756,29.427734
22360,3.308787,-8.259995,1.728614,9.613037,-50.048828,-0.152588,29.439453
22400,4.510676,-8.365341,2.782062,-43.823242,25.512695,-3.479004,29.429688
22440,5.415684,-8.446744,3.883395,-63.018799,63.262939,-30.090332,29.433594
22480,6.296751,-10.251971,5.353435,-33.203125,54.016113,-15.167236,29.439453
22520,5.746084,-11.099519,6.947973,70.556641,21.392822,-11.535645,29.421875
22560,3.897760,-11.631032,0.612916,74.371338,-143.768311,-8.911133,29.429688
22600,2.509123,-10.706870,-1.379060,93.048096,-140.167236,-0.091553,29.419922
22640,2.700660,-9.538500,1.288081,54.077148,-17.150879,-3.204346,29.447266
22680,4.141969,-9.864111,0.598550,1.525879,38.452148,-0.152588,29.439453
22720,4.304775,-9.811439,-1.532289,-30.761719,-11.138916,4.730225,29.433594
22760,4.050989,-8.054094,-0.684742,-70.983887,-34.667969,5.767822,29.458984
22800,3.591303,-6.100426,1.561020,-117.858887,26.428223,3.601074,29.466797
22840,2.801216,-5.650316,2.011129,-138.580322,83.129883,4.913330,29.453125
22880,2.667141,-6.507440,1.733402,-102.172852,110.839844,8.697510,29.433594
22920,3.505111,-7.407660,1.800440,-96.130371,32.379150,-10.955811,29.453125
22960,5.161899,-7.872135,1.527501,-29.083252,-16.174316,-9.521484,29.457031
23000,5.975927,-8.714894,1.288081,33.050537,-18.829346,-2.441406,29.449219
23040,6.378153,-9.955091,1.350330,62.438965,-26.336670,-1.373291,29.468750
23080,6.986280,-10.903194,1.412579,71.228027,-25.787354,-13.183594,29.443359
23120,7.082048,-11.386824,0.119710,88.684082,-25.543213,-14.312744,29.458984
23160,5.353435,-9.864111,-1.628057,97.900391,-71.960449,-0.640869,29.437500
23200,3.007117,-9.749189,-1.403002,79.833984,-95.153809,23.956299,29.455078
23240,0.316035,-11.626244,0.076614,8.850098,-84.960938,43.090820,29.457031
23280,0.009577,-10.103531,2.403779,-1.434326,63.323975,14.221191,29.449219
23320,2.485181,-6.665458,3.351882,-3.387451,167.388916,7.904053,29.447266
23360,3.864242,-4.563348,2.303222,-31.677246,95.184326,8.056641,29.447266
23400,3.969586,-4.869806,0.876278,44.891357,-13.092041,-2.227783,29.466797
23440,4.491522,-6.866570,1.561020,15.930176,-34.027100,-7.171631,29.464844
23480,4.309563,-7.752425,2.379837,-36.895752,21.545410,-12.908936,29.474609
23520,4.510676,-7.709330,3.227384,-63.934326,63.720703,-28.625488,29.476562
23560,5.717354,-9.706094,3.964798,-58.990479,69.244385,-21.575928,29.464844
23600,5.521029,-11.214440,7.407660,34.179688,110.168457,-14.709473,29.476562
23640,3.620033,-11.726800,2.446874,39.886475,-126.220703,10.101318,29.466797
23680,1.283292,-11.769896,-2.873042,100.616455,-175.659180,24.444580,29.443359
23720,1.446098,-10.395624,0.244209,63.812256,-45.562744,-3.967285,29.460938
23760,4.209007,-10.855310,0.660800,40.924072,8.026123,-18.493652,29.466797
23800,5.621585,-10.194510,-1.000776,-35.949707,1.068115,10.009766,29.449219
23840,4.687847,-8.092402,-0.900220,-67.382812,-56.060791,10.955811,29.482422
23880,3.303998,-6.143522,1.005565,-96.649170,-6.103516,4.882812,29.484375
23920,2.451663,-5.444415,2.178724,-120.788574,76.263428,10.284424,29.470703
23960,2.370260,-6.435614,2.322376,-90.667725,109.100342,6.469727,29.466797
24000,4.017470,-7.431602,1.862689,-50.201416,10.650635,-18.829346,29.500000
24040,5.473145,-7.651869,0.962469,-2.868652,-40.679932,-2.227783,29.488281
24080,5.449203,-8.805874,1.240196,28.228760,-33.447266,-4.455566,29.507812
24120,5.655105,-10.400413,1.723825,52.368164,-41.107178,3.601074,29.480469
24160,6.756437,-11.233594,1.570596,48.309326,-19.531250,-6.072998,29.544922
24200,6.981492,-11.583148,0.095768,62.774658,-19.500732,1.403809,29.560547
24240,4.635174,-9.471462,-1.891419,79.925537,-71.502686,9.399414,29.572266
24280,2.513912,-9.485827,-1.584962,66.406250,-103.210449,25.726318,29.578125
24320,0.593762,-11.812991,0.622492,20.721436,-44.311523,36.193848,29.548828
24360,1.326388,-9.351752,3.294421,16.967773,71.319580,10.681152,29.562500
24400,2.935291,-6.244078,2.877831,-5.432129,83.282471,16.052246,29.566406
24440,3.227384,-4.975151,1.197101,50.109863,-7.995605,8.697510,29.568359
24480,3.327940,-5.851429,0.660800,63.201904,-64.849854,-3.173828,29.544922
24520,4.022259,-7.177817,1.221043,-1.190186,-28.015137,-3.234863,29.566406
24560,4.189853,-7.680599,2.604892,-60.485840,63.476562,-6.042480,29.564453
24600,5.066131,-8.619126,3.873818,-75.134277,89.416504,-37.384033,29.554688
24640,6.373365,-10.419566,5.348647,-27.282715,65.734863,-23.529053,29.582031
24680,6.042965,-10.419566,6.445191,69.244385,-11.444092,-20.599365,29.558594
24720,3.782839,-11.252748,0.234632,89.172363,-161.254883,-0.091553,29.587891
24760,1.168370,-11.022904,-0.612916,88.195801,-116.210938,13.488770,29.544922
24800,1.484405,-10.213664,1.302446,33.050537,22.521973,-6.530762,29.574219
24840,4.232949,-10.568007,0.124498,-7.751465,22.918701,-11.260986,29.576172
24880,5.726931,-9.686940,-0.837971,-50.781250,6.744385,3.173828,29.556641
24920,4.841076,-7.445967,-0.277727,-82.214355,-8.239746,4.608154,29.574219
24960,3.241749,-5.750873,1.216254,-115.142822,32.623291,1.983643,29.582031
25000,2.260126,-5.808333,1.709460,-129.516602,80.688477,3.112793,29.582031
25040,2.331953,-7.034164,1.493982,-107.818604,91.064453,11.444092,29.582031
25080,3.418920,-7.963115,2.097321,-80.291748,28.656006,-9.674072,29.597656
25120,4.946421,-8.192958,1.374272,-22.247314,-22.827148,-7.720947,29.587891
25160,5.573701,-8.604761,0.790087,31.188965,-24.749756,-2.136230,29.587891
25200,5.755661,-10.184934,1.110910,63.842773,-41.656494,1.098633,29.583984
25240,6.742072,-11.860875,1.288081,67.443848,-35.125732,-6.286621,29.582031
25280,6.545747,-11.798626,0.138864,72.143555,-40.252686,4.150391,29.582031
25320,4.127604,-9.054871,-1.350330,91.033936,-73.425293,5.004883,29.574219
25360,2.561796,-8.772355,-1.187524,88.073730,-75.927734,9.582520,29.583984
25400,1.723825,-10.907983,0.263362,32.012939,-37.811279,27.191162,29.570312
25440,1.508347,-9.730036,1.843535,17.913818,45.501709,14.709473,29.580078
25480,2.767697,-6.708553,2.858677,-16.265869,93.444824,19.012451,29.583984
25520,3.016694,-5.358223,2.126051,15.930176,48.370361,18.035889,29.591797
25560,3.031059,-5.956774,1.206678,53.924561,-34.484863,8.026123,29.591797
25600,3.620033,-6.933608,1.613692,23.071289,-38.665771,4.302979,29.603516
25640,4.108450,-7.383718,2.619257,-24.322510,20.355225,-1.647949,29.609375
25680,5.099649,-8.216900,4.261679,-68.389893,83.801270,-30.975342,29.593750
25720,6.675035,-10.357317,4.946421,-52.307129,71.472168,-23.864746,29.597656
25760,5.999869,-11.750742,6.296751,48.980713,47.454834,-14.251709,29.611328
25800,3.098097,-11.875240,0.349553,73.669434,-125.762939,13.977051,29.593750
25840,2.059013,-9.979033,-0.402226,96.191406,-97.961426,-6.195068,29.605469
25880,3.457227,-8.748413,0.842759,61.889648,-19.317627,-9.490967,29.623047
25920,4.295198,-9.878476,-0.134075,-3.570557,-13.000488,0.244141,29.611328
25960,4.103662,-10.175357,-0.799663,-39.276123,-23.193359,2.532959,29.597656
26000,3.912126,-8.183381,0.670376,-99.517822,22.644043,1.037598,29.605469
26040,3.256114,-6.105214,2.039860,-145.538330,71.990967,1.129150,29.601562
26080,2.643199,-5.722142,1.920150,-148.681641,113.403320,1.037598,29.619141
26120,2.815581,-6.397307,2.001553,-107.666016,135.650635,4.608154,29.675781
26160,3.620033,-7.374141,1.388637,-81.787109,53.833008,-2.258301,29.669922
26200,4.448427,-7.718906,1.479617,-31.585693,-22.216797,-17.944336,29.695312
26240,5.463568,-8.585608,1.388637,18.463135,-17.730713,-7.293701,29.687500
26280,6.181829,-10.213664,1.106121,64.239502,0.152588,0.946045,29.675781
26320,7.331046,-12.569559,0.483629,77.514648,-27.099609,-6.805420,29.679688
26360,6.445191,-11.951855,-0.325611,68.695068,-68.450928,7.598877,29.683594
26400,3.734955,-8.552089,-0.464475,67.779541,-67.687988,-2.990723,29.695312
26440,2.375048,-9.883265,-0.062249,34.332275,-66.314697,34.057617,29.691406
26480,0.440533,-11.209652,0.737414,-0.610352,-5.279541,19.989014,29.666016
26520,1.307234,-8.892065,2.116474,12.756348,69.396973,2.258301,29.677734
26560,2.782062,-6.373365,2.092532,-7.720947,57.159424,11.779785,29.693359
26600,2.691083,-5.430049,1.661576,23.315430,6.958008,8.972168,29.712891
26640,2.662352,-5.765238,1.441309,55.969238,-57.128906,1.617432,29.695312
26680,3.093309,-6.574478,1.532289,4.730225,-30.578613,-1.098633,29.679688
26720,3.782839,-6.986280,2.705448,-49.621582,44.952393,-7.812500,29.712891
26760,5.358223,-8.901642,3.979163,-72.601318,96.466064,-29.754639,29.703125
26800,5.966351,-13.211205,4.740520,-22.949219,97.717285,-4.821777,29.693359
26840,6.042965,-14.231135,4.855441,151.519775,-132.049561,-12.359619,29.708984
26880,2.351106,-10.692505,-0.833182,-10.314941,-131.164551,76.599121,29.687500
26920,1.029507,-9.006987,-3.160346,178.649902,-157.775879,-40.863037,29.685547
26960,4.520253,-8.044518,0.837971,113.952637,-90.576172,14.556885,29.693359
27000,4.692636,-9.739613,2.394202,-36.468506,33.172607,6.134033,29.695312
27040,4.572925,-9.131485,1.335965,-78.277588,40.283203,5.432129,29.689453
27080,3.849876,-6.818686,0.464475,-128.387451,40.100098,13.458252,29.699219
27120,2.346318,-6.167464,0.512359,-136.138916,71.380615,12.969971,29.707031
27160,2.398990,-6.454768,1.642422,-135.742188,105.255127,0.976562,29.708984
27200,3.696647,-6.607996,2.557007,-110.229492,123.657227,1.800537,29.708984
27240,4.606444,-7.513005,1.580173,-86.791992,64.208984,-13.702393,29.722656
27280,5.803545,-8.858546,1.331176,-58.837891,16.265869,-25.939941,29.703125
27320,6.200983,-10.668563,1.130063,22.430420,6.622314,-13.336182,29.687500
27360,6.526594,-13.125013,-0.387861,95.153809,-32.257080,-9.918213,29.710938
27400,5.291186,-11.645397,-1.431733,114.379883,-87.524414,7.659912,29.708984
27440,2.944868,-9.145850,-0.857124,110.229492,-124.542236,13.336182,29.712891
27480,0.392649,-10.912771,0.368707,41.412354,-102.783203,33.966064,29.705078
27520,-0.603339,-10.749966,1.431733,35.247803,2.441406,12.451172,29.724609
27560,1.244985,-8.303091,2.255338,34.118652,76.171875,5.340576,29.726562
27600,3.035848,-5.942409,1.790863,3.997803,62.896729,6.622314,29.726562
27640,3.663129,-5.444415,0.555455,23.468018,-6.225586,5.126953,29.728516
27680,3.653552,-6.157887,0.876278,24.017334,-41.229248,-0.488281,29.734375
27720,3.371036,-6.962338,2.504335,-26.336670,7.598877,0.732422,29.728516
27760,3.883395,-8.183381,4.429273,-63.293457,86.212158,-22.094727,29.722656
27800,6.033388,-9.773131,4.362236,-53.009033,66.802979,-33.264160,29.724609
27840,6.866570,-10.429143,6.655881,37.994385,70.922852,-28.198242,29.722656
27880,4.649539,-11.717223,1.766921,35.675049,-102.813721,-2.380371,29.734375
27920,1.307234,-12.057199,-2.853889,151.519775,-198.913574,8.300781,29.720703
27960,1.355118,-11.425131,1.460463,62.133789,-41.107178,-0.701904,29.750000
28000,3.524265,-11.238382,1.460463,29.235840,35.400391,-21.423340,29.730469
28040,5.286397,-9.720459,-0.339977,-29.479980,4.364014,0.549316,29.744141
28080,4.510676,-7.474698,-0.790087,-61.523438,-38.269043,5.462646,29.740234
28120,3.093309,-5.822699,0.766145,-81.268311,18.463135,0.793457,29.785156
28160,2.188300,-5.530606,1.953669,-118.499756,79.559326,5.279541,29.800781
28200,1.857901,-6.665458,1.929727,-108.001709,118.377686,5.950928,29.806641
28240,3.179500,-7.354988,2.054225,-90.545654,70.068359,-8.911133,29.781250
28280,4.917690,-7.623138,1.086968,-56.365967,1.525879,-12.390137,29.812500
28320,5.473145,-8.767567,1.345541,-29.663086,-39.367676,-11.840820,29.802734
28360,6.009446,-10.539276,1.910573,2.349854,-48.339844,-10.589600,29.796875
28400,6.804321,-11.688493,1.800440,55.786133,-27.801514,-16.113281,29.789062
28440,6.258443,-11.492168,-0.258574,97.167969,-28.015137,1.525879,29.810547
28480,3.964798,-9.078813,-2.149993,146.575928,-83.343506,5.981445,29.826172
28520,2.461239,-9.356541,-1.206678,112.457275,-102.050781,24.017334,29.822266
28560,1.355118,-11.707646,1.101333,36.071777,-41.625977,22.369385,29.826172
28600,2.044648,-9.797073,2.202666,10.620117,47.393799,6.927490,29.832031
28640,3.476381,-6.464345,2.533065,-24.169922,99.456787,16.845703,29.820312
28680,3.462016,-4.932055,1.388637,11.352539,39.062500,11.413574,29.820312
28720,3.361459,-5.391742,0.536301,52.917480,-31.860352,-0.762939,29.814453
28760,3.763685,-6.502652,1.446098,2.410889,-19.012451,-0.579834,29.816406
28800,3.414132,-7.584831,3.150769,-67.840576,60.241699,0.030518,29.824219
28840,4.639963,-8.556877,4.074931,-84.167480,74.218750,-23.986816,29.843750
28880,5.942409,-10.563218,4.812346,-44.342041,53.894043,-18.615723,29.808594
28920,6.421249,-11.980585,6.694188,91.522217,32.165527,-6.561279,29.835938
28960,3.169923,-12.861651,0.043096,121.459961,-167.144775,19.012451,29.824219
29000,1.881842,-11.042058,-1.063026,104.736328,-98.480225,-5.828857,29.818359
29040,3.485958,-9.744401,0.373495,53.253174,-40.161133,3.692627,29.832031
29080,3.859453,-9.916783,-0.258574,-14.495850,-25.848389,9.765625,29.832031
29120,3.337517,-9.198523,-0.378284,-62.164307,-1.098633,12.756348,29.837891
29160,3.122039,-7.173028,1.297657,-130.828857,51.269531,12.115479,29.826172
29200,3.165135,-5.525817,1.532289,-133.087158,81.420898,6.561279,29.832031
29240,3.323152,-5.645528,1.465251,-143.493652,115.356445,-0.213623,29.830078
29280,3.596091,-7.048530,1.795651,-96.923828,120.056152,1.281738,29.814453
29320,4.041412,-8.259995,1.460463,-66.741943,47.119141,0.488281,29.833984
29360,4.529830,-8.355764,1.608904,-15.258789,-15.563965,-10.253906,29.843750
29400,5.372589,-9.404425,1.656788,18.035889,-20.965576,-8.026123,29.849609
29440,6.057330,-10.726024,1.537078,51.300049,-17.974854,-5.432129,29.818359
29480,6.411672,-12.042834,1.149217,71.105957,-30.212402,-10.162354,29.833984
29520,5.501875,-11.314998,-0.612916,86.639404,-72.631836,-0.915527,29.843750
29560,3.351882,-8.580819,-1.651999,112.915039,-115.478516,-5.767822,29.830078
29600,2.145205,-10.137050,-0.258574,68.878174,-106.475830,20.446777,29.853516
29640,0.239420,-11.597513,1.881842,6.011963,-13.916016,26.702881,29.855469
29680,0.972046,-8.868123,2.667141,14.282227,72.113037,3.662109,29.835938
29720,2.925714,-5.722142,2.533065,-25.390625,86.273193,12.390137,29.839844
29760,3.466804,-4.778827,1.259350,35.583496,14.648438,5.798340,29.845703
29800,3.792415,-5.856217,0.919373,32.287598,-25.787354,-6.958008,29.847656
29840,4.185065,-6.967127,1.465251,-13.946533,-11.016846,-5.950928,29.845703
29880,3.615245,-7.685388,3.284845,-63.629150,67.413330,-9.979248,29.843750
29920,4.941632,-8.628703,4.381389,-69.580078,81.451416,-37.200928,29.845703
29960,6.502652,-10.146626,5.305551,-38.574219,57.769775,-17.883301,29.845703
30000,5.942409,-10.266336,6.004658,70.068359,-4.119873,-24.200439,29.853516
30040,4.352659,-11.425131,0.344765,79.589844,-121.612549,-10.009766,29.843750
30080,1.623269,-11.128249,-1.077391,76.232910,-102.569580,13.366699,29.910156
30120,1.474828,-10.951078,0.699107,54.321289,28.930664,-3.753662,29.910156
30160,4.678270,-10.678140,-0.220267,30.334473,22.827148,-33.752441,29.923828
30200,6.253655,-9.097966,-0.541090,-53.375244,-20.568848,7.751465,29.904297
30240,3.859453,-7.369353,-0.330400,-80.352783,-42.694092,13.458252,29.908203
30280,2.039860,-5.956774,1.628057,-111.541748,40.039062,13.793945,29.910156
30320,1.556231,-5.947197,2.590526,-119.354248,120.086670,10.559082,29.917969
30360,3.093309,-6.622362,2.092532,-107.116699,104.705811,-6.500244,29.921875
30400,4.922479,-7.153875,1.139640,-78.521729,35.125732,-20.477295,29.927734
30440,5.549759,-7.292738,1.589750,-35.461426,-43.548584,-16.845703,29.937500
30480,5.645528,-9.074024,1.810017,-7.324219,-22.186279,-13.000488,29.941406
30520,5.851429,-10.376471,1.819593,46.325684,-9.765625,0.427246,29.931641
30560,6.488286,-10.898406,1.096544,70.617676,-13.519287,-8.514404,29.945312
30600,6.560112,-10.558430,-0.493206,95.550537,-23.406982,0.793457,29.921875
30640,4.529830,-9.069236,-1.881842,112.121582,-78.521729,-2.014160,29.923828
30680,3.308787,-10.907983,-1.144428,79.559326,-112.792969,28.564453,29.927734
30720,1.565808,-12.531252,1.393425,7.720947,-28.808594,24.139404,29.929688
30760,2.202666,-8.997410,3.332729,0.183105,83.160400,4.302979,29.941406
30800,3.126827,-6.004658,2.504335,-24.078369,77.453613,12.969971,29.941406
30840,2.964022,-5.018247,1.225831,31.555176,11.322021,6.286621,29.925781
30880,3.284845,-5.492299,0.857124,61.767578,-47.515869,-5.401611,29.943359
30920,4.046201,-6.478710,1.450886,-6.561279,-15.502930,-3.967285,29.941406
30960,4.616021,-7.230489,2.906561,-67.169189,48.706055,-13.092041,29.937500
31000,5.679047,-8.178593,3.327940,-87.493896,80.139160,-25.634766,29.941406
31040,5.942409,-10.563218,5.300763,-83.953857,151.336670,-9.094238,29.937500
31080,5.219360,-12.785037,5.396531,57.800293,7.812500,0.640869,29.939453
31120,3.275268,-12.928689,-1.374272,114.318848,-162.719727,6.958008,29.941406
31160,3.241749,-10.228029,-1.048660,128.295898,-106.445312,4.699707,29.955078
31200,4.242526,-8.609550,0.258574,77.453613,-51.483154,0.793457,29.943359
31240,4.486734,-9.476251,-0.009577,0.823975,-9.948730,5.157471,29.947266
31280,4.280833,-9.131485,-0.162806,-51.818848,5.981445,7.751465,29.957031
31320,3.859453,-7.149086,0.785298,-106.140137,39.581299,4.608154,29.943359
31360,3.289633,-5.635951,1.666364,-147.064209,81.787109,1.953125,29.935547
31400,3.083732,-6.009446,1.833959,-159.912109,111.114502,-0.732422,29.953125
31440,3.840300,-6.785168,2.207454,-117.248535,112.091064,-8.331299,29.943359
31480,4.309563,-7.302315,2.030283,-69.580078,14.251709,-12.542725,29.951172
31520,4.529830,-8.279149,1.082179,-10.925293,-42.449951,-23.529053,29.955078
31560,5.497087,-9.361329,1.015141,32.867432,-20.782471,-4.486084,29.931641
31600,6.459556,-10.285490,1.508347,73.028564,-8.270264,-3.143311,29.962891
31640,7.891289,-11.865664,0.852336,67.260742,-12.359619,-9.552002,29.970703
31680,6.684611,-10.879252,-0.584185,59.814453,-49.621582,4.913330,29.994141
31720,3.950433,-8.494628,-1.101333,67.413330,-70.190430,-8.697510,29.949219
31760,2.920926,-10.184934,-0.608127,51.147461,-66.070557,15.625000,29.992188
31800,1.273715,-11.085154,0.565032,-9.521484,-15.441895,33.142090,29.972656
31840,1.431733,-8.164227,2.351106,12.817383,69.061279,12.969971,29.980469
31880,2.738967,-5.535394,2.671929,-25.817871,76.568604,15.319824,29.960938
31920,2.858677,-5.243302,1.546654,25.604248,28.686523,16.723633,29.970703
31960,3.208230,-6.478710,0.986411,70.434570,-63.568115,-0.793457,29.978516
32000,4.410120,-7.809886,1.805228,11.566162,-43.060303,3.387451,29.970703
32040,4.850653,-7.781156,3.390190,-55.328369,46.478271,-4.516602,29.960938
32080,5.880159,-8.485051,4.213795,-77.239990,89.691162,-25.207520,30.037109
32120,5.985504,-10.414778,5.109226,-22.460938,99.639893,-14.373779,30.019531
32160,5.291186,-11.324574,5.267244,63.171387,-21.240234,-0.244141,30.019531
32200,2.954445,-11.765107,-1.216254,107.849121,-172.851562,10.955811,30.023438
32240,2.341529,-10.845734,-0.833182,107.177734,-73.181152,-4.241943,30.025391
32280,4.299986,-10.319010,0.110133,77.911377,-26.489258,-9.704590,30.023438
32320,5.233725,-10.218452,-0.502782,1.922607,-16.052246,7.812500,30.015625
32360,4.501099,-8.485051,-0.493206,-53.344727,-17.211914,9.063721,30.035156
32400,3.519476,-6.387730,1.067814,-103.912354,34.027100,5.798340,30.029297
32440,2.987964,-5.291186,1.723825,-140.655518,92.864990,2.716064,30.039062
32480,3.117251,-5.971139,1.618480,-140.747070,122.467041,-0.183105,30.039062
32520,3.682282,-7.182605,2.140416,-117.095947,114.318848,-1.251221,30.044922
32560,4.352659,-7.742848,1.685518,-83.496094,17.822266,-11.779785,30.048828
32600,4.989516,-8.322245,1.230620,-23.376465,-21.881104,-19.134521,30.029297
32640,6.129156,-9.615114,1.120486,26.519775,-17.150879,-3.784180,30.025391
32680,6.871359,-10.443508,1.838747,59.387207,-18.524170,-11.779785,30.046875
32720,7.105990,-11.219229,1.086968,78.552246,-20.782471,-14.465332,30.033203
32760,5.837064,-9.892841,-0.837971,88.226318,-50.994873,-2.319336,30.042969
32800,3.883395,-8.604761,-1.508347,103.454590,-82.489014,-1.373291,30.039062
32840,2.667141,-10.860099,-0.402226,51.147461,-89.843750,35.491943,30.029297
32880,0.718261,-11.587936,1.556231,-13.427734,-24.108887,15.533447,30.037109
32920,1.786075,-8.216900,2.997540,6.805420,102.691650,6.805420,30.035156
32960,3.112462,-5.281609,2.308010,-41.107178,89.233398,12.298584,30.035156
33000,2.892196,-4.821922,1.158794,23.925781,36.163330,17.395020,30.044922
33040,3.002329,-6.210559,0.852336,49.682617,-47.668457,-0.244141,30.044922
33080,3.988740,-7.795521,2.226608,-12.695312,-12.603760,4.760742,30.056641
33120,4.405331,-8.034941,3.581726,-63.720703,52.276611,-3.936768,30.062500
33160,5.544971,-8.652645,3.533842,-62.225342,50.384521,-26.092529,30.042969
33200,6.818686,-10.122684,5.410896,-0.427246,63.934326,-19.256592,30.054688
33240,6.708553,-10.352529,6.081272,64.514160,-16.174316,-18.188477,30.060547
33280,4.103662,-11.535264,-0.454898,68.634033,-137.939453,3.021240,30.056641
33320,1.426944,-10.735600,-1.288081,79.437256,-100.036621,4.791260,30.054688
33360,2.231396,-10.405201,0.857124,51.055908,3.387451,-9.094238,30.054688
33400,4.797980,-10.682928,0.148441,6.988525,57.800293,-14.373779,30.064453
33440,5.607220,-9.179369,-0.928950,-57.434082,6.042480,4.058838,30.046875
33480,4.089296,-7.173028,-0.263362,-90.942383,-22.247314,7.873535,30.066406
33520,2.657564,-5.841852,1.503559,-110.717773,47.332764,4.882812,30.087891
33560,2.159570,-5.899313,2.288857,-115.539551,126.251221,7.202148,30.070312
33600,2.633622,-6.837840,2.020706,-72.418213,107.147217,3.479004,30.064453
33640,4.113238,-7.785944,1.216254,-47.241211,3.845215,-14.678955,30.085938
33680,5.468357,-8.135497,1.331176,-7.385254,-52.429199,-7.629395,30.060547
33720,5.755661,-9.265560,1.853112,16.815186,-31.127930,-8.453369,30.062500
33760,5.798757,-9.916783,1.982399,44.952393,-27.069092,1.373291,30.085938
33800,6.540959,-10.582372,1.771709,49.896240,-9.185791,-10.437012,30.068359
33840,6.785168,-10.486604,0.258574,65.063477,-12.939453,-7.812500,30.078125
33880,4.989516,-8.786720,-1.249773,78.369141,-55.084229,1.708984,30.078125
33920,3.141193,-9.864111,-1.235408,72.235107,-90.728760,18.371582,30.083984
33960,1.513135,-12.526464,0.014365,17.639160,-98.327637,37.170410,30.087891
34000,1.355118,-10.012551,3.241749,24.230957,67.321777,22.369385,30.078125
34040,2.849100,-5.904101,3.849876,-33.081055,106.811523,8.972168,30.136719
34080,3.433285,-4.592079,1.771709,20.599365,36.987305,16.052246,30.111328
34120,3.318364,-5.564125,0.354342,69.396973,-54.016113,-1.098633,30.136719
34160,3.912126,-7.129933,1.532289,-0.762939,-27.648926,-0.030518,30.130859
34200,4.060566,-7.603985,2.480393,-47.851562,22.064209,-8.972168,30.154297
34240,5.209783,-7.943961,3.035848,-86.273193,44.067383,-25.665283,30.142578
34280,5.784391,-9.648633,4.333505,-91.369629,77.239990,-17.120361,30.136719
34320,5.856217,-10.601525,6.823475,53.375244,83.587646,-19.134521,30.134766
34360,4.726154,-11.530476,1.896208,86.242676,-129.913330,1.434326,30.150391
34400,1.733402,-11.334151,-1.029507,85.113525,-122.528076,9.338379,30.144531
34440,1.671153,-9.888053,0.560243,72.052002,-30.883789,-7.568359,30.142578
34480,4.175488,-10.467450,0.239420,26.794434,-3.051758,-10.345459,30.126953
34520,5.166687,-10.505757,-0.617704,-30.487061,5.249023,7.171631,30.146484
34560,4.448427,-8.470686,0.162806,-80.841064,-4.638672,5.950928,30.156250
34600,3.500323,-6.402095,1.939303,-122.894287,80.383301,5.310059,30.167969
34640,3.265691,-5.568913,1.546654,-119.323730,115.631104,3.723145,30.167969
34680,3.294421,-6.402095,1.230620,-98.907471,117.279053,9.185791,30.164062
34720,3.112462,-7.546524,1.651999,-57.373047,37.231445,-0.213623,30.138672
34760,4.041412,-8.020576,1.872266,-20.172119,-34.362793,-10.009766,30.144531
34800,5.085284,-8.274361,1.297657,18.463135,-21.850586,-2.471924,30.132812
34840,5.540183,-9.179369,1.398214,39.123535,-13.641357,3.753662,30.175781
34880,5.884948,-10.323798,1.900996,37.811279,-26.000977,-9.490967,30.156250
34920,6.976704,-11.722012,1.326388,43.640137,-12.115479,-12.542725,30.152344
34960,5.880159,-10.615891,-0.646434,53.100586,-43.518066,-3.112793,30.169922
35000,3.552995,-8.925584,-1.671153,74.615479,-99.487305,1.525879,30.193359
35040,1.905785,-10.706870,-0.215478,22.125244,-114.837646,29.907227,30.185547
35080,0.588974,-11.310209,2.940080,8.026123,32.379150,19.378662,30.154297
35120,1.436521,-7.785944,3.126827,11.322021,83.923340,12.664795,30.164062
35160,2.509123,-5.176264,1.675941,20.782471,33.111572,17.700195,30.167969
35200,2.901772,-5.286397,1.072602,62.316895,-21.209717,8.514404,30.169922
35240,3.806781,-6.952762,1.321599,54.351807,-60.424805,-2.807617,30.162109
35280,4.458004,-7.805098,1.738190,-9.185791,-31.951904,0.701904,30.169922
35320,4.189853,-7.785944,3.591303,-73.913574,68.115234,-7.568359,30.177734
35360,5.267244,-9.035717,3.845088,-91.156006,70.190430,-24.719238,30.164062
35400,6.148310,-10.706870,5.966351,7.659912,89.294434,-22.247314,30.156250
35440,5.817910,-10.716447,6.004658,74.249268,-69.793701,-0.488281,30.185547
35480,2.940080,-11.324574,-0.306458,103.363037,-155.181885,-4.150391,30.175781
35520,0.938527,-10.338163,-0.067038,76.202393,-50.598145,10.101318,30.191406
35560,2.183512,-9.892841,0.526724,29.174805,-5.310059,-4.760742,30.158203
35600,4.544195,-10.692505,-0.421380,-6.896973,-1.892090,-6.439209,30.166016
35640,5.315128,-9.715671,-0.435745,-57.708740,-4.913330,6.225586,30.175781
35680,3.983952,-7.469909,1.211466,-111.206055,25.299072,6.286621,30.187500
35720,2.633622,-6.004658,2.082955,-127.136230,89.080811,9.826660,30.181641
35760,2.394202,-6.105214,1.307234,-97.106934,95.489502,5.493164,30.177734
35800,3.102885,-7.196970,1.225831,-58.258057,47.973633,0.671387,30.185547
35840,4.467580,-7.704541,1.924938,-25.482178,-17.425537,-6.164551,30.179688
35880,4.989516,-7.771579,1.551443,15.777588,-45.867920,-4.364014,30.193359
35920,4.989516,-8.643068,1.254562,30.059814,-37.750244,-7.781982,30.193359
35960,5.286397,-9.730036,1.891419,26.855469,-28.808594,-3.753662,30.185547
36000,6.057330,-10.898406,1.896208,24.383545,-21.240234,-15.441895,30.185547
36040,6.890512,-11.798626,0.517148,49.346924,-21.423340,-4.913330,30.232422
36080,5.238513,-9.854534,-1.091756,67.535400,-66.864014,5.798340,30.238281
36120,3.150769,-8.681376,-1.063026,83.435059,-92.010498,12.390137,30.261719
36160,1.637634,-10.730812,0.574608,22.430420,-62.927246,38.146973,30.257812
36200,1.192312,-9.955091,2.375048,15.411377,45.867920,8.972168,30.279297
36240,2.365471,-7.115568,2.552219,-21.606445,62.469482,13.031006,30.234375
36280,2.729390,-5.473145,1.446098,25.634766,13.854980,18.463135,30.265625
36320,2.820370,-5.913678,1.335965,71.014404,-55.694580,10.131836,30.228516
36360,3.538630,-7.240066,1.637634,15.930176,-32.165527,-1.464844,30.246094
36400,4.644751,-7.651869,1.690306,-37.567139,21.759033,0.518799,30.257812
36440,5.123591,-7.963115,3.610456,-76.049805,90.911865,-18.707275,30.253906
36480,6.497863,-9.437943,4.285621,-53.161621,56.976318,-24.902344,30.257812
36520,6.430826,-10.577583,6.612785,56.854248,53.649902,-5.035400,30.248047
36560,4.137180,-11.463438,2.810793,78.826904,-102.722168,10.223389,30.257812
36600,1.388637,-11.243171,-1.891419,114.624023,-116.821289,5.950928,30.275391
36640,1.924938,-10.065224,0.268151,30.761719,-5.981445,-4.486084,30.283203
36680,4.271256,-10.160992,0.354342,13.702393,-9.155273,-12.176514,30.267578
36720,4.817134,-10.405201,-0.550666,-47.729492,-1.647949,5.340576,30.261719
36760,3.476381,-8.911219,0.823605,-106.567383,26.519775,6.378174,30.257812
36800,2.580950,-6.770802,2.006341,-118.225098,87.158203,13.153076,30.267578
36840,2.662352,-5.607220,1.613692,-117.218018,105.224609,12.847900,30.259766
36880,3.356671,-5.995081,1.235408,-69.152832,74.096680,-1.068115,30.267578
36920,4.218584,-7.192182,1.177947,-35.522461,9.033203,-3.814697,30.271484
36960,4.960786,-7.953538,1.173159,-1.708984,-36.224365,-5.462646,30.275391
37000,5.415684,-8.489840,1.158794,26.977539,-33.233643,-7.690430,30.271484
37040,5.798757,-9.404425,1.422156,21.759033,-4.974365,-4.638672,30.255859
37080,5.760449,-10.405201,2.078167,-3.692627,0.518799,-16.143799,30.261719
37120,6.224925,-11.808203,1.063026,20.507812,7.873535,-11.016846,30.275391
37160,5.027823,-10.338163,-1.206678,49.407959,-35.491943,-3.021240,30.294922
37200,3.270479,-8.935161,-1.513135,68.969727,-71.990967,1.220703,30.263672
37240,1.642422,-11.243171,0.402226,11.993408,-66.619873,41.015625,30.285156
37280,0.282516,-11.204864,2.489970,16.998291,45.135498,13.031006,30.281250
37320,1.561020,-8.010999,2.331953,-0.091553,51.696777,11.901855,30.281250
37360,2.595315,-5.626374,1.355118,34.057617,15.136719,18.096924,30.275391
37400,2.829947,-5.453991,1.029507,90.911865,-61.737061,6.744385,30.285156
37440,3.313575,-6.861782,1.206678,38.024902,-49.743652,-3.875732,30.271484
37480,3.969586,-7.388506,1.307234,-26.092529,-5.157471,-1.312256,30.273438
37520,4.209007,-7.718906,3.236961,-76.751709,83.801270,-15.106201,30.273438
37560,5.760449,-9.485827,4.185065,-66.741943,75.622559,-30.334473,30.269531
37600,7.283162,-10.414778,7.010222,34.790039,78.430176,-15.930176,30.292969
37640,5.032612,-11.262324,4.505888,62.316895,-86.425781,13.153076,30.289062
37680,1.417367,-11.765107,-1.637634,92.010498,-144.592285,6.713867,30.271484
37720,1.632846,-10.204087,-0.067038,80.932617,-42.388916,-2.624512,30.298828
37760,3.912126,-9.897630,0.684742,17.181396,26.641846,-14.526367,30.289062
37800,5.051765,-10.390836,-0.756568,-22.186279,-0.732422,-5.218506,30.294922
37840,4.443638,-9.097966,-0.450110,-80.139160,-14.282227,2.593994,30.285156
37880,3.275268,-7.235278,1.757344,-129.089355,59.417725,3.845215,30.312500
37920,2.571373,-5.932832,2.279280,-146.972656,126.831055,9.887695,30.298828
37960,2.667141,-5.937620,1.201889,-99.060059,127.960205,6.591797,30.304688
38000,3.404555,-6.933608,0.919373,-54.382324,55.603027,-1.556396,30.369141
38040,4.429273,-7.704541,0.967257,-17.120361,-27.069092,-5.493164,30.357422
38080,4.869806,-8.125920,1.187524,16.571045,-43.975830,-3.448486,30.337891
38120,5.348647,-9.299079,1.393425,25.177002,-29.693604,-2.929688,30.353516
38160,5.928043,-10.218452,2.130840,14.556885,-20.996094,-10.162354,30.345703
38200,7.086837,-11.573571,1.589750,22.277832,-3.417969,-19.866943,30.363281
38240,6.550536,-11.238382,-0.430956,44.677734,-27.435303,-4.302979,30.363281
38280,4.007894,-8.949526,-1.723825,79.132080,-75.164795,-2.960205,30.376953
38320,2.284068,-10.132261,-0.478840,46.356201,-75.469971,7.568359,30.357422
38360,0.775721,-11.741165,2.035071,10.223389,31.616211,18.829346,30.351562
38400,1.532289,-8.786720,2.964022,0.305176,78.674316,3.417969,30.371094
38440,2.585738,-5.975927,1.637634,5.065918,63.079834,22.186279,30.382812
38480,2.652776,-4.879383,0.598550,77.850342,-47.393799,6.530762,30.378906
38520,2.916138,-6.287174,1.154005,51.055908,-44.616699,-1.617432,30.361328
38560,3.605668,-7.345411,1.527501,5.065918,-12.725830,-5.249023,30.363281
38600,4.189853,-7.575254,2.130840,-47.485352,24.932861,-2.258301,30.373047
38640,5.559336,-8.039729,3.557784,-82.183838,51.635742,-21.728516,30.382812
38680,7.556100,-9.720459,4.486734,-56.152344,44.677734,-15.014648,30.388672
38720,6.081272,-10.754754,6.756437,60.913086,70.648193,-1.556396,30.378906
38760,3.725378,-11.745954,1.388637,56.121826,-86.303711,-18.463135,30.375000
38800,2.078167,-11.731588,-2.006341,80.108643,-119.018555,15.625000,30.380859
38840,1.819593,-10.414778,1.173159,18.798828,-2.716064,3.845215,30.396484
38880,4.084508,-9.969456,0.316035,11.840820,25.024414,-20.904541,30.378906
38920,5.444415,-9.557653,-1.302446,-28.656006,-13.183594,4.058838,30.357422
38960,4.161122,-8.336611,-0.742203,-62.805176,-34.210205,13.916016,30.386719
39000,2.475605,-6.866570,2.030283,-121.124268,58.410645,12.268066,30.388672
39040,2.059013,-6.038177,1.872266,-103.668213,103.424072,14.282227,30.376953
39080,2.590526,-6.363788,1.206678,-63.598633,93.475342,5.432129,30.388672
39120,3.758897,-7.264008,1.173159,-33.660889,19.531250,-3.356934,30.392578
39160,5.042189,-7.790732,1.221043,-13.336182,-35.034180,-0.488281,30.398438
39200,5.693412,-8.489840,1.575385,16.235352,-26.062012,-5.981445,30.396484
39240,5.578490,-9.639056,1.991976,9.704590,-17.822266,-7.049561,30.396484
39280,5.444415,-10.831368,1.920150,17.913818,-13.549805,-10.253906,30.408203
39320,6.234501,-11.951855,0.833182,47.943115,-9.826660,-8.789062,30.371094
39360,5.597643,-10.319010,-0.991199,70.861816,-57.647705,2.349854,30.388672
39400,3.471592,-8.671799,-1.264138,85.327148,-90.667725,-0.183105,30.390625
39440,1.766921,-10.869676,-0.287304,46.051025,-103.912354,24.261475,30.402344
39480,0.632069,-10.936713,1.810017,19.836426,1.495361,8.575439,30.402344
39520,1.991976,-7.498640,3.342306,-14.648438,83.435059,12.329102,30.376953
39560,3.227384,-5.219360,2.221819,9.765625,66.955566,11.993408,30.416016
39600,3.303998,-5.377377,0.507571,64.971924,-21.911621,2.960205,30.398438
39640,3.720589,-6.756437,0.905008,20.141602,-32.104492,-6.469727,30.386719
39680,3.854665,-7.647080,1.532289,-30.120850,4.455566,-1.678467,30.398438
39720,3.519476,-7.929596,3.213019,-78.430176,72.174072,-7.019043,30.410156
39760,5.506664,-8.777143,4.079720,-76.507568,64.514160,-42.358398,30.402344
39800,7.220912,-10.184934,5.602432,-30.029297,61.431885,-8.758545,30.410156
39840,5.837064,-10.625467,5.458780,88.287354,-24.383545,-16.632080,30.412109
39880,3.136404,-11.473015,-0.938527,79.162598,-146.972656,17.364502,30.412109
39920,0.612916,-10.596737,-1.096544,82.916260,-74.401855,5.676270,30.402344
39960,2.020706,-10.558430,0.928950,29.052734,22.552490,-9.033203,30.431641
40000,4.716578,-11.123461,-0.129287,-1.770020,28.350830,-13.244629,30.457031
40040,5.401319,-9.662998,-0.833182,-66.802979,-11.718750,6.225586,30.468750
40080,4.189853,-7.508216,0.397437,-96.893311,7.751465,4.760742,30.466797
40120,3.055001,-5.913678,1.771709,-114.227295,80.474854,2.014160,30.468750
40160,2.604892,-5.521029,1.493982,-106.262207,107.360840,4.364014,30.458984
40200,2.595315,-6.670246,1.206678,-75.164795,68.115234,3.753662,30.464844
40240,3.586514,-7.613562,1.417367,-42.877197,-33.477783,-13.244629,30.474609
40280,4.572925,-8.183381,1.426944,-4.730225,-47.515869,-7.873535,30.476562
40320,5.075707,-9.567230,1.561020,17.730713,-25.695801,-0.549316,30.476562
40360,6.090849,-10.625467,1.795651,46.600342,-25.390625,-2.349854,30.443359
40400,7.311892,-12.138602,0.972046,54.107666,-12.847900,-11.077881,30.486328
40440,6.339846,-11.415554,-0.785298,60.913086,-41.992188,9.765625,30.455078
40480,3.471592,-8.130709,-1.470040,80.963135,-75.103760,-1.373291,30.488281
40520,2.528277,-9.825804,-0.359130,51.910400,-63.079834,10.467529,30.464844
40560,1.647211,-11.894394,1.273715,9.552002,30.792236,9.185791,30.490234
40600,2.308010,-8.973468,1.996764,-1.678467,54.656982,4.852295,30.474609
40640,3.059790,-5.908890,1.776498,13.580322,33.630371,12.359619,30.484375
40680,2.791639,-4.788404,1.101333,72.113037,-23.376465,10.040283,30.490234
40720,2.537854,-5.750873,0.751779,67.169189,-71.044922,0.549316,30.484375
40760,3.198653,-7.283162,1.173159,-6.317139,-20.050049,-1.647949,30.474609
40800,4.501099,-8.087613,2.820370,-70.861816,69.976807,-5.035400,30.498047
40840,6.617573,-8.781932,4.486734,-90.148926,105.865479,-27.435303,30.498047
40880,8.202535,-9.921572,6.105214,-2.746582,97.503662,-15.838623,30.490234
40920,5.942409,-10.941502,4.098873,75.469971,-51.391602,0.671387,30.492188
40960,2.331953,-11.971008,-1.254562,84.808350,-119.171143,4.272461,30.490234
41000,2.207454,-10.462662,0.234632,54.382324,-24.291992,-10.009766,30.488281
41040,4.357447,-10.041282,0.526724,25.329590,31.677246,-17.852783,30.505859
41080,5.808333,-9.959879,-0.775721,-7.293701,41.992188,-10.681152,30.490234
41120,5.511452,-7.958326,-0.565032,-59.448242,6.103516,-1.678467,30.500000
41160,4.003105,-6.210559,0.512359,-93.597412,24.414062,4.425049,30.503906
41200,2.327164,-5.319916,0.976834,-113.891602,71.960449,3.784180,30.494141
41240,2.197877,-6.110003,1.259350,-110.015869,93.200684,0.701904,30.498047
41280,2.743755,-7.675811,1.369483,-83.770752,85.388184,5.798340,30.509766
41320,4.161122,-8.068460,2.054225,-79.528809,4.577637,-11.566162,30.500000
41360,5.401319,-8.504205,1.781286,-44.860840,-35.186768,-17.852783,30.503906
41400,6.119579,-9.375694,1.273715,15.808105,-6.652832,-0.366211,30.500000
41440,6.588843,-10.275913,1.312023,62.225342,-21.240234,-7.568359,30.513672
41480,7.331046,-11.559206,0.531513,82.946777,-27.832031,-9.002686,30.513672
41520,6.023811,-10.357317,-0.905008,72.937012,-70.129395,5.126953,30.509766
41560,3.548207,-8.863335,-1.197101,81.146240,-97.961426,5.340576,30.492188
41600,1.695095,-10.630256,0.421380,12.725830,-60.028076,41.046143,30.513672
41640,0.454898,-10.836157,2.566584,-16.967773,66.833496,7.537842,30.513672
41680,2.006341,-8.121132,2.652776,-23.773193,101.287842,12.207031,30.523438
41720,2.729390,-5.985504,1.599327,-1.861572,52.429199,18.157959,30.505859
41760,2.906561,-5.602432,1.546654,62.500000,-42.022705,8.117676,30.539062
41800,3.213019,-6.584054,1.618480,31.890869,-61.614990,-0.244141,30.519531
41840,3.624821,-7.359776,1.388637,-11.932373,-17.578125,-1.495361,30.517578
41880,4.113238,-7.742848,3.232172,-64.270020,78.063965,-10.650635,30.517578
41920,5.592855,-9.356541,4.170700,-78.155518,86.029053,-21.087646,30.517578
41960,5.372589,-11.080365,5.458780,3.417969,88.409424,-13.610840,30.566406
42000,4.702212,-11.468226,5.118803,58.135986,-40.039062,-9.521484,30.570312
42040,2.782062,-11.477803,-1.292869,97.045898,-191.162109,8.270264,30.595703
42080,1.000776,-10.654198,-0.957681,83.038330,-98.785400,5.889893,30.576172
42120,2.547431,-10.754754,0.454898,78.460693,-40.405273,-16.235352,30.580078
42160,4.529830,-10.678140,-0.383072,7.080078,9.338379,11.657715,30.599609
42200,4.544195,-8.930372,-0.876278,-40.771484,-19.012451,13.214111,30.580078
42240,3.926491,-6.579266,0.866701,-83.160400,14.068604,5.187988,30.580078
42280,3.404555,-5.444415,1.470040,-111.816406,70.068359,2.441406,30.572266
42320,3.169923,-6.177041,1.096544,-109.497070,90.545654,3.814697,30.609375
42360,3.002329,-7.527370,1.479617,-87.005615,75.775146,4.974365,30.582031
42400,3.591303,-7.852982,1.867477,-63.018799,-12.237549,-9.399414,30.595703
42440,4.788404,-8.135497,1.522712,-16.632080,-25.390625,-13.763428,30.566406
42480,5.698200,-9.409213,1.326388,7.110596,-28.472900,-4.028320,30.570312
42520,6.363788,-10.635044,2.087744,41.473389,-35.827637,-12.786865,30.601562
42560,6.890512,-12.033257,1.259350,66.375732,-19.134521,-12.664795,30.599609
42600,5.650316,-11.109096,-1.264138,85.479736,-62.072754,-0.640869,30.595703
42640,3.256114,-9.208099,-1.881842,103.759766,-104.553223,8.483887,30.605469
42680,1.316811,-10.730812,-0.368707,38.299561,-106.628418,38.940430,30.611328
42720,0.153229,-11.032481,1.905785,29.052734,18.829346,7.293701,30.597656
42760,2.006341,-7.905654,2.566584,1.129150,72.174072,9.979248,30.599609
42800,2.973598,-5.602432,1.575385,8.178711,46.630859,24.597168,30.601562
42840,3.031059,-5.147533,1.000776,64.971924,-26.489258,9.246826,30.595703
42880,3.428497,-6.627151,1.091756,42.358398,-59.234619,3.723145,30.605469
42920,3.825934,-7.642292,1.556231,-4.943848,-22.705078,3.265381,30.605469
42960,3.873818,-7.752425,2.849100,-66.101074,57.556152,-0.793457,30.617188
43000,5.104438,-8.901642,4.252102,-71.350098,84.899902,-26.062012,30.603516
43040,6.722919,-10.295067,5.497087,17.211914,48.889160,-23.040771,30.601562
43080,6.426037,-10.524911,6.766014,73.822021,-35.644531,-9.490967,30.591797
43120,3.466804,-12.148179,0.383072,72.326660,-152.221680,6.774902,30.611328
43160,0.837971,-11.295844,-1.470040,103.057861,-109.741211,5.249023,30.625000
43200,2.178724,-9.993398,1.005565,42.968750,35.034180,-9.918213,30.621094
43240,4.367024,-10.366894,-0.047884,-8.209229,21.820068,-4.791260,30.634766
43280,4.443638,-9.653421,-1.134852,-50.506592,-28.900146,5.035400,30.638672
43320,3.375824,-7.881712,0.100556,-90.515137,-8.972168,7.293701,30.625000
43360,2.523489,-6.282385,1.953669,-118.774414,71.044922,5.187988,30.613281
43400,2.489970,-5.889736,1.728614,-117.980957,101.196289,2.319336,30.626953
43440,3.002329,-6.842628,1.331176,-82.519531,83.496094,0.671387,30.626953
43480,4.127604,-7.876924,1.484405,-49.621582,18.035889,-7.171631,30.628906
43520,4.936844,-7.987057,1.532289,-6.530762,-35.858154,-4.577637,30.628906
43560,5.281609,-8.738836,1.335965,14.709473,-26.275635,-4.791260,30.621094
43600,5.741296,-10.070012,2.078167,18.310547,-7.293701,0.518799,30.617188
43640,6.148310,-10.836157,2.308010,19.104004,1.800537,-6.469727,30.609375
43680,7.091625,-11.238382,0.948104,40.252686,-7.598877,-12.664795,30.642578
43720,5.616797,-9.346964,-1.450886,85.205078,-63.781738,-1.464844,30.638672
43760,2.844312,-8.394072,-2.322376,116.394043,-115.875244,16.113281,30.632812
43800,0.924162,-10.907983,-0.196325,49.591064,-105.163574,16.265869,30.621094
43840,1.302446,-11.128249,2.264915,21.972656,17.181396,-2.716064,30.625000
43880,3.174711,-7.819463,2.686294,-16.143799,79.925537,1.159668,30.646484
43920,3.509900,-5.511452,1.561020,0.396729,53.253174,12.847900,30.640625
43960,3.380613,-5.276821,0.885855,49.713135,-4.089355,2.777100,30.683594
44000,4.089296,-6.531382,0.943315,33.325195,-27.160645,-2.319336,30.722656
44040,4.448427,-7.374141,1.259350,-26.031494,12.207031,1.464844,30.687500
44080,4.726154,-7.795521,3.026271,-68.939209,88.012695,-11.047363,30.687500
44120,6.081272,-9.097966,4.003105,-66.375732,96.496582,-22.064209,30.685547
44160,6.095637,-10.577583,5.995081,7.598877,113.006592,-14.434814,30.691406
44200,5.430049,-10.505757,5.884948,40.557861,-66.131592,-0.610352,30.701172
44240,3.007117,-11.022904,-0.957681,106.994629,-172.210693,7.659912,30.691406
44280,0.905008,-10.582372,-1.335965,90.789795,-36.254883,1.007080,30.693359
44320,2.987964,-10.151415,0.105345,53.649902,-11.352539,-20.874023,30.703125
44360,5.066131,-10.223241,-0.344765,-23.162842,-27.862549,5.432129,30.703125
44400,4.429273,-9.294291,-0.344765,-73.455811,-13.305664,9.490967,30.712891
44440,3.591303,-7.268796,1.805228,-126.464844,69.732666,4.821777,30.673828
44480,3.131616,-5.693412,2.054225,-135.467529,101.104736,2.685547,30.716797
44520,2.849100,-5.966351,1.915361,-132.843018,131.225586,3.601074,30.714844
44560,3.270479,-7.182605,1.905785,-95.977783,44.250488,-7.202148,30.712891
44600,4.395754,-7.618350,1.335965,-32.440186,-32.897949,-18.218994,30.722656
44640,4.970363,-7.920019,0.368707,32.440186,-43.518066,-13.519287,30.712891
44680,5.683835,-9.677363,0.885855,51.147461,-36.376953,-3.479004,30.708984
44720,6.698977,-11.113884,1.704672,45.440674,-25.634766,-12.329102,30.722656
44760,6.981492,-11.999739,0.847547,46.997070,-3.387451,-6.652832,30.701172
44800,5.051765,-10.309433,-1.259350,55.297852,-40.557861,5.371094,30.734375
44840,2.729390,-8.346188,-1.637634,65.551758,-73.547363,7.080078,30.712891
44880,1.666364,-10.620679,-0.105345,12.268066,-61.309814,39.398193,30.718750
44920,0.823605,-11.324574,2.092532,15.380859,53.344727,15.563965,30.716797
44960,2.126051,-8.121132,2.509123,2.960205,69.335938,1.464844,30.710938
45000,3.284845,-5.645528,1.589750,21.179199,10.772705,17.944336,30.738281
45040,2.839523,-4.979939,1.450886,79.559326,-59.692383,14.373779,30.703125
45080,3.055001,-6.406884,1.594538,73.181152,-96.984863,5.371094,30.712891
45120,3.725378,-7.465121,1.618480,-2.502441,-39.825439,1.647949,30.707031
45160,4.414908,-7.819463,2.791639,-68.664551,46.142578,-3.723145,30.707031
45200,5.501875,-9.232041,3.696647,-95.153809,96.130371,-8.514404,30.703125
45240,5.784391,-10.907983,6.464345,36.621094,138.977051,-14.343262,30.734375
45280,5.612009,-10.529699,6.665458,59.844971,-57.647705,1.007080,30.707031
45320,3.117251,-12.507310,-0.407014,65.490723,-186.523438,18.981934,30.730469
45360,0.957681,-11.372458,-0.828394,77.697754,-54.077148,9.307861,30.714844
45400,2.619257,-9.543288,0.287304,32.440186,7.446289,-11.444092,30.720703
45440,5.056554,-9.619903,-0.593762,-4.028320,-16.784668,-7.019043,30.716797
45480,4.831499,-9.117120,-0.627281,-56.304932,-25.329590,9.155273,30.732422
45520,3.347094,-7.493851,1.221043,-97.930908,27.221680,7.141113,30.738281
45560,2.772485,-5.999869,1.920150,-111.389160,81.359863,4.913330,30.726562
45600,3.016694,-5.956774,1.441309,-115.447998,103.912354,5.065918,30.726562
45640,3.308787,-7.220912,1.594538,-74.676514,85.510254,3.509521,30.742188
45680,3.998317,-8.054094,1.632846,-36.651611,-4.211426,-7.934570,30.707031
45720,4.850653,-7.939173,1.450886,-1.800537,-41.107178,-16.357422,30.746094
45760,5.276821,-8.954314,0.833182,33.050537,-48.187256,-10.284424,30.750000
45800,5.679047,-10.151415,1.225831,41.961670,-55.786133,-11.566162,30.740234
45840,6.440403,-11.688493,1.680730,42.846680,-20.568848,-16.601562,30.722656
45880,5.822699,-11.520899,-0.186748,54.504395,-28.198242,-0.366211,30.740234
45920,3.447650,-9.121908,-1.881842,80.657959,-86.914062,1.586914,30.775391
45960,1.723825,-10.046070,-1.000776,61.950684,-98.083496,26.824951,30.789062
46000,0.521936,-11.664551,1.580173,10.955811,2.349854,16.357422,30.798828
46040,1.786075,-8.959103,2.930503,-0.854492,73.181152,13.275146,30.791016
46080,3.078943,-5.861006,2.130840,2.655029,53.527832,11.505127,30.804688
46120,3.500323,-4.869806,1.067814,61.462402,-36.865234,9.735107,30.798828
46160,3.682282,-6.004658,1.230620,50.659180,-61.737061,-3.479004,30.802734
46200,4.141969,-7.077260,1.158794,-8.758545,-22.644043,-3.692627,30.787109
46240,4.022259,-7.699753,2.178724,-50.750732,49.011230,-4.028320,30.824219
46280,5.137957,-8.987833,4.237737,-87.585449,101.074219,-24.932861,30.810547
46320,6.526594,-10.275913,5.861006,-22.033691,99.334717,-20.446777,30.791016
46360,6.277597,-11.204864,6.253655,92.376709,-28.137207,0.579834,30.806641
46400,2.906561,-12.550406,-0.253785,84.838867,-197.998047,24.597168,30.814453
46440,0.852336,-10.769119,-1.403002,129.455566,-131.195068,-9.094238,30.810547
46480,3.682282,-9.543288,0.995988,80.871582,-4.638672,-22.003174,30.796875
46520,5.501875,-10.146626,0.196325,-3.997803,21.301270,6.805420,30.814453
46560,4.505888,-9.236830,-1.067814,-42.419434,-27.801514,6.744385,30.791016
46600,3.423708,-7.115568,0.258574,-84.014893,13.610840,6.744385,30.814453
46640,2.877831,-5.588067,1.742979,-131.072998,86.120605,3.967285,30.798828
46680,2.825158,-5.736507,1.848324,-147.216797,120.971680,0.793457,30.841797
46720,3.557784,-6.947973,1.599327,-134.826660,109.191895,2.593994,30.830078
46760,4.199430,-7.757214,1.628057,-91.369629,68.511963,-2.410889,30.814453
46800,4.865018,-8.322245,1.862689,-46.691895,5.828857,-20.690918,30.818359
46840,5.870583,-9.959879,0.895431,2.227783,-27.374268,-11.535645,30.804688
46880,6.852205,-11.583148,0.924162,63.446045,-15.594482,-8.697510,30.814453
46920,7.441179,-12.679692,0.703895,85.327148,-16.876221,-1.617432,30.798828
46960,5.209783,-10.242394,-0.459687,73.028564,-57.159424,8.361816,30.806641
47000,2.652776,-8.542512,-1.259350,96.527100,-98.052979,2.532959,30.794922
47040,1.158794,-10.362105,-1.134852,66.741943,-131.958008,34.576416,30.820312
47080,-0.047884,-10.213664,0.464475,36.376953,-72.967529,16.662598,30.810547
47120,1.254562,-7.623138,2.753332,22.125244,39.733887,8.514404,30.812500
47160,2.911349,-5.578490,2.767697,-21.270752,89.477539,9.918213,30.806641
47200,3.519476,-5.482722,1.666364,9.582520,43.243408,3.540039,30.818359
47240,4.314352,-6.631939,1.110910,3.570557,1.678467,-4.699707,30.837891
47280,4.601655,-7.426814,1.575385,-21.331787,-1.007080,-1.678467,30.818359
47320,4.299986,-8.226477,3.797204,-45.318604,66.345215,-11.718750,30.832031
47360,5.458780,-9.959879,4.845864,-38.818359,67.504883,-15.350342,30.828125
47400,5.626374,-10.884041,5.770026,30.487061,66.772461,-11.505127,30.849609
47440,5.549759,-10.836157,4.553771,33.355713,-51.177979,-21.240234,30.837891
47480,3.552995,-10.745177,-1.493982,85.784912,-187.927246,0.854492,30.832031
47520,1.321599,-10.213664,-1.235408,89.233398,-105.255127,1.037598,30.847656
47560,2.643199,-10.376471,1.206678,76.049805,-1.190186,-19.134521,30.837891
47600,5.070919,-10.692505,0.397437,-6.896973,43.151855,5.798340,30.843750
47640,5.343858,-8.470686,-0.651223,-54.534912,-2.777100,8.575439,30.826172
47680,4.539406,-5.669470,0.885855,-87.799072,34.423828,-1.739502,30.832031
47720,3.610456,-4.802769,1.206678,-117.858887,87.066650,-3.356934,30.833984
47760,3.165135,-6.239290,0.804452,-108.581543,90.240479,-0.885010,30.861328
47800,3.198653,-7.656657,0.866701,-113.494873,76.751709,-0.915527,30.845703
47840,3.782839,-8.307879,1.522712,-121.276855,-13.732910,-16.143799,30.851562
47880,5.377377,-10.247183,3.198653,-113.922119,44.708252,-8.605957,30.847656
47920,5.396531,-11.362882,1.613692,31.890869,-9.613037,7.537842,30.906250
47960,6.253655,-12.674904,0.440533,96.466064,5.249023,3.601074,30.882812
48000,5.564125,-11.233594,-1.201889,124.908447,-16.723633,18.859863,30.925781
48040,3.217807,-7.546524,-1.723825,151.031494,-82.702637,1.342773,30.904297
48080,2.887407,-8.451532,-0.828394,117.401123,-78.765869,-2.502441,30.902344
48120,3.074155,-9.911995,0.114922,62.957764,-43.914795,1.007080,30.890625
48160,3.179500,-7.771579,0.287304,27.862549,-33.447266,3.814697,30.896484
48200,3.380613,-5.880159,0.517148,-19.744873,8.911133,6.927490,30.904297
48240,3.457227,-5.621585,1.053449,-27.984619,73.638916,1.342773,30.904297
48280,3.845088,-6.464345,1.584962,-71.411133,98.754883,3.723145,30.900391
48320,4.381389,-7.398083,2.346318,-80.688477,116.699219,2.471924,30.910156
48360,4.218584,-8.125920,3.940856,-44.433594,92.193604,-6.439209,30.916016
48400,5.731719,-9.078813,4.975151,-24.871826,39.886475,-29.541016,30.908203
48440,6.545747,-10.194510,4.903325,11.535645,31.097412,-12.634277,30.914062
48480,6.325481,-9.217676,5.616797,39.093018,7.049561,-33.081055,30.898438
48520,5.401319,-8.757990,0.574608,64.178467,-114.135742,-20.690918,30.912109
48560,2.590526,-9.165004,-2.054225,98.114014,-146.606445,22.583008,30.929688
48600,0.871489,-11.022904,-0.043096,86.425781,-32.958984,-11.566162,30.894531
48640,4.520253,-11.937490,1.599327,13.458252,65.979004,-30.487061,30.906250
48680,6.861782,-9.591172,0.785298,-80.047607,37.078857,-1.678467,30.910156
48720,5.118803,-6.756437,0.287304,-89.691162,5.920410,6.805420,30.900391
48760,2.758120,-5.793968,0.368707,-117.401123,53.771973,11.108398,30.925781
48800,2.700660,-5.731719,0.957681,-100.708008,79.772949,-2.777100,30.902344
48840,3.706224,-6.560112,1.513135,-123.046875,82.122803,1.281738,30.916016
48880,4.290410,-7.493851,0.857124,-111.785889,0.549316,-10.253906,30.916016
48920,4.908113,-8.839393,1.632846,-102.294922,-20.843506,-12.145996,30.916016
48960,5.841852,-10.740389,1.628057,-26.245117,18.341064,8.148193,30.931641
49000,7.134721,-11.396400,0.890643,33.813477,4.608154,6.561279,30.933594
49040,7.838616,-11.856087,-0.225055,91.400146,0.213623,5.310059,30.917969
49080,5.473145,-9.562442,-1.575385,112.976074,-46.844482,19.989014,30.908203
49120,2.834735,-7.728483,-1.374272,112.884521,-93.231201,-6.561279,30.912109
49160,2.470816,-10.390836,-0.694318,82.733154,-93.994141,10.589600,30.919922
49200,1.699883,-10.568007,-0.019154,29.968262,-32.287598,14.343262,30.927734
49240,2.173935,-7.704541,1.211466,25.024414,29.693604,6.256104,30.916016
49280,3.591303,-5.736507,2.303222,-21.728516,92.102051,11.627197,30.929688
49320,4.046201,-5.621585,1.762132,-3.326416,56.518555,1.403809,30.916016
49360,4.194642,-6.588843,1.268927,22.216797,-34.118652,-0.549316,30.929688
49400,3.754108,-7.417237,1.829170,-12.207031,-20.477295,-1.007080,30.939453
49440,4.060566,-7.637504,3.256114,-52.886963,56.793213,-8.941650,30.935547
49480,6.081272,-8.441956,3.849876,-62.164307,93.231201,-22.583008,30.912109
49520,6.584054,-9.979033,4.917690,4.302979,110.656738,-22.979736,30.916016
49560,5.621585,-11.109096,5.133168,27.343750,-31.677246,-4.180908,30.919922
49600,2.576161,-12.181698,-1.364695,86.730957,-172.119141,19.561768,30.919922
49640,1.642422,-10.568007,-0.967257,99.609375,-80.657959,-12.359619,30.935547
49680,3.883395,-10.309433,0.440533,55.938721,-5.889893,-15.563965,30.935547
49720,5.506664,-10.386047,-0.397437,-8.331299,16.387939,5.859375,30.933594
49760,4.750096,-8.657434,-1.144428,-40.618896,-38.818359,9.857178,30.929688
49800,3.519476,-6.722919,0.038307,-70.037842,-9.368896,14.801025,30.921875
49840,2.489970,-5.612009,1.345541,-108.795166,59.356689,10.711670,30.943359
49880,3.059790,-6.023811,2.504335,-124.511719,123.870850,0.518799,30.988281
49920,4.223372,-7.187394,2.284068,-111.968994,131.042480,-2.441406,31.001953
49960,4.726154,-7.599196,0.885855,-66.040039,16.906738,-18.493652,31.001953
50000,5.003881,-7.728483,1.177947,-36.987305,-52.764893,-12.603760,30.988281
50040,5.272032,-8.978256,1.201889,20.233154,-28.961182,-2.716064,30.998047
50080,6.143522,-10.156203,1.273715,59.967041,-49.255371,-6.927490,30.986328
50120,7.354988,-11.300632,0.995988,75.347900,-32.989502,-17.852783,30.982422
50160,6.713342,-10.568007,-0.574608,95.642090,-43.792725,-7.293701,30.978516
50200,4.280833,-8.911219,-1.527501,112.915039,-78.369141,3.021240,30.984375
50240,2.566584,-10.175357,-0.306458,67.687988,-81.024170,38.604736,31.003906
50280,0.603339,-11.319786,1.288081,15.747070,-27.313232,24.810791,31.003906
50320,1.584962,-8.585608,2.595315,13.153076,68.939209,9.002686,30.998047
50360,3.505111,-5.793968,2.614468,-28.656006,91.461182,15.411377,31.021484
50400,4.299986,-5.085284,1.398214,15.228271,36.590576,4.089355,31.023438
50440,4.625597,-5.990293,0.814029,26.916504,-22.979736,-3.967285,31.021484
50480,4.060566,-7.029376,1.398214,-16.448975,-2.014160,-2.288818,30.988281
50520,3.557784,-7.479486,2.614468,-60.272217,47.271729,-8.697510,31.000000
50560,5.252879,-7.958326,3.217807,-76.690674,57.128906,-32.470703,31.000000
50600,6.459556,-9.610326,4.161122,-72.418213,83.679199,-15.380859,31.009766
50640,6.157887,-10.951078,6.564901,59.143066,70.983887,-9.216309,31.023438
50680,3.969586,-12.181698,1.058237,83.526611,-147.399902,18.920898,30.990234
50720,1.072602,-11.128249,-1.565808,116.516113,-121.002197,9.124756,31.000000
50760,1.924938,-9.715671,0.560243,61.767578,1.556396,-7.598877,31.001953
50800,4.740520,-10.596737,0.028730,17.974854,-14.831543,-10.955811,31.017578
50840,5.487510,-10.132261,-0.555455,-44.189453,-24.261475,6.866455,31.013672
50880,4.017470,-8.360553,0.905008,-108.398438,16.967773,9.948730,31.013672
50920,2.906561,-6.564901,1.824382,-114.196777,77.606201,10.498047,31.005859
50960,3.069367,-5.592855,1.680730,-122.802734,110.748291,6.072998,31.021484
51000,3.615245,-5.971139,1.474828,-102.355957,118.957520,6.713867,31.023438
51040,3.327940,-7.096414,1.096544,-54.382324,22.460938,0.396729,31.003906
51080,4.165911,-8.082825,0.914585,-13.458252,-54.595947,-16.723633,31.015625
51120,5.391742,-9.054871,1.312023,8.331299,-42.999268,-12.481689,31.013672
51160,6.042965,-10.098742,1.561020,43.853760,-21.911621,-2.807617,31.017578
51200,6.885724,-11.731588,1.197101,55.389404,-10.437012,-9.979248,31.021484
51240,6.162675,-11.750742,-0.469264,57.037354,-40.740967,5.065918,31.013672
51280,3.529053,-9.284714,-1.781286,85.083008,-107.147217,4.486084,31.027344
51320,1.800440,-10.089166,-0.608127,51.269531,-109.497070,37.811279,31.019531
51360,0.081403,-11.693281,1.963245,24.322510,27.191162,29.174805,31.035156
51400,1.364695,-9.155427,3.011906,-5.401611,75.714111,8.789062,31.027344
51440,2.892196,-6.248867,1.900996,20.385742,31.127930,9.674072,31.035156
51480,3.667917,-5.109226,1.106121,73.333740,-56.335449,4.425049,31.031250
51520,3.591303,-6.138733,1.230620,48.583984,-53.741455,-2.410889,31.015625
51560,3.576937,-7.000646,1.273715,-2.532959,-23.223877,-3.723145,31.027344
51600,3.581726,-7.369353,2.126051,-57.403564,40.557861,-4.486084,31.021484
51640,4.659117,-8.398860,3.830723,-89.019775,83.160400,-22.308350,31.013672
51680,6.426037,-10.433931,5.090073,-28.778076,69.091797,-16.693115,31.027344
51720,6.301539,-11.075577,6.641516,85.906982,28.656006,-5.584717,31.035156
51760,3.366248,-12.258312,0.794875,74.279785,-150.177002,12.359619,31.050781
51800,0.684742,-11.104307,-1.924938,95.245361,-129.669189,3.997803,31.056641
51840,2.135628,-10.175357,0.814029,56.610107,-30.090332,-5.584717,31.042969
51880,4.405331,-10.692505,0.253785,8.087158,22.430420,-5.767822,31.082031
51920,4.639963,-10.122684,-1.053449,-48.248291,0.335693,8.300781,31.093750
51960,3.787627,-8.164227,0.569820,-107.177734,10.772705,7.537842,31.074219
52000,2.983175,-6.339846,2.001553,-127.807617,88.470459,9.155273,31.070312
52040,2.633622,-5.425261,1.340753,-119.140625,107.727051,3.570557,31.070312
52080,2.748544,-6.272809,1.383849,-77.087402,84.899902,2.563477,31.087891
52120,3.471592,-7.608773,1.493982,-53.100586,20.385742,-1.831055,31.097656
52160,4.678270,-7.948750,1.522712,-8.972168,-34.729004,-13.916016,31.076172
52200,5.487510,-8.777143,1.312023,22.216797,-24.078369,-9.155273,31.085938
52240,5.492299,-10.170568,1.800440,13.580322,-27.954102,-8.117676,31.093750
52280,5.865794,-11.425131,2.054225,29.357910,-11.016846,-16.143799,31.099609
52320,6.775591,-11.918336,0.464475,55.786133,4.272461,-11.352539,31.089844
52360,5.185841,-9.619903,-1.987187,85.754395,-64.819336,-4.394531,31.085938
52400,2.820370,-8.604761,-1.714248,89.630127,-102.966309,9.216309,31.103516
52440,0.809240,-11.573571,0.296881,27.069092,-77.575684,39.001465,31.082031
52480,0.086191,-10.639832,2.542642,30.639648,45.715332,11.474609,31.105469
52520,2.049437,-7.115568,2.724602,-3.112793,80.718994,12.084961,31.099609
52560,3.519476,-5.128380,1.513135,40.496826,7.354736,12.207031,31.103516
52600,3.792415,-5.588067,0.775721,70.343018,-47.027588,-1.098633,31.099609
52640,3.993528,-6.856994,1.144428,13.946533,-30.792236,-2.990723,31.101562
52680,3.988740,-7.671022,1.805228,-47.241211,16.754150,-3.753662,31.121094
52720,4.625597,-8.092402,3.552995,-96.740723,83.618164,-16.723633,31.105469
52760,6.200983,-9.490616,4.587290,-67.169189,79.223633,-20.355225,31.099609
52800,6.363788,-10.170568,6.900089,56.304932,73.394775,-9.826660,31.111328
52840,4.362236,-11.353305,2.978387,74.035645,-95.642090,0.549316,31.082031
52880,1.647211,-12.129025,-1.326388,98.449707,-130.737305,5.676270,31.103516
52920,1.728614,-10.534488,0.584185,29.998779,23.223877,-0.732422,31.111328
52960,3.715801,-10.256760,-0.086191,3.387451,-7.446289,-11.230469,31.115234
53000,4.936844,-10.414778,-1.029507,-27.923584,-25.085449,0.061035,31.117188
53040,4.007894,-8.705317,-0.656011,-65.338135,-12.115479,10.406494,31.099609
53080,2.561796,-6.809110,1.589750,-122.558594,42.663574,11.596680,31.105469
53120,2.217031,-6.052542,2.308010,-122.589111,105.682373,7.873535,31.107422
53160,3.131616,-6.397307,1.517924,-97.534180,116.363525,0.976562,31.105469
53200,4.156334,-7.541735,1.259350,-55.908203,51.605225,-2.777100,31.089844
53240,4.917690,-7.987057,1.479617,-14.892578,-26.489258,-3.448486,31.095703
53280,4.912902,-8.010999,1.187524,19.256592,-41.503906,-4.150391,31.115234
53320,5.185841,-9.107543,1.350330,29.937744,-17.395020,-1.708984,31.128906
53360,5.281609,-10.247183,1.766921,23.193359,-14.312744,-2.227783,31.132812
53400,6.086061,-11.511322,1.422156,17.456055,-4.760742,-8.087158,31.125000
53440,6.004658,-11.080365,-0.076614,39.825439,-22.430420,-0.061035,31.119141
53480,4.041412,-8.848969,-1.493982,69.671631,-67.749023,-3.051758,31.109375
53520,2.686294,-9.160215,-0.905008,68.176270,-74.584961,-0.640869,31.105469
53560,1.608904,-11.353305,0.617704,21.362305,-45.440674,27.709961,31.107422
53600,0.746991,-10.007763,1.958457,27.526855,41.015625,11.779785,31.115234
53640,1.987187,-6.943185,2.590526,8.636475,62.255859,7.171631,31.113281
53680,3.251326,-5.372589,1.556231,44.555664,-0.946045,7.568359,31.115234
53720,3.854665,-5.966351,0.943315,67.138672,-72.723389,1.007080,31.123047
53760,3.960010,-7.163452,1.240196,7.965088,-44.311523,-2.807617,31.111328
53800,3.797204,-7.517793,2.255338,-47.119141,22.033691,-4.577637,31.123047
53840,4.386178,-7.987057,3.299210,-87.371826,73.791504,-16.113281,31.164062
53880,5.348647,-9.500193,3.821146,-64.605713,89.538574,-13.153076,31.201172
53920,6.263232,-9.706094,7.661446,50.872803,110.839844,-11.810303,31.185547
53960,6.129156,-10.223241,3.936068,51.483154,-117.523193,-20.141602,31.173828
54000,3.552995,-11.367670,-1.412579,108.489990,-156.005859,10.223389,31.171875
54040,0.938527,-10.285490,0.320823,52.703857,-11.322021,6.652832,31.171875
54080,2.513912,-10.170568,0.464475,15.686035,12.176514,-15.441895,31.169922
54120,5.559336,-10.553641,-0.469264,-11.657715,8.422852,-15.350342,31.185547
54160,5.861006,-9.093178,-0.545878,-70.922852,3.143311,11.108398,31.189453
54200,4.065354,-7.038953,0.746991,-99.121094,23.071289,10.894775,31.195312
54240,2.772485,-5.803545,1.757344,-121.246338,88.714600,10.131836,31.173828
54280,2.652776,-6.062119,1.254562,-116.485596,101.745605,11.871338,31.197266
54320,3.074155,-7.125144,1.364695,-80.810547,65.429688,7.537842,31.189453
54360,4.141969,-7.651869,1.714248,-26.489258,-17.913818,-10.070801,31.203125
54400,4.697424,-8.034941,1.130063,-6.286621,-50.811768,-2.807617,31.201172
54440,5.090073,-9.662998,1.297657,21.759033,-28.839111,4.882812,31.183594
54480,6.114791,-10.481815,1.944092,43.273926,-33.813477,-2.746582,31.205078
54520,7.302315,-11.204864,1.422156,52.276611,-6.927490,-11.840820,31.210938
54560,6.698977,-10.749966,-0.574608,65.856934,-24.291992,-1.220703,31.208984
54600,3.916914,-8.762778,-2.078167,104.003906,-97.564697,2.807617,31.185547
54640,2.063802,-9.840169,-0.900220,61.187744,-103.942871,16.693115,31.208984
54680,0.885855,-11.793838,1.814805,-1.068115,1.556396,15.136719,31.214844
54720,1.948880,-9.346964,3.007117,-13.244629,88.317871,8.483887,31.207031
54760,3.011906,-6.315904,2.044648,-12.908936,73.120117,16.357422,31.195312
54800,3.232172,-4.989516,0.957681,55.358887,-18.859863,8.941650,31.214844
54840,3.466804,-5.918467,1.067814,61.737061,-53.283691,-2.838135,31.193359
54880,3.974375,-7.211336,1.393425,-4.852295,-11.840820,-1.068115,31.197266
54920,3.950433,-7.651869,2.197877,-60.638428,42.510986,-2.380371,31.210938
54960,4.903325,-8.317456,3.284845,-95.550537,73.669434,-24.353027,31.210938
55000,6.924031,-9.955091,4.955997,-63.262939,88.317871,-8.453369,31.205078
55040,6.861782,-10.433931,6.454768,89.050293,23.773193,-7.141113,31.212891
55080,3.873818,-11.496957,0.924162,83.068848,-143.463135,6.164551,31.195312
55120,0.636858,-10.931925,-1.891419,109.436035,-124.023438,12.237549,31.205078
55160,1.786075,-10.342952,1.139640,45.074463,11.779785,-4.791260,31.203125
55200,4.381389,-10.706870,0.148441,14.160156,35.339355,-24.047852,31.222656
55240,5.444415,-9.983821,-0.847547,-61.126709,-1.922607,1.647949,31.195312
55280,4.213795,-8.274361,0.292093,-108.428955,13.397217,7.629395,31.214844
55320,2.691083,-6.818686,2.011129,-141.845703,100.097656,9.643555,31.210938
55360,2.293645,-6.157887,1.608904,-125.183105,131.347656,12.023926,31.208984
55400,2.738967,-6.612785,1.412579,-71.838379,102.355957,3.051758,31.230469
55440,3.711013,-7.426814,1.426944,-46.691895,14.495850,-3.387451,31.214844
55480,4.783615,-7.809886,1.225831,-2.807617,-43.090820,-14.770508,31.224609
55520,5.348647,-8.556877,1.077391,29.357910,-45.654297,-14.160156,31.210938
55560,5.319916,-9.840169,1.379060,32.714844,-43.884277,-13.000488,31.222656
55600,6.148310,-11.731588,1.599327,39.184570,-18.127441,-16.357422,31.207031
55640,6.406884,-12.196063,0.110133,49.499512,-24.871826,-6.469727,31.220703
55680,4.496311,-9.940725,-1.379060,72.998047,-69.854736,-2.319336,31.214844
55720,2.466028,-9.428367,-0.440533,40.039062,-76.202393,16.906738,31.203125
55760,0.248997,-11.362882,1.288081,6.408691,-3.448486,42.541504,31.224609
55800,0.545878,-9.361329,2.676718,16.174316,70.281982,-5.218506,31.207031
55840,2.537854,-6.766014,1.968034,-7.324219,47.363281,8.789062,31.277344
55880,2.877831,-5.568913,1.173159,43.029785,-21.820068,12.939453,31.275391
55920,2.724602,-6.239290,1.484405,63.232422,-75.012207,3.784180,31.265625
55960,3.265691,-7.589619,1.742979,15.869141,-36.193848,-1.953125,31.279297
56000,3.936068,-7.565677,1.805228,-30.914307,18.066406,-1.403809,31.267578
56040,4.228160,-7.781156,2.901772,-79.559326,70.251465,-14.587402,31.289062
56080,5.530606,-9.662998,4.094085,-64.941406,91.918945,-21.606445,31.285156
56120,6.181829,-10.764331,6.545747,47.668457,93.139648,-15.350342,31.273438
56160,4.922479,-11.587936,4.280833,45.166016,-103.851318,10.467529,31.283203
56200,2.121263,-11.726800,-1.173159,91.857910,-142.883301,-5.706787,31.269531
56240,2.082955,-10.060435,0.047884,76.812744,-42.419434,-2.105713,31.279297
56280,3.634398,-9.476251,0.268151,22.949219,-0.061035,-6.134033,31.292969
56320,4.165911,-10.117896,-1.005565,-10.833740,-21.789551,5.218506,31.296875
56360,3.969586,-9.074024,-0.699107,-59.265137,-9.826660,9.063721,31.287109
56400,3.825934,-6.919243,1.441309,-107.604980,48.187256,3.417969,31.287109
56440,3.514688,-5.655105,1.972822,-133.544922,98.449707,2.349854,31.292969
56480,3.021482,-6.497863,1.249773,-128.448486,111.175537,5.767822,31.298828
56520,2.873042,-7.829040,1.388637,-82.641602,64.331055,4.913330,31.269531
56560,3.754108,-8.073248,1.877054,-31.158447,-7.110596,-6.042480,31.269531
56600,4.730943,-8.015787,1.005565,10.009766,-44.586182,-3.906250,31.289062
56640,5.564125,-9.265560,1.211466,39.367676,-22.064209,1.312256,31.292969
56680,6.042965,-10.055647,1.541866,54.840088,-23.529053,-2.166748,31.285156
56720,6.675035,-11.166556,1.221043,37.109375,-18.951416,-12.634277,31.302734
56760,6.258443,-11.487380,-0.100556,47.302246,-23.956299,-2.655029,31.285156
56800,3.806781,-9.418790,-1.671153,77.850342,-67.291260,-1.464844,31.312500
56840,2.159570,-9.361329,-1.067814,51.574707,-77.026367,8.087158,31.273438
56880,1.106121,-11.147403,0.828394,8.361816,-19.866943,20.324707,31.275391
56920,1.556231,-9.399636,2.126051,17.974854,73.364258,3.326416,31.285156
56960,2.628834,-6.445191,1.968034,-18.402100,45.410156,16.174316,31.304688
57000,2.604892,-5.219360,1.383849,46.051025,-1.220703,14.251709,31.306641
57040,3.016694,-6.133945,1.316811,78.979492,-63.507080,1.464844,31.289062
57080,3.730166,-7.441179,1.388637,17.974854,-50.842285,3.326416,31.292969
57120,3.811569,-7.671022,2.202666,-44.006348,13.519287,3.845215,31.322266
57160,4.630386,-8.312668,3.634398,-73.242188,84.960938,-13.732910,31.318359
57200,5.990293,-10.137050,4.252102,-38.543701,84.350586,-15.258789,31.294922
57240,6.631939,-11.458650,7.441179,83.038330,89.508057,1.800537,31.296875
57280,4.084508,-12.133814,2.451663,75.988770,-178.192139,25.421143,31.304688
57320,1.460463,-11.166556,-2.274492,139.099121,-164.733887,-2.288818,31.312500
57360,2.815581,-9.763555,0.234632,88.500977,-32.989502,-4.211426,31.318359
57400,4.299986,-9.873688,0.229843,7.293701,-13.458252,0.396729,31.294922
57440,4.094085,-9.686940,-0.531513,-46.142578,-16.357422,8.392334,31.316406
57480,3.677494,-8.039729,0.387861,-101.867676,32.806396,7.904053,31.298828
57520,3.265691,-6.335058,1.781286,-144.653320,93.200684,4.730225,31.308594
57560,3.021482,-5.693412,1.604115,-151.611328,118.865967,1.647949,31.316406
57600,3.174711,-6.406884,1.680730,-131.835938,139.678955,3.234863,31.316406
57640,3.490746,-7.623138,1.211466,-78.338623,59.722900,0.946045,31.314453
57680,4.165911,-7.996634,1.551443,-33.782959,-12.207031,-15.228271,31.322266
57720,5.195418,-8.949526,1.292869,7.446289,-41.107178,-16.510010,31.320312
57760,5.908890,-10.539276,1.671153,33.721924,-14.526367,-3.936768,31.310547
57800,6.612785,-11.961432,1.479617,51.635742,-6.774902,-10.101318,31.318359
57840,6.320693,-11.870452,0.023942,59.204102,-23.223877,-1.312256,31.353516
57880,4.050989,-9.232041,-1.623269,85.876465,-80.535889,-2.532959,31.376953
57920,2.303222,-9.289502,-1.580173,84.045410,-110.260010,1.525879,31.373047
57960,0.876278,-11.458650,-0.143652,30.151367,-82.763672,37.231445,31.371094
58000,0.225055,-9.552865,1.896208,29.022217,17.333984,1.251221,31.365234
58040,2.418144,-6.914454,2.557007,-4.913330,74.157715,6.500244,31.365234
58080,3.203442,-5.645528,1.623269,14.282227,44.403076,9.948730,31.359375
58120,3.481169,-6.090849,1.000776,37.658691,-28.015137,-1.770020,31.365234
58160,3.902549,-6.991069,1.216254,13.244629,-34.729004,-1.586914,31.384766
58200,3.782839,-7.302315,2.097321,-43.304443,17.517090,-1.129150,31.369141
58240,4.568137,-8.307879,3.902549,-71.319580,107.238770,-22.460938,31.386719
58280,6.047753,-10.055647,4.003105,-38.085938,74.310303,-23.193359,31.371094
58320,6.641516,-9.639056,7.149086,58.166504,57.647705,-13.916016,31.373047
58360,4.802769,-10.400413,2.633622,63.049316,-140.838623,-8.941650,31.380859
58400,1.498770,-11.118672,-1.924938,115.844727,-156.280518,14.526367,31.367188
58440,0.857124,-11.056423,0.253785,76.782227,-9.948730,0.610352,31.371094
58480,3.490746,-11.458650,0.464475,33.020020,17.974854,-27.465820,31.386719
58520,6.268020,-10.371682,-0.172383,-36.468506,13.793945,3.448486,31.376953
58560,5.008670,-8.044518,-0.679953,-74.188232,-19.683838,16.937256,31.375000
58600,3.074155,-6.224925,0.617704,-92.132568,28.808594,7.690430,31.382812
58640,2.470816,-5.722142,1.503559,-123.352051,77.941895,9.033203,31.376953
58680,2.676718,-6.459556,1.398214,-121.612549,98.937988,5.645752,31.369141
58720,3.725378,-7.359776,2.020706,-94.573975,78.399658,-2.044678,31.378906
58760,4.711789,-7.594408,1.857901,-53.131104,-21.179199,-29.754639,31.390625
58800,5.463568,-8.384495,1.043872,-18.890381,-34.027100,-17.395020,31.386719
58840,5.779603,-9.955091,1.651999,19.592285,-25.360107,-7.659912,31.390625
58880,6.641516,-11.252748,1.786075,63.079834,-17.181396,-12.786865,31.380859
58920,7.048530,-11.434708,0.201113,79.956055,-12.512207,-7.171631,31.394531
58960,5.147533,-9.313444,-1.412579,88.806152,-51.666260,7.781982,31.408203
59000,2.997540,-8.657434,-1.364695,88.897705,-72.967529,7.659912,31.386719
59040,2.193089,-11.358093,-0.579397,63.507080,-69.213867,23.101807,31.396484
59080,1.498770,-11.180922,1.106121,6.866455,14.892578,18.920898,31.376953
59120,2.925714,-7.508216,3.011906,-15.350342,89.080811,12.390137,31.378906
59160,3.653552,-4.984728,2.360683,1.892090,55.297852,15.960693,31.400391
59200,3.351882,-4.922479,0.660800,64.178467,-45.928955,3.265381,31.400391
59240,3.442862,-6.636727,1.034295,34.912109,-58.563232,-5.279541,31.394531
59280,3.792415,-7.728483,2.044648,-38.055420,13.702393,-1.708984,31.384766
59320,4.668694,-7.900866,3.332729,-79.437256,71.685791,-16.052246,31.396484
59360,6.315904,-9.002198,3.768473,-87.829590,70.129395,-17.120361,31.417969
59400,7.398083,-9.959879,6.943185,16.662598,104.217529,-3.906250,31.390625
59440,5.856217,-10.769119,3.466804,97.015381,-97.534180,-11.413574,31.386719
59480,2.221819,-11.803414,-1.398214,101.776123,-155.456543,26.397705,31.396484
59520,0.981623,-10.692505,0.392649,71.350098,5.096436,-1.007080,31.392578
59560,3.715801,-10.529699,0.158017,13.214111,25.360107,-22.949219,31.416016
59600,5.990293,-10.218452,-0.699107,-33.325195,-0.671387,-6.042480,31.404297
59640,4.936844,-8.561666,-0.459687,-83.190918,-11.077881,10.101318,31.404297
59680,2.753332,-6.995857,1.101333,-114.746094,50.323486,13.580322,31.400391
59720,2.092532,-6.052542,1.695095,-114.227295,102.539062,11.840820,31.398438
59760,2.806004,-6.167464,1.460463,-94.635010,111.419678,5.828857,31.388672
59800,3.462016,-7.302315,1.417367,-59.448242,40.283203,-0.885010,31.458984
59840,4.453215,-8.010999,1.460463,-26.245117,-40.222168,-6.683350,31.458984
59880,5.037400,-8.374918,1.422156,-8.605957,-61.676025,-12.969971,31.466797
59920,5.315128,-9.619903,1.570596,23.559570,-40.344238,-5.737305,31.462891
59960,5.832275,-10.730812,1.690306,33.843994,-30.273438,-6.439209,31.464844
60000,7.182605,-11.923124,1.010353,46.417236,-14.190674,-11.749268,31.466797
60040,6.440403,-11.061212,-0.842759,57.586670,-42.236328,-0.793457,31.453125
60080,3.663129,-8.542512,-1.594538,91.278076,-80.047607,-1.495361,31.472656
60120,2.375048,-9.390059,-0.363919,54.077148,-53.771973,12.084961,31.457031
60160,1.546654,-10.745177,1.125275,6.652832,9.826660,15.472412,31.460938
60200,2.039860,-8.461109,1.493982,6.164551,52.947998,8.758545,31.460938
60240,2.940080,-6.023811,1.163582,-1.922607,40.313721,17.272949,31.464844
60280,2.877831,-5.511452,1.489193,35.888672,7.354736,8.331299,31.449219
60320,3.126827,-6.617573,1.575385,27.038574,-28.839111,4.455566,31.451172
60360,3.825934,-7.800309,1.503559,-0.488281,-8.850098,-0.457764,31.466797
60400,4.424485,-7.666234,2.116474,-43.701172,32.928467,-2.227783,31.466797
60440,5.133168,-8.054094,3.150769,-64.300537,64.636230,-21.972656,31.462891
60480,6.229713,-9.662998,3.758897,-34.393311,58.929443,-11.413574,31.486328
60520,6.794744,-10.012551,6.938396,49.194336,54.107666,-12.207031,31.449219
60560,5.655105,-10.673351,2.580950,66.406250,-101.959229,-18.798828,31.468750
60600,2.700660,-11.209652,-1.838747,104.370117,-156.372070,14.495850,31.486328
60640,0.603339,-10.256760,0.234632,56.396484,-31.494141,3.265381,31.472656
60680,2.657564,-10.548853,1.096544,5.035400,32.165527,-18.280029,31.462891
60720,5.382165,-10.462662,-0.100556,-33.050537,41.076660,-10.711670,31.472656
60760,5.554548,-8.394072,-0.502782,-73.181152,14.801025,6.256104,31.460938
60800,3.964798,-6.526594,0.770933,-98.571777,48.339844,2.685547,31.476562
60840,2.667141,-5.808333,1.441309,-117.675781,82.977295,3.906250,31.486328
60880,2.116474,-6.631939,1.225831,-110.351562,78.918457,8.575439,31.462891
60920,2.643199,-7.560889,1.948880,-75.134277,32.348633,-3.906250,31.476562
60960,4.213795,-7.618350,1.647211,-32.775879,-21.087646,-13.977051,31.468750
61000,5.008670,-8.173804,0.636858,11.199951,-57.342529,-9.399414,31.488281
61040,5.607220,-9.715671,1.388637,36.499023,-13.061523,5.340576,31.488281
61080,6.196194,-10.520123,1.838747,35.919189,-8.392334,-1.525879,31.478516
61120,7.168240,-11.669339,1.115698,33.477783,-6.958008,-8.453369,31.486328
61160,6.086061,-10.927136,-0.746991,49.377441,-41.656494,1.251221,31.460938
61200,3.414132,-8.619126,-1.752556,86.761475,-86.883545,1.159668,31.503906
61240,2.044648,-9.538500,-0.512359,60.852051,-74.066162,21.972656,31.462891
61280,1.316811,-10.812215,1.589750,2.868652,8.392334,12.817383,31.486328
61320,2.250550,-8.643068,2.231396,5.401611,66.558838,11.047363,31.494141
61360,3.002329,-6.282385,1.719037,-4.547119,53.985596,20.996094,31.474609
61400,3.236961,-5.386954,1.063026,50.109863,-3.479004,6.134033,31.492188
61440,3.610456,-6.354211,1.110910,41.137695,-50.384521,0.274658,31.484375
61480,3.979163,-7.642292,1.350330,-4.821777,-18.524170,-2.655029,31.482422
61520,4.180276,-7.747637,2.489970,-55.450439,43.548584,-3.997803,31.472656
61560,5.123591,-8.121132,3.447650,-80.535889,77.880859,-29.785156,31.488281
61600,6.584054,-9.782708,4.266468,-32.440186,65.399170,-14.373779,31.480469
61640,6.421249,-10.409989,7.101202,77.453613,32.592773,-5.554199,31.507812
61680,4.352659,-11.281479,1.728614,74.340820,-127.258301,-6.958008,31.492188
61720,1.752556,-10.955867,-1.929727,103.607178,-124.908447,19.775391,31.482422
61760,1.158794,-9.935937,0.560243,29.937744,9.582520,-1.678467,31.486328
61800,4.031836,-10.524911,0.517148,-2.349854,15.533447,-21.697998,31.537109
61840,5.659893,-10.362105,-0.387861,-57.281494,18.859863,0.518799,31.558594
61880,4.276044,-8.465898,-0.124498,-94.787598,9.521484,7.171631,31.539062
61920,2.461239,-6.746861,1.369483,-121.551514,59.692383,10.620117,31.537109
61960,2.078167,-5.975927,1.690306,-111.389160,106.170654,8.117676,31.558594
62000,2.930503,-6.311116,1.608904,-72.998047,99.945068,-1.953125,31.546875
62040,4.103662,-7.259220,1.168370,-43.792725,15.594482,-5.065918,31.542969
62080,4.836287,-7.723695,1.244985,-2.563477,-46.997070,-6.591797,31.560547
62120,4.946421,-8.561666,1.187524,9.857178,-52.581787,-11.505127,31.521484
62160,5.295974,-9.983821,1.958457,17.517090,-13.122559,0.335693,31.558594
62200,5.688623,-10.840945,2.063802,18.585205,-3.234863,-5.096436,31.570312
62240,6.938396,-11.731588,0.933739,39.703369,-9.307861,-8.728027,31.523438
62280,5.880159,-10.151415,-0.981623,57.434082,-38.940430,1.159668,31.544922
62320,3.576937,-8.566454,-1.632846,90.026855,-92.346191,0.152588,31.531250
62360,2.217031,-10.845734,-0.445322,59.020996,-104.919434,15.350342,31.556641
62400,0.933739,-11.276690,1.508347,29.510498,-1.037598,15.319824,31.541016
62440,1.671153,-7.862558,2.580950,12.878418,50.018311,6.713867,31.554688
62480,2.863465,-5.372589,1.766921,24.078369,25.970459,15.808105,31.568359
62520,3.390190,-5.080496,0.794875,58.258057,-20.202637,1.770020,31.556641
62560,3.921702,-6.426037,0.742203,28.564453,-38.421631,-2.746582,31.548828
62600,4.218584,-7.623138,1.379060,-33.264160,7.202148,-0.854492,31.564453
62640,4.448427,-8.121132,3.241749,-78.460693,81.848145,-10.070801,31.562500
62680,5.942409,-8.772355,3.859453,-75.927734,73.303223,-31.707764,31.560547
62720,6.971915,-10.012551,6.004658,-0.213623,90.057373,-2.441406,31.570312
62760,5.535394,-10.721235,5.588067,93.475342,-55.725098,2.685547,31.562500
62800,2.595315,-11.932701,-1.225831,97.930908,-174.499512,9.918213,31.566406
62840,1.733402,-10.601525,-0.775721,115.356445,-57.525635,-2.319336,31.583984
62880,3.682282,-9.739613,0.881066,17.364502,44.616699,-10.101318,31.562500
62920,5.238513,-10.304645,-0.416591,-25.939941,8.911133,-1.953125,31.587891
62960,4.697424,-9.538500,-0.746991,-76.782227,-4.180908,4.913330,31.562500
63000,3.323152,-7.833828,1.355118,-136.688232,47.363281,7.751465,31.576172
63040,2.140416,-6.296751,1.891419,-143.646240,95.489502,16.693115,31.570312
63080,2.059013,-6.014235,1.594538,-109.893799,111.633301,-0.976562,31.564453
63120,3.476381,-6.742072,1.417367,-61.706543,49.346924,-4.821777,31.580078
63160,4.927267,-7.498640,1.182736,-14.221191,-19.500732,-3.997803,31.560547
63200,5.568913,-7.685388,1.000776,20.996094,-59.417725,-9.674072,31.578125
63240,5.669470,-8.805874,1.359907,31.158447,-41.595459,-10.406494,31.568359
63280,5.635951,-10.218452,1.800440,28.564453,-17.547607,-5.218506,31.560547
63320,6.320693,-11.525687,1.489193,19.653320,-1.739502,-15.289307,31.587891
63360,6.359000,-11.391612,-0.062249,42.541504,-22.705078,-6.011963,31.570312
63400,4.161122,-8.829816,-1.379060,65.582275,-66.406250,-1.312256,31.583984
63440,2.518700,-8.877700,-0.871489,71.441650,-63.110352,7.385254,31.566406
63480,1.493982,-11.549629,0.550666,23.040771,-25.421143,26.672363,31.558594
63520,1.407791,-10.438720,1.953669,10.192871,45.227051,10.314941,31.574219
63560,2.738967,-7.115568,2.437297,-8.178711,61.737061,16.113281,31.570312
63600,3.251326,-5.377377,1.369483,47.668457,3.173828,14.251709,31.591797
63640,3.447650,-5.760449,0.833182,74.066162,-66.040039,4.180908,31.574219
63680,3.792415,-6.770802,1.158794,17.333984,-42.602539,-1.831055,31.578125
63720,4.084508,-7.283162,1.824382,-38.513184,14.526367,0.213623,31.582031
63760,4.955997,-8.044518,3.524265,-89.172363,87.860107,-15.106201,31.623047
63800,6.861782,-9.777920,4.644751,-75.134277,85.357666,-17.303467,31.632812
63840,7.086837,-10.433931,6.799533,80.627441,53.558350,-10.803223,31.625000
63880,4.031836,-11.631032,1.288081,78.948975,-152.252197,0.671387,31.626953
63920,1.288081,-10.922348,-1.900996,107.635498,-136.810303,5.157471,31.619141
63960,2.202666,-9.519346,1.086968,49.316406,-2.197266,-7.110596,31.638672
64000,4.438850,-10.716447,0.402226,9.826660,44.311523,-10.467529,31.625000
64040,5.238513,-10.860099,-1.134852,-41.229248,12.817383,4.638672,31.632812
64080,4.477157,-8.623915,-0.684742,-75.317383,-28.503418,8.514404,31.642578
64120,3.232172,-6.277597,1.201889,-110.992432,28.808594,9.887695,31.632812
64160,2.312799,-5.468357,1.972822,-123.992920,104.156494,9.552002,31.652344
64200,2.489970,-6.167464,1.762132,-99.517822,129.150391,11.718750,31.652344
64240,3.462016,-7.455544,1.010353,-67.687988,41.107178,-3.753662,31.636719
64280,4.941632,-7.771579,1.216254,-20.019531,-44.708252,-9.918213,31.640625
64320,5.468357,-8.422802,1.355118,3.509521,-40.039062,-5.889893,31.646484
64360,5.856217,-10.079589,1.781286,25.054932,-11.199951,1.861572,31.646484
64400,6.828263,-11.156980,1.929727,36.987305,-11.138916,-11.993408,31.654297
64440,8.015787,-11.698070,0.957681,44.067383,-7.385254,-12.084961,31.628906
64480,6.411672,-10.031705,-0.636858,54.595947,-25.573730,0.732422,31.652344
64520,3.433285,-8.039729,-1.403002,77.575684,-74.127197,1.464844,31.638672
64560,1.709460,-9.974244,-0.703895,55.389404,-89.508057,8.605957,31.658203
64600,0.335188,-11.535264,1.029507,11.596680,-12.756348,11.199951,31.646484
64640,1.350330,-8.920795,2.188300,21.026611,77.423096,1.281738,31.648438
64680,3.303998,-6.200983,2.250550,-12.969971,83.953857,11.535645,31.654297
64720,3.600879,-5.219360,1.244985,23.406982,32.196045,5.615234,31.638672
64760,3.624821,-5.635951,0.852336,50.567627,-44.067383,-1.098633,31.662109
64800,3.744531,-6.947973,1.130063,4.669189,-27.160645,-2.227783,31.642578
64840,4.156334,-7.857770,2.394202,-54.931641,46.783447,-4.791260,31.642578
64880,5.616797,-8.298303,3.371036,-85.357666,76.507568,-30.242920,31.658203
64920,6.751649,-9.825804,4.410120,-75.164795,79.437256,-6.927490,31.656250
64960,6.052542,-10.783484,6.924031,92.163086,41.046143,-5.676270,31.640625
65000,4.156334,-12.172121,0.790087,93.322754,-152.801514,2.166748,31.675781
65040,1.862689,-11.420342,-1.206678,90.698242,-100.982666,7.141113,31.642578
65080,2.236184,-9.801862,0.641646,30.029297,29.479980,-3.265381,31.652344
65120,4.333505,-9.873688,-0.397437,-6.530762,-17.211914,-5.767822,31.677734
65160,4.620809,-9.672575,-0.914585,-50.689697,-40.161133,6.591797,31.644531
65200,3.332729,-8.039729,0.957681,-110.443115,14.312744,7.568359,31.677734
65240,2.557007,-6.459556,1.613692,-112.487793,63.598633,14.465332,31.664062
65280,2.954445,-6.057330,1.379060,-105.529785,96.313477,10.711670,31.646484
65320,4.017470,-6.622362,1.584962,-68.817139,97.839355,0.579834,31.652344
65360,4.764462,-7.364564,1.110910,-31.799316,4.669189,-2.410889,31.685547
65400,5.147533,-7.728483,1.063026,7.202148,-49.468994,-9.460449,31.656250
65440,5.272032,-8.978256,1.292869,12.420654,-53.344727,-10.925293,31.667969
65480,5.631162,-10.462662,1.608904,33.294678,-20.324707,1.953125,31.658203
65520,6.617573,-11.482592,1.618480,31.646729,11.901855,-8.331299,31.675781
65560,6.799533,-11.607090,0.062249,45.318604,-10.101318,-1.007080,31.677734
65600,4.367024,-9.174581,-1.742979,73.150635,-74.554443,-2.197266,31.667969
65640,2.542642,-9.040505,-1.230620,77.789307,-91.827393,11.291504,31.662109
65680,1.201889,-11.238382,0.349553,26.123047,-72.601318,26.580811,31.666016
65720,0.622492,-9.830592,1.848324,23.468018,30.517578,9.552002,31.677734
65760,2.063802,-6.761226,2.662352,-7.812500,72.326660,15.869141,31.718750
65800,3.040636,-5.257667,1.987187,21.270752,43.426514,13.214111,31.716797
65840,3.457227,-5.865794,0.900220,57.189941,-38.391113,-1.159668,31.716797
65880,4.084508,-7.292738,1.072602,6.774902,-26.275635,-4.302979,31.728516
65920,4.486734,-7.580042,2.078167,-39.215088,25.604248,-5.615234,31.748047
65960,4.673482,-7.982268,3.356671,-77.606201,69.793701,-24.963379,31.716797
66000,6.349423,-9.466674,3.677494,-67.016602,52.520752,-19.989014,31.734375
