MS,Accel X (m/s²),Accel Y (m/s²),Accel Z (m/s²),Gyro X (°/s),Gyro Y (°/s),Gyro Z (°/s),Temp (°C)
1600,9.490616,-1.292869,-3.260903,-170.715332,70.861816,66.345215,28.953125
1640,9.830592,-0.272939,-3.011906,-39.123535,-32.836914,6.866455,28.953125
1680,10.376471,-1.465251,2.782062,-142.242432,-32.440186,4.211426,28.941406
1720,8.714894,-0.804452,1.278504,-194.122314,-48.400879,4.760742,28.962891
1760,7.805098,-1.704672,-0.914585,-18.341064,-58.105469,-10.406494,28.970703
1800,8.413225,-2.164358,-1.623269,91.735840,-48.065186,-16.754150,28.951172
1840,9.212888,-1.168370,-1.862689,4.547119,-77.606201,-4.852295,28.953125
1880,9.572019,-1.211466,-2.020706,17.608643,-82.916260,-6.530762,28.962891
1920,9.897630,-0.857124,-1.695095,-50.811768,-49.591064,7.110596,28.972656
1960,10.510546,-0.603339,-2.250550,-34.149170,-40.588379,-4.455566,28.966797
2000,12.363658,-1.039083,-0.311246,-117.095947,55.175781,19.866943,28.955078
2040,13.718776,-1.101333,2.269703,136.932373,46.997070,-22.796631,28.980469
2080,13.335704,0.598550,0.857124,-15.075684,129.577637,-5.828857,28.978516
2120,11.942278,1.000776,0.507571,-51.788330,214.904785,-17.425537,28.976562
2160,11.133038,-3.830723,-2.829947,93.536377,93.444824,-2.105713,28.984375
2200,10.740389,-6.268020,-3.979163,71.807861,104.980469,2.563477,28.974609
2240,9.979033,-0.330400,-2.782062,175.323486,48.156738,-70.800781,28.970703
2280,10.184934,3.816358,-1.867477,14.312744,-21.850586,-104.553223,28.976562
2320,9.236830,1.819593,-1.446098,-178.039551,66.986084,-91.217041,28.968750
2360,7.943961,-1.493982,-2.183512,-131.652832,39.520264,-79.772949,28.976562
2400,6.449979,-3.016694,-0.928950,-106.445312,-9.368896,-49.377441,28.998047
2440,5.492299,-3.687071,0.454898,-92.926025,-31.219482,-13.061523,29.001953
2480,5.908890,-2.748544,1.728614,-43.792725,-44.158936,19.165039,28.996094
2520,9.361329,0.727837,4.572925,-104.003906,-5.767822,27.954102,28.994141
2560,14.245501,5.793968,5.789180,-26.428223,-15.045166,-44.738770,28.990234
2600,12.387600,6.234501,2.643199,-46.691895,-18.005371,-15.594482,28.998047
2640,10.678140,1.752556,-1.570596,-23.193359,-56.671143,29.724121,28.992188
2680,11.415554,-4.180276,-0.914585,139.007568,80.657959,22.979736,29.011719
2720,7.062895,-7.599196,0.919373,-20.172119,-78.674316,68.908691,29.015625
2760,8.020576,-7.398083,-2.882619,-14.190674,-162.689209,71.228027,28.996094
2800,10.515334,-3.596091,-3.423708,23.071289,-30.700684,74.066162,28.974609
2840,10.448297,-0.694318,-2.394202,-157.836914,66.619873,69.824219,29.009766
2880,10.165780,-0.311246,0.991199,-109.008789,12.634277,25.360107,29.007812
2920,8.537724,-0.598550,1.340753,-203.308105,-12.390137,27.587891,29.005859
2960,8.303091,0.076614,-0.181959,-142.120361,-32.104492,7.781982,29.005859
3000,9.011775,-0.416591,-1.182736,39.459229,-80.535889,-17.913818,29.007812
3040,9.184157,-0.675165,-0.905008,60.516357,-73.181152,-21.667480,29.000000
3080,9.035717,0.244209,-0.895431,120.056152,-41.748047,-35.278320,29.011719
3120,10.256760,-0.632069,-1.685518,67.443848,-37.292480,-20.019531,29.039062
3160,11.812991,-1.704672,-4.228160,-47.515869,-49.926758,-6.469727,29.025391
3200,14.159308,-2.221819,0.670376,-180.664062,-43.029785,15.380859,29.041016
3240,14.834474,-0.383072,3.691859,100.372314,103.088379,-37.689209,29.035156
3280,12.301409,0.881066,2.173935,-39.154053,197.113037,-28.198242,29.017578
3320,11.152191,-4.726154,-0.919373,89.294434,122.314453,-1.525879,29.025391
3360,11.161768,-7.335834,-3.854665,127.655029,106.719971,7.263184,29.041016
3400,10.855310,-3.074155,-2.164358,149.963379,86.181641,-35.095215,29.031250
3440,10.520123,1.618480,-1.115698,143.890381,1.403809,-112.640381,29.033203
3480,7.915231,0.196325,-0.608127,-125.732422,79.956055,-74.249268,29.031250
3520,5.980716,-0.766145,-1.675941,-81.085205,86.547852,-64.971924,29.046875
3560,4.237737,-1.733402,-1.082179,-62.713623,9.918213,-30.609131,29.125000
3600,3.538630,-2.389413,0.363919,-41.656494,-52.947998,5.554199,29.138672
3640,4.735731,-2.149993,2.537854,-76.263428,-24.780273,24.078369,29.144531
3680,12.387600,1.982399,7.900866,88.073730,-6.500244,-21.514893,29.138672
3720,17.075447,7.513005,8.585608,-48.339844,18.402100,-15.625000,29.156250
3760,10.534488,2.422932,3.720589,-53.741455,-38.085938,-6.774902,29.158203
3800,10.026917,-3.643975,-1.747767,101.989746,-44.097900,50.109863,29.166016
3840,9.370906,-6.282385,-0.531513,131.256104,-79.742432,43.121338,29.146484
3880,7.517793,-6.684611,-2.576161,11.108398,-194.396973,93.505859,29.146484
3920,10.342952,-4.601655,-3.529053,66.101074,-124.298096,74.157715,29.132812
3960,10.218452,-2.020706,-3.265691,-30.975342,-16.265869,79.376221,29.148438
4000,10.266336,-0.057461,-2.020706,-85.968018,127.197266,53.100586,29.156250
4040,9.251195,-0.296881,1.383849,-111.297607,-40.313721,22.216797,29.156250
4080,7.651869,-0.512359,1.173159,-180.267334,-16.998291,25.451660,29.166016
4120,7.958326,0.229843,-0.814029,46.600342,-52.520752,-6.439209,29.148438
4160,9.131485,0.622492,-1.101333,84.808350,-64.544678,-12.115479,29.171875
4200,9.696517,0.670376,-1.244985,143.157959,-69.000244,-27.954102,29.175781
4240,10.247183,0.354342,-1.403002,39.825439,-60.638428,-16.143799,29.158203
4280,11.377247,-1.465251,-2.370260,-6.011963,-38.238525,-13.427734,29.160156
4320,13.311762,-1.896208,-1.972822,-129.577637,-83.862305,-0.396729,29.154297
4360,15.466543,-0.905008,4.606444,123.931885,102.142334,-41.381836,29.156250
4400,12.852075,1.249773,2.576161,-6.469727,200.317383,-47.515869,29.177734
4440,11.578360,-3.074155,-1.407791,39.550781,160.156250,-22.308350,29.195312
4480,12.033257,-6.876147,-3.825934,167.266846,108.093262,10.437012,29.177734
4520,12.229582,-3.323152,-1.853112,171.783447,101.531982,-51.055908,29.177734
4560,11.405977,3.083732,-1.264138,104.583740,-9.796143,-112.365723,29.169922
4600,7.963115,0.435745,-0.292093,-121.795654,78.155518,-48.461914,29.181641
4640,4.491522,-1.527501,-2.375048,-102.386475,65.887451,-62.530518,29.187500
4680,2.700660,-1.795651,-2.346318,-67.169189,8.483887,-28.106689,29.187500
4720,2.542642,-2.542642,-0.948104,-26.824951,-60.668945,0.915527,29.167969
4760,4.458004,-2.940080,1.426944,-81.512451,-24.047852,36.743164,29.181641
4800,14.097059,2.925714,7.891289,41.656494,10.314941,-35.125732,29.201172
4840,17.017986,9.184157,8.212111,-23.620605,3.662109,-14.709473,29.187500
4880,9.083601,1.489193,2.183512,-33.508301,-54.534912,30.334473,29.224609
4920,15.270219,-5.458780,-0.790087,160.675049,-35.583496,74.401855,29.195312
4960,10.079589,-6.751649,-1.838747,-36.041260,-49.835205,33.050537,29.218750
5000,7.244854,-6.775591,-3.998317,-67.382812,-173.095703,110.626221,29.201172
5040,9.773131,-3.457227,-4.707001,-5.340576,49.987793,63.171387,29.220703
5080,10.050858,-1.364695,-3.605668,-140.716553,-8.422852,42.266846,29.191406
5120,9.706094,-1.163582,1.786075,-52.551270,-57.312012,11.199951,29.236328
5160,7.723695,0.450110,2.126051,-207.244873,-12.145996,28.228760,29.208984
5200,7.058106,1.776498,-0.967257,-71.533203,-85.052490,-2.166748,29.205078
5240,8.580819,-0.062249,-1.972822,116.333008,-116.027832,-25.817871,29.203125
5280,10.103531,-1.072602,-1.891419,85.144043,-118.194580,-19.714355,29.232422
5320,10.658986,-0.823605,-0.383072,-68.206787,-23.620605,19.317627,29.214844
5360,12.243947,-0.694318,0.488417,-91.094971,24.932861,14.984131,29.197266
5400,13.359646,0.713472,-0.387861,69.824219,29.571533,-30.822754,29.224609
5440,13.728353,-0.196325,2.135628,60.485840,127.990723,-28.045654,29.236328
5480,12.363658,-0.588974,2.039860,-10.772705,206.481934,-23.315430,29.234375
5520,12.210428,-3.189077,-2.667141,17.944336,145.599365,-22.033691,29.207031
5560,13.737929,-6.282385,-4.228160,287.933350,95.458984,-24.505615,29.339844
5600,12.152967,-3.021482,-1.532289,176.788330,38.421631,-82.702637,29.308594
5640,10.170568,2.341529,-0.627281,34.759521,39.184570,-94.635010,29.314453
5680,7.024588,-0.047884,-1.335965,-98.907471,44.097900,-54.687500,29.318359
5720,4.357447,-1.489193,-2.533065,-104.217529,49.194336,-62.561035,29.322266
5760,3.107674,-1.546654,-1.800440,-68.115234,-23.376465,-29.022217,29.332031
5800,2.873042,-2.920926,-0.469264,-42.602539,-71.411133,10.467529,29.328125
5840,5.027823,-3.892972,1.168370,-116.912842,-58.288574,43.884277,29.332031
5880,15.629349,3.078943,9.447520,71.258545,47.729492,-11.016846,29.332031
5920,17.128119,9.246407,8.916007,-42.816162,0.274658,-19.470215,29.345703
5960,6.703765,2.398990,1.192312,-39.489746,-67.871094,12.756348,29.351562
6000,6.550536,-4.323928,-5.932832,-26.794434,-128.173828,189.392090,29.345703
6040,16.974890,-9.141062,-0.948104,132.873535,-83.892822,57.250977,29.349609
6080,7.354988,-6.598420,-2.719813,-10.772705,-96.343994,-8.544922,29.351562
6120,10.520123,-2.681506,-2.892196,-110.351562,-0.640869,65.002441,29.341797
6160,11.812991,-1.115698,-2.949656,-184.204102,38.146973,50.811768,29.335938
6200,9.662998,-2.011129,-1.446098,-99.304199,-46.508789,6.072998,29.363281
6240,6.780379,-1.168370,0.339977,-134.490967,-86.212158,0.305176,29.341797
6280,6.449979,0.129287,-0.339977,45.318604,-65.734863,-32.562256,29.330078
6320,7.948750,0.588974,-1.158794,184.051514,-51.605225,-45.593262,29.355469
6360,9.385271,0.153229,-1.877054,211.547852,-77.484131,-42.327881,29.378906
6400,9.950302,-1.532289,-2.173935,42.449951,-52.185059,12.390137,29.382812
6440,11.669339,-1.154005,-2.437297,-181.762695,-86.090088,36.010742,29.359375
6480,13.733141,-0.790087,1.058237,-81.054688,-26.733398,-5.615234,29.359375
6520,15.054740,-0.617704,3.222595,49.560547,91.796875,-25.238037,29.361328
6560,13.589489,1.225831,2.461239,44.189453,185.363770,-35.430908,29.378906
6600,11.913548,-1.948880,-0.464475,22.308350,194.305420,-10.498047,29.378906
6640,12.727576,-5.875371,-4.601655,140.686035,134.338379,15.838623,29.380859
6680,13.579912,-4.376601,-2.331953,199.340820,73.944092,-33.020020,29.351562
6720,11.046846,1.288081,-1.431733,114.593506,58.502197,-86.578369,29.386719
6760,7.771579,0.818817,-1.292869,-28.656006,59.326172,-59.783936,29.369141
6800,4.932055,-0.794875,-2.671929,-70.800781,71.441650,-69.396973,29.365234
6840,3.174711,-0.995988,-2.312799,-92.224121,35.095215,-55.023193,29.363281
6880,3.040636,-1.580173,-0.842759,-53.100586,-53.253174,-8.087158,29.363281
6920,4.094085,-2.796427,1.029507,-78.216553,-71.350098,35.369873,29.363281
6960,12.186486,0.383072,8.140285,55.328369,45.074463,42.877197,29.369141
7000,18.420988,7.661446,10.620679,-42.724609,32.379150,-35.858154,29.380859
7040,9.466674,2.365471,4.252102,-101.898193,-64.666748,-1.953125,29.392578
7080,8.303091,-3.998317,-4.582502,38.421631,-70.770264,92.926025,29.380859
7120,13.254301,-7.086837,-1.240196,128.021240,-74.035645,51.910400,29.388672
7160,7.795521,-6.617573,-2.442086,-15.686035,-178.070068,38.574219,29.371094
7200,9.782708,-4.276044,-3.050213,9.490967,-77.667236,71.899414,29.371094
7240,9.682152,-2.384625,-3.074155,-32.714844,52.307129,55.603027,29.414062
7280,9.725247,-0.933739,-3.509900,-125.244141,-83.099365,17.456055,29.394531
7320,8.992621,0.134075,1.556231,1.464844,-80.871582,1.220703,29.404297
7360,7.560889,0.603339,1.264138,-128.906250,-33.752441,8.300781,29.410156
7400,8.121132,0.081403,-0.881066,47.729492,-80.261230,-13.580322,29.419922
7440,9.174581,0.359130,-1.350330,89.599609,-80.078125,-19.256592,29.398438
7480,9.418790,-0.205901,-1.465251,123.626709,-82.672119,-23.284912,29.410156
7520,10.630256,-0.976834,-1.417367,15.167236,-34.637451,-1.129150,29.488281
7560,12.191275,-0.632069,-2.092532,-54.016113,-7.476807,-9.307861,29.501953
7600,14.618996,-0.521936,0.780510,-105.377197,23.803711,-15.197754,29.480469
7640,15.385140,-0.153229,3.313575,153.594971,157.318115,-56.213379,29.515625
7680,12.315774,-1.197101,1.187524,-65.979004,224.975586,-19.714355,29.500000
7720,11.765107,-5.789180,-3.998317,92.010498,117.340088,15.075684,29.501953
7760,13.335704,-5.190629,-2.628834,156.494141,154.632568,2.990723,29.505859
7800,12.267890,1.168370,-1.383849,165.039062,34.484863,-76.171875,29.488281
7840,8.968679,0.794875,-0.962469,-78.430176,135.437012,-61.340332,29.515625
7880,5.612009,-0.560243,-2.245761,-89.721680,64.025879,-66.101074,29.503906
7920,2.925714,-2.370260,-2.279280,-80.200195,-43.609619,-56.152344,29.500000
7960,2.489970,-2.312799,-1.235408,-52.215576,-38.299561,-16.998291,29.505859
8000,3.658340,-2.647987,1.115698,-69.519043,-59.783936,17.364502,29.513672
8040,10.975020,0.100556,7.067683,25.482178,28.045654,19.348145,29.509766
8080,18.023550,6.330269,10.678140,-7.110596,-28.594971,-27.069092,29.533203
8120,10.601525,2.561796,4.898537,-101.287842,-46.112061,5.584717,29.517578
8160,10.951078,-1.163582,-3.591303,129.150391,-34.912109,38.787842,29.529297
8200,10.295067,-6.052542,-1.010353,78.338623,-63.476562,36.590576,29.521484
8240,5.856217,-8.384495,-2.312799,-1.190186,-180.267334,41.107178,29.539062
8280,9.931149,-5.554548,-3.821146,46.142578,-85.784912,92.987061,29.515625
8320,11.573571,-0.962469,-3.816358,-106.079102,48.156738,61.065674,29.515625
8360,10.749966,0.770933,-0.287304,-67.657471,-48.858643,20.385742,29.544922
8400,8.245630,0.205901,2.288857,-188.385010,-37.078857,27.465820,29.531250
8440,6.646304,0.775721,0.383072,-149.871826,-22.216797,0.061035,29.539062
8480,7.647080,0.574608,-1.340753,101.043701,-125.305176,-22.216797,29.531250
8520,9.342175,-0.354342,-1.163582,101.013184,-92.773438,-13.641357,29.541016
8560,10.194510,0.052672,-1.666364,133.178711,-68.756104,-25.024414,29.535156
8600,11.722012,-0.301669,-2.801216,20.751953,-53.649902,-4.028320,29.500000
8640,14.039598,-0.191536,0.751779,-249.206543,-29.113770,19.165039,29.535156
8680,15.950171,0.210690,3.782839,71.502686,130.889893,-40.618896,29.515625
8720,13.934254,1.369483,1.944092,-20.660400,218.963623,-42.785645,29.560547
8760,12.928689,-3.960010,-3.327940,34.637451,154.754639,-4.241943,29.544922
8800,14.073117,-8.087613,-3.035848,221.435547,141.693115,20.629883,29.525391
8840,11.918336,-5.032612,-1.249773,138.916016,138.092041,-35.430908,29.566406
8880,9.246407,0.593762,-2.078167,70.739746,96.527100,-69.976807,29.550781
8920,7.441179,0.746991,-1.896208,-91.583252,102.935791,-61.401367,29.539062
8960,4.520253,-1.628057,-2.944868,-85.174561,77.636719,-99.395752,29.554688
9000,1.556231,-2.217031,-1.671153,-49.713135,-15.869141,-39.184570,29.541016
9040,1.422156,-2.858677,0.162806,-54.748535,-71.899414,11.749268,29.552734
9080,5.458780,-1.829170,3.337517,-47.515869,-123.535156,11.810303,29.552734
9120,19.857510,7.038953,12.785037,-9.979248,15.899658,-10.467529,29.554688
9160,12.670115,4.558560,8.149862,-106.689453,-15.777588,-5.096436,29.574219
9200,4.850653,-0.857124,-1.934515,54.931641,-74.035645,64.056396,29.546875
9240,14.762648,-8.111555,-3.260903,194.702148,-99.853516,69.763184,29.550781
9280,9.050082,-8.001422,-4.754885,6.591797,-114.624023,11.413574,29.564453
9320,9.605537,-4.754885,-3.418920,-116.973877,-130.493164,95.336914,29.580078
9360,11.391612,-0.703895,-3.351882,-90.240479,30.517578,76.385498,29.560547
9400,10.323798,-0.158017,-4.290410,-219.024658,-37.170410,48.461914,29.570312
9440,8.178593,-2.183512,-0.656011,-5.187988,-14.434814,-3.051758,29.568359
9480,6.296751,-0.670376,1.039083,-111.602783,-153.137207,6.439209,29.566406
9520,6.895301,-0.373495,0.651223,-87.738037,33.020020,16.387939,29.642578
9560,9.548077,-2.202666,-0.598550,127.197266,186.676025,4.150391,29.648438
9600,9.433155,-2.422932,-1.115698,79.162598,-174.102783,16.082764,29.642578
9640,12.234370,0.172383,-0.545878,-32.775879,-113.464355,-17.669678,29.632812
9680,12.789825,2.293645,1.101333,74.279785,-164.123535,-53.131104,29.664062
9720,14.058752,-0.574608,4.276044,21.545410,42.968750,-51.391602,29.671875
9760,13.742718,-3.260903,2.844312,111.938477,173.431396,-35.125732,29.667969
9800,12.435484,-1.580173,-2.595315,-39.642334,239.135742,-21.667480,29.656250
9840,13.546393,-4.553771,-4.299986,122.344971,167.541504,11.505127,29.646484
9880,12.986150,-6.306327,-0.708684,280.334473,98.602295,-23.834229,29.679688
9920,10.012551,-0.785298,-1.632846,141.845703,37.994385,-85.083008,29.673828
9960,7.862558,0.387861,-1.249773,-85.571289,116.973877,-60.516357,29.683594
10000,5.549759,-0.469264,-2.346318,-106.231689,57.556152,-81.909180,29.652344
10040,3.993528,-1.321599,-2.308010,-82.092285,-30.853271,-75.805664,29.671875
10080,2.729390,-3.189077,-0.967257,-62.316895,-40.649414,-25.970459,29.681641
10120,4.702212,-2.940080,1.201889,-85.327148,-88.073730,27.893066,29.679688
10160,15.174450,4.127604,11.003751,139.984131,-19.561768,-80.810547,29.683594
10200,15.049952,7.350199,8.844181,-62.988281,15.411377,-31.829834,29.667969
10240,10.687716,0.938527,0.952892,33.843994,-98.907471,40.466309,29.673828
10280,13.306973,-4.635174,-0.972046,108.184814,7.110596,60.577393,29.681641
10320,7.987057,-6.162675,-1.273715,-60.638428,-11.444092,128.295898,29.685547
10360,11.046846,-5.746084,-2.288857,-115.447998,-36.682129,125.976562,29.683594
10400,9.591172,-2.614468,-3.246537,-35.888672,-103.546143,91.186523,29.693359
10440,9.217676,-0.521936,-4.817134,50.598145,-115.295410,-16.418457,29.679688
10480,8.604761,0.809240,-3.141193,-55.664062,-121.368408,27.679443,29.679688
10520,7.675811,-1.819593,1.671153,59.204102,-68.603516,24.536133,29.703125
10560,7.527370,-1.101333,1.498770,-85.754395,-159.393311,23.498535,29.705078
10600,9.107543,-1.005565,-1.063026,41.900635,-101.684570,1.647949,29.685547
10640,10.280702,-0.560243,-0.952892,-32.806396,1.098633,9.185791,29.701172
10680,10.960655,-0.363919,0.181959,-43.640137,-38.787842,1.281738,29.695312
10720,11.755530,-0.995988,-2.370260,17.272949,-64.636230,-23.162842,29.697266
10760,12.679692,-0.952892,-4.582502,82.702637,2.227783,-41.229248,29.703125
10800,13.867216,-1.422156,1.872266,193.542480,128.631592,-64.758301,29.712891
10840,12.617443,-0.311246,2.571373,2.349854,173.095703,-53.588867,29.707031
10880,11.616667,-2.006341,-2.135628,7.110596,191.040039,-32.989502,29.722656
10920,11.664551,-5.774815,-3.179500,220.489502,138.885498,-107.696533,29.705078
10960,12.028469,-4.170700,-0.186748,196.380615,80.505371,-80.169678,29.728516
11000,10.065224,-0.952892,-0.708684,53.833008,44.799805,-68.237305,29.716797
11040,6.732495,-0.105345,-1.546654,-13.092041,8.056641,-77.423096,29.714844
11080,4.673482,-0.699107,-2.054225,-93.414307,-26.184082,-89.294434,29.718750
11120,3.921702,-2.087744,-1.551443,-87.005615,-36.956787,-42.877197,29.705078
11160,4.999093,-2.748544,0.220267,-78.491211,-57.312012,27.740479,29.720703
11200,7.905654,-1.733402,3.409343,-49.438477,7.415771,81.207275,29.703125
11240,14.820108,6.004658,9.734824,81.909180,3.051758,-73.028564,29.701172
11280,14.652514,8.197746,7.335834,-72.479248,33.752441,5.279541,29.705078
11320,10.160992,1.407791,-0.526724,-50.384521,-116.485596,110.229492,29.695312
11360,9.720459,-4.098873,-3.241749,-73.791504,45.196533,140.197754,29.728516
11400,10.783484,-5.798757,-0.766145,-61.401367,-133.544922,104.583740,29.718750
11440,9.897630,-5.865794,-1.316811,-19.439697,-12.725830,53.710938,29.707031
11480,8.868123,-4.438850,-5.353435,-70.373535,-11.779785,35.400391,29.802734
11520,8.662222,-2.858677,-5.444415,-146.331787,-117.889404,36.926270,29.804688
11560,8.293514,-2.154782,-0.004788,-114.532471,-37.292480,39.031982,29.787109
11600,6.114791,-1.857901,2.149993,42.724609,93.750000,-22.125244,29.804688
11640,6.167464,-0.967257,-0.881066,81.970215,-100.494385,-9.582520,29.822266
11680,9.174581,-0.047884,-2.935291,-48.583984,-96.710205,13.214111,29.796875
11720,11.271901,-0.090980,-0.043096,-76.141357,-73.455811,13.824463,29.812500
11760,11.674128,-1.096544,1.886631,22.552490,-32.836914,1.159668,29.832031
11800,12.152967,-2.087744,-1.498770,55.358887,-33.691406,-15.075684,29.820312
11840,13.579912,-1.498770,-3.117251,4.028320,-41.320801,-21.118164,29.812500
11880,14.681245,-0.454898,3.840300,237.823486,96.008301,-63.293457,29.816406
11920,13.105860,-0.842759,2.580950,71.044922,204.406738,-66.223145,29.845703
11960,10.946290,-2.820370,-2.231396,-31.585693,161.468506,-47.332764,29.835938
12000,11.295844,-3.993528,-3.136404,172.729492,119.140625,-82.977295,29.810547
12040,12.263102,-2.571373,-1.297657,203.552246,51.330566,-98.327637,29.835938
12080,9.763555,-0.095768,-0.852336,-15.899658,58.227539,-70.220947,29.816406
12120,6.402095,0.225055,-1.675941,-61.523438,28.747559,-87.371826,29.824219
12160,4.266468,-1.192312,-2.082955,-103.973389,-13.610840,-74.981689,29.845703
12200,4.113238,-2.916138,-1.503559,-90.850830,-58.624268,-14.068604,29.857422
12240,5.027823,-3.816358,0.857124,-111.389160,-4.364014,101.562500,29.837891
12280,9.552865,-0.478840,5.262455,-66.253662,6.988525,52.673340,29.859375
12320,16.031574,6.607996,9.040505,72.448730,-39.550781,-137.298584,29.845703
12360,13.646950,4.893748,6.603208,-86.730957,76.324463,17.211914,29.837891
12400,10.611102,0.430956,-1.762132,-89.752197,34.210205,140.289307,29.845703
12440,10.582372,-2.149993,-3.021482,-133.941650,-142.883301,121.734619,29.853516
12480,10.745177,-4.869806,0.110133,-39.489746,-165.161133,-31.890869,29.859375
12520,7.814674,-7.599196,-0.517148,-3.021240,-52.429199,13.397217,29.845703
12560,6.406884,-6.871359,-3.557784,8.789062,19.165039,100.341797,29.871094
12600,8.279149,-3.433285,-3.873818,-82.550049,-2.197266,87.066650,29.845703
12640,8.997410,-0.852336,-0.545878,-162.109375,-65.307617,24.475098,29.857422
12680,7.493851,-0.009577,2.011129,-7.843018,-48.156738,5.249023,29.867188
12720,6.698977,-1.288081,-0.545878,65.032959,-84.045410,1.068115,29.853516
12760,8.772355,-1.987187,-2.873042,-80.108643,-111.419678,7.080078,29.869141
12800,11.224017,-0.392649,-0.057461,-68.054199,-77.636719,5.401611,29.859375
12840,11.927913,-0.751779,1.355118,54.443359,-25.787354,-8.270264,29.861328
12880,12.785037,-1.508347,-2.260126,32.592773,-23.590088,-31.097412,29.869141
12920,14.053964,-1.130063,-2.528277,-29.724121,-5.493164,-22.247314,29.882812
12960,14.322115,-2.011129,4.314352,254.913330,101.287842,-72.875977,29.884766
13000,12.401965,-2.944868,2.911349,80.566406,187.011719,-55.572510,29.861328
13040,10.749966,-4.094085,-2.006341,-58.105469,178.161621,-8.270264,29.876953
13080,11.631032,-5.449203,-2.145205,247.924805,91.125488,-82.672119,29.888672
13120,11.616667,-3.471592,-0.890643,187.927246,57.281494,-86.517334,29.884766
13160,8.667010,-1.192312,-1.575385,14.221191,55.664062,-78.247070,29.888672
13200,5.506664,-0.761356,-2.269703,-42.694092,13.153076,-101.501465,29.869141
13240,3.830723,-1.383849,-1.762132,-82.153320,-4.730225,-69.335938,29.888672
13280,4.007894,-2.006341,-0.263362,-66.650391,-23.742676,-4.333496,29.894531
13320,5.276821,-2.255338,1.632846,-81.359863,-1.586914,78.186035,29.892578
13360,11.224017,1.747767,8.451532,1.800537,-18.066406,-41.992188,29.884766
13400,15.921441,6.603208,9.059659,-4.974365,-4.943848,-66.253662,29.892578
13440,12.411542,2.987964,5.310339,-67.596436,51.574707,72.540283,29.888672
13480,9.543288,-0.387861,-3.816358,32.806396,-30.456543,214.111328,29.996094
13520,11.171345,-4.477157,-0.804452,-12.329102,-178.131104,-80.230713,29.960938
13560,9.126697,-7.465121,0.387861,-6.927490,-76.599121,54.718018,29.986328
13600,8.590396,-5.573701,-1.086968,-6.835938,-8.392334,78.308105,29.976562
13640,8.604761,-3.184288,-4.304775,-55.419922,6.958008,91.979980,29.972656
13680,8.997410,-1.470040,-4.122815,-93.444824,-82.183838,51.605225,30.003906
13720,8.236053,-0.493206,0.478840,-92.437744,-117.950439,-18.371582,29.994141
13760,6.430826,-0.775721,2.552219,48.431396,-64.910889,-7.049561,29.994141
13800,6.775591,-1.939303,-0.890643,40.008545,-36.376953,41.961670,29.976562
13840,10.127473,-0.895431,-2.217031,-40.954590,-83.740234,8.850098,29.974609
13880,11.702858,-0.124498,0.957681,3.997803,-45.928955,-5.523682,29.996094
13920,12.258312,-0.914585,0.244209,22.766113,0.762939,-13.122559,29.988281
13960,13.053187,-1.575385,-3.524265,16.510010,-26.123047,-11.291504,29.986328
14000,13.053187,-2.116474,0.000000,-64.910889,2.197266,-19.226074,29.990234
14040,13.570335,-0.866701,5.803545,157.928467,132.263184,-32.012939,29.990234
14080,12.349293,-1.101333,0.076614,-43.731689,172.851562,-27.130127,29.998047
14120,11.597513,-3.940856,-3.567361,23.254395,146.484375,-27.801514,29.998047
14160,12.947843,-4.228160,-3.126827,249.572754,77.087402,-83.587646,29.970703
14200,11.678916,-1.805228,-0.794875,75.592041,82.031250,-78.979492,30.003906
14240,7.603985,-0.675165,-1.776498,-31.372070,56.976318,-97.656250,30.005859
14280,4.223372,-0.656011,-2.734178,-64.544678,27.465820,-84.381104,30.000000
14320,3.342306,-1.292869,-2.590526,-91.369629,11.077881,-50.964355,30.003906
14360,4.074931,-2.983175,-1.278504,-81.054688,-21.667480,10.498047,29.998047
14400,6.191406,-3.672705,1.182736,-90.789795,-44.036865,87.402344,30.003906
14440,14.460979,2.767697,10.007763,94.299316,-15.930176,-133.789062,30.005859
14480,15.734694,7.268796,8.772355,-43.701172,35.736084,1.434326,30.023438
14520,12.263102,2.633622,2.255338,-0.030518,0.976562,108.551025,30.017578
14560,10.649409,-1.259350,-3.983952,-30.883789,-97.442627,92.285156,30.017578
14600,10.050858,-4.726154,-1.082179,-82.183838,-122.558594,-72.906494,30.015625
14640,7.982268,-7.785944,-0.919373,50.018311,-85.388184,23.956299,30.003906
14680,7.852982,-6.378153,-2.983175,-4.425049,-6.805420,79.864502,30.019531
14720,8.968679,-2.858677,-3.538630,-39.428711,-22.521973,92.224121,30.015625
14760,8.892065,-0.852336,-1.431733,-134.460449,-67.596436,42.724609,30.000000
14800,7.383718,0.057461,1.422156,0.915527,-55.236816,10.925293,30.037109
14840,6.368577,-0.430956,-0.325611,85.327148,-59.539795,40.008545,30.023438
14880,7.891289,-1.067814,-2.331953,16.510010,-54.534912,49.285889,30.023438
14920,10.831368,-0.770933,-1.398214,-62.835693,-73.944092,8.941650,30.035156
14960,12.349293,-0.502782,0.909797,-27.465820,-18.829346,-9.246826,30.003906
15000,13.330915,-0.727837,-0.608127,31.677246,-18.493652,-23.803711,30.035156
15040,13.632585,-1.273715,-1.316811,24.841309,-12.207031,-28.106689,30.029297
15080,13.623008,-2.082955,2.978387,34.179688,56.121826,-30.029297,30.033203
15120,12.890382,-2.082955,4.132392,125.152588,167.663574,-21.881104,30.027344
15160,11.640609,-3.940856,-2.403779,-32.745361,171.447754,-18.737793,30.021484
15200,10.860099,-5.731719,-3.256114,178.833008,89.477539,-48.614502,30.048828
15240,10.611102,-4.371812,-0.378284,193.145752,62.835693,-65.063477,30.048828
15280,8.561666,-1.268927,-1.465251,51.483154,64.788818,-70.220947,30.050781
15320,6.062119,0.287304,-2.121263,-6.195068,17.028809,-90.515137,30.044922
15360,4.405331,-0.181959,-2.059013,-75.103760,10.284424,-73.791504,30.052734
15400,4.400543,-1.599327,-1.086968,-65.032959,-20.996094,-18.493652,30.044922
15440,5.348647,-2.868254,0.526724,-70.892334,-24.261475,59.417725,30.093750
15480,8.686164,-1.608904,4.826711,-44.525146,5.279541,34.881592,30.126953
15520,16.050728,5.760449,11.094730,69.946289,-19.195557,-141.571045,30.134766
15560,14.700398,5.262455,7.838616,-61.767578,62.988281,35.278320,30.125000
15600,11.214440,0.454898,-3.002329,34.210205,-7.781982,154.052734,30.113281
15640,10.745177,-3.533842,-2.183512,-86.914062,-114.990234,-77.453613,30.144531
15680,8.595184,-7.015011,-0.565032,73.333740,-133.850098,11.077881,30.121094
15720,8.422802,-5.966351,-2.489970,3.051758,-68.634033,45.196533,30.136719
15760,8.384495,-3.921702,-3.552995,-25.238037,-23.834229,86.547852,30.128906
15800,9.011775,-1.383849,-2.365471,-54.199219,-65.429688,74.890137,30.146484
15840,8.236053,0.474052,0.469264,-60.974121,-68.450928,20.446777,30.154297
15880,6.698977,0.651223,1.082179,59.387207,-60.882568,9.704590,30.140625
15920,6.512228,-1.096544,-1.216254,77.392578,-55.633545,56.823730,30.126953
15960,9.246407,-0.790087,-1.733402,38.513184,-38.879395,66.040039,30.134766
16000,12.038046,0.095768,0.110133,-16.387939,-26.306152,13.793945,30.134766
16040,13.412318,-0.421380,-0.023942,-4.119873,-4.547119,-4.974365,30.136719
16080,13.977349,-0.986411,-2.011129,-14.923096,-12.420654,-15.319824,30.150391
16120,13.752295,-1.810017,1.810017,-80.535889,60.852051,-26.672363,30.136719
16160,13.512875,-0.627281,5.712565,141.265869,145.355225,-31.463623,30.144531
16200,12.622231,-1.259350,-0.320823,51.055908,168.731689,-43.640137,30.140625
16240,11.492168,-5.023035,-4.702212,86.517334,107.757568,-56.518555,30.125000
16280,11.458650,-4.888960,-0.229843,190.399170,70.800781,-69.244385,30.154297
16320,10.223241,-0.828394,-1.292869,29.998779,56.060791,-77.178955,30.154297
16360,6.957550,0.119710,-2.303222,-39.215088,36.560059,-97.625732,30.146484
16400,4.242526,-1.244985,-2.643199,-117.187500,26.000977,-81.481934,30.134766
16440,3.806781,-2.298434,-1.814805,-92.254639,-8.209229,-31.524658,30.140625
16480,4.568137,-3.500323,0.229843,-92.346191,-3.082275,48.461914,30.162109
16520,7.766790,-2.140416,4.764462,-86.975098,-17.395020,59.387207,30.150391
16560,15.509639,4.960786,10.376471,56.549072,-46.936035,-107.238770,30.158203
16600,15.006856,5.114015,7.833828,-83.709717,58.135986,1.983643,30.140625
16640,12.143391,1.637634,-0.459687,85.388184,30.944824,99.243164,30.152344
16680,10.970232,-2.035071,-2.269703,-88.989258,-113.647461,-24.932861,30.150391
16720,8.887277,-5.635951,-0.746991,81.085205,-133.300781,-4.943848,30.164062
16760,8.188169,-6.478710,-2.796427,7.049561,-108.276367,28.533936,30.166016
16800,7.963115,-5.090073,-2.925714,-42.938232,-19.927979,88.317871,30.166016
16840,8.599973,-2.552219,-2.044648,-59.478760,-46.386719,102.935791,30.166016
16880,8.097190,-0.349553,0.732626,-83.496094,-60.913086,32.745361,30.156250
16920,6.445191,-0.110133,1.805228,47.363281,-22.521973,45.593262,30.156250
16960,6.560112,-1.862689,-0.512359,117.553711,37.536621,117.279053,30.164062
17000,11.089942,-0.325611,-3.155558,-109.527588,-84.808350,8.026123,30.169922
17040,12.583924,0.756568,0.627281,-62.377930,-24.230957,6.927490,30.160156
17080,11.745954,-1.130063,2.810793,52.459717,-22.430420,2.075195,30.166016
17120,12.938266,-2.470816,-1.168370,27.496338,-26.885986,-10.009766,30.166016
17160,13.445837,-2.087744,0.287304,-16.448975,-79.498291,-4.211426,30.187500
17200,13.306973,-1.417367,5.142745,118.499756,112.304688,-46.569824,30.171875
17240,12.023681,-1.206678,1.853112,68.481445,178.710938,-60.058594,30.179688
17280,11.631032,-3.327940,-2.705448,48.004150,168.060303,-55.236816,30.166016
17320,11.951855,-5.875371,-1.503559,241.546631,0.427246,-67.199707,30.181641
17360,10.726024,-3.907337,0.138864,109.130859,47.271729,-71.228027,30.173828
17400,7.762002,-1.115698,-1.091756,11.138916,45.043945,-76.904297,30.177734
17440,4.932055,-0.861913,-2.140416,-65.429688,17.059326,-94.085693,30.255859
17480,3.605668,-1.666364,-1.719037,-91.094971,-5.584717,-53.985596,30.267578
17520,4.309563,-2.413355,-0.009577,-76.110840,-13.183594,13.885498,30.281250
17560,6.062119,-2.767697,2.695871,-121.154785,6.134033,82.336426,30.257812
17600,12.971785,3.366248,9.461885,6.835938,-33.447266,-97.534180,30.251953
17640,15.945383,7.125144,7.948750,-28.228760,52.398682,-27.252197,30.257812
17680,12.248735,2.231396,2.973598,37.139893,14.099121,93.353271,30.255859
17720,10.697293,-1.723825,-2.676718,-59.234619,-111.663818,48.706055,30.269531
17760,9.366117,-5.147533,1.173159,-0.823975,-72.814941,-43.395996,30.259766
17800,8.307879,-6.770802,-0.756568,45.257568,-99.761963,30.731201,30.273438
17840,8.398860,-5.975927,-2.681506,-30.975342,-15.350342,79.650879,30.271484
17880,9.155427,-3.888184,-2.657564,-45.196533,-11.566162,116.119385,30.275391
17920,9.600749,-0.684742,-0.057461,-65.216064,-64.239502,61.279297,30.269531
17960,7.699753,0.809240,2.566584,-11.871338,-50.506592,13.336182,30.257812
18000,5.784391,-0.914585,0.713472,49.804688,-46.539307,36.468506,30.283203
18040,7.115568,-2.394202,-1.790863,-7.843018,-48.919678,56.518555,30.279297
18080,10.687716,-0.565032,-0.675165,-74.798584,-77.087402,18.615723,30.285156
18120,12.167333,0.258574,1.719037,-25.085449,-22.277832,-0.915527,30.294922
18160,13.062764,-1.106121,-0.272939,16.632080,-23.498535,-10.620117,30.292969
18200,13.637373,-1.302446,-1.072602,-23.010254,-12.023926,-10.528564,30.285156
18240,13.378799,-0.928950,4.285621,14.160156,27.282715,-25.054932,30.279297
18280,12.737153,-0.732626,4.496311,135.375977,173.614502,-48.065186,30.281250
18320,11.722012,-3.682282,-2.011129,5.035400,166.076660,-61.370850,30.304688
18360,11.942278,-6.636727,-2.121263,154.907227,43.395996,-63.629150,30.294922
18400,11.635820,-5.358223,-0.009577,152.496338,45.928955,-45.349121,30.285156
18440,9.294291,-0.809240,-1.158794,36.651611,53.985596,-60.638428,30.296875
18480,6.253655,0.684742,-1.580173,-33.782959,34.271240,-92.773438,30.302734
18520,3.394978,-1.115698,-1.829170,-90.393066,12.573242,-64.208984,30.294922
18560,3.169923,-2.336741,-1.106121,-86.059570,-20.629883,-18.035889,30.312500
18600,4.592079,-3.586514,0.976834,-91.613770,-21.240234,63.873291,30.306641
18640,9.911995,-1.115698,7.359776,-55.084229,-49.743652,-14.282227,30.310547
18680,17.190369,7.766790,9.797073,55.145264,12.878418,-83.679199,30.310547
18720,14.628572,4.568137,5.377377,-1.342773,36.010742,88.104248,30.316406
18760,12.081141,-0.976834,-3.356671,-7.629395,-73.669434,74.584961,30.310547
18800,9.667787,-5.382165,0.469264,-43.334961,-74.188232,-58.135986,30.328125
18840,7.809886,-7.259220,-1.082179,26.092529,-91.369629,25.238037,30.316406
18880,7.848193,-6.234501,-2.844312,-48.767090,-12.817383,67.138672,30.320312
18920,8.595184,-4.548983,-2.806004,-61.370850,-17.578125,100.555420,30.310547
18960,9.026140,-1.565808,-0.043096,-78.002930,-60.241699,64.300537,30.318359
19000,7.685388,0.296881,1.857901,-29.785156,-62.438965,8.117676,30.328125
19040,5.923255,-0.814029,0.440533,78.216553,-48.187256,52.368164,30.332031
19080,7.594408,-1.972822,-2.437297,-35.675049,-59.234619,37.933350,30.324219
19120,11.042058,-1.134852,-1.149217,-70.220947,-118.011475,14.282227,30.318359
19160,12.890382,0.172383,1.776498,-14.282227,-37.841797,0.701904,30.333984
19200,13.824121,-0.114922,0.536301,27.923584,-17.974854,-6.927490,30.318359
19240,13.388376,-1.948880,0.239420,-22.277832,-3.051758,-19.287109,30.339844
19280,13.211205,-1.690306,3.567361,64.880371,67.413330,-27.221680,30.328125
19320,12.382812,-0.828394,2.537854,106.384277,150.146484,-43.914795,30.330078
19360,11.434708,-2.442086,-1.589750,50.323486,148.254395,-49.926758,30.306641
19400,11.496957,-5.549759,-2.973598,127.746582,67.901611,-54.168701,30.392578
19440,11.789049,-3.988740,-0.675165,186.218262,36.560059,-68.145752,30.400391
19480,9.734824,-0.608127,-1.048660,23.101807,47.058105,-75.500488,30.408203
19520,6.406884,-0.225055,-1.685518,-40.893555,27.740479,-90.728760,30.427734
19560,4.094085,-1.527501,-1.771709,-115.661621,23.529053,-68.695068,30.410156
19600,4.328717,-2.351106,-1.077391,-97.290039,-4.577637,-10.345459,30.398438
19640,4.941632,-3.337517,0.646434,-96.130371,5.920410,83.831787,30.412109
19680,7.570466,-2.269703,4.098873,-117.065430,2.166748,90.484619,30.429688
19720,15.720328,4.520253,10.251971,81.573486,-30.761719,-163.055420,30.408203
19760,14.810532,4.582502,7.019799,-62.957764,87.432861,19.592285,30.417969
19800,12.167333,0.421380,-3.145981,29.937744,15.441895,132.995605,30.408203
19840,10.936713,-3.734955,1.661576,-24.169922,-46.051025,-51.696777,30.425781
19880,8.169016,-8.269572,-0.378284,23.773193,-110.351562,17.211914,30.414062
19920,7.900866,-7.570466,-1.398214,-8.483887,-115.234375,30.487061,30.419922
19960,7.709330,-6.143522,-1.470040,25.299072,23.559570,118.896484,30.437500
20000,9.011775,-3.294421,-2.298434,-22.888184,-41.625977,96.221924,30.445312
20040,8.647857,-0.493206,0.023942,-54.626465,-78.918457,22.552490,30.449219
20080,7.422025,-0.067038,1.144428,26.916504,-54.229736,17.486572,30.429688
20120,7.881712,-0.330400,-0.210690,-22.521973,-48.950195,9.063721,30.451172
20160,9.586384,-0.033519,-0.957681,-47.363281,-69.213867,11.322021,30.441406
20200,10.898406,-0.143652,0.378284,-12.664795,-54.779053,14.678955,30.419922
20240,11.750742,-1.168370,0.766145,12.878418,-30.151367,-3.051758,30.457031
20280,12.966996,-2.039860,-0.814029,-5.340576,-20.721436,-6.164551,30.416016
20320,13.943830,-1.503559,3.299210,30.944824,-35.461426,-19.165039,30.457031
20360,14.135366,-0.694318,4.127604,98.815918,158.111572,-44.891357,30.443359
20400,12.646173,-1.063026,0.292093,98.571777,174.621582,-49.804688,30.451172
20440,11.520899,-5.003881,-3.208230,104.614258,120.422363,-65.856934,30.421875
20480,10.960655,-6.694188,-1.613692,150.299072,23.681641,-60.852051,30.457031
20520,10.726024,-2.398990,-0.588974,89.447021,40.435791,-62.347412,30.460938
20560,8.647857,0.651223,-1.446098,-23.956299,30.578613,-102.142334,30.443359
20600,5.003881,-0.478840,-1.704672,-91.552734,26.336670,-80.047607,30.439453
20640,3.208230,-2.149993,-1.675941,-126.434326,4.852295,-36.346436,30.451172
20680,3.806781,-3.533842,-0.770933,-102.111816,-7.690430,35.217285,30.447266
20720,6.258443,-3.763685,0.981623,-125.122070,-16.784668,101.623535,30.458984
20760,13.996503,1.493982,9.552865,61.737061,-29.571533,-138.763428,30.455078
20800,16.199169,6.799533,8.839393,44.586182,47.912598,-17.211914,30.449219
20840,12.291832,2.264915,0.253785,-90.637207,73.028564,152.191162,30.427734
20880,11.204864,-2.279280,-4.276044,-81.054688,-108.337402,3.326416,30.441406
20920,9.212888,-5.980716,2.121263,-22.247314,-58.593750,-50.079346,30.433594
20960,8.030152,-8.887277,0.421380,-10.589600,-110.046387,9.429932,30.455078
21000,7.580042,-7.819463,-1.819593,4.760742,16.052246,96.954346,30.449219
21040,8.657434,-4.783615,-3.284845,4.577637,-30.761719,118.469238,30.462891
21080,9.117120,-1.168370,-1.470040,-85.388184,-98.266602,38.696289,30.455078
21120,7.996634,0.833182,0.727837,-3.845215,-73.425293,21.331787,30.478516
21160,7.948750,0.651223,0.062249,33.477783,-82.122803,18.554688,30.453125
21200,9.021352,-0.541090,-0.349553,-22.369385,-72.082520,17.089844,30.462891
21240,10.199299,-0.852336,1.024718,-9.277344,-49.285889,9.613037,30.455078
21280,11.037270,-1.843535,0.689530,12.878418,-24.047852,-17.333984,30.458984
21320,12.928689,-2.221819,-2.398990,-4.882812,-23.956299,-13.153076,30.464844
21360,14.125790,-1.067814,2.849100,73.791504,-19.592285,-33.355713,30.466797
21400,13.862428,-1.374272,3.485958,67.230225,132.537842,-46.386719,30.562500
21440,12.378023,-2.126051,0.761356,-30.120850,186.981201,-43.487549,30.546875
21480,11.587936,-4.855441,-2.106898,82.794189,150.146484,-46.356201,30.546875
21520,11.765107,-7.158663,-0.986411,254.333496,51.818848,-46.875000,30.556641
21560,10.903194,-4.012682,-0.287304,154.998779,64.056396,-31.158447,30.566406
21600,8.202535,-0.363919,-1.244985,30.273438,43.701172,-50.994873,30.550781
21640,4.879383,-0.019154,-1.436521,-32.257080,27.008057,-71.166992,30.562500
21680,2.791639,-1.388637,-1.283292,-67.626953,-5.371094,-49.652100,30.546875
21720,3.423708,-2.212242,-0.028730,-69.030762,-19.409180,-3.692627,30.556641
21760,5.640739,-2.901772,1.484405,-110.656738,-13.061523,72.296143,30.546875
21800,11.568783,0.675165,8.269572,20.996094,-28.869629,-94.024658,30.556641
21840,16.438589,7.647080,9.955091,23.315430,31.402588,-78.613281,30.562500
21880,13.201628,4.108450,4.386178,-45.684814,56.610107,88.592529,30.548828
21920,9.974244,-1.283292,-3.150769,-98.419189,-27.374268,123.748779,30.546875
21960,10.477027,-5.904101,-0.062249,-51.635742,-195.190430,-128.631592,30.539062
22000,8.834604,-8.437167,0.852336,36.010742,-90.148926,17.547607,30.548828
22040,9.145850,-6.344635,-1.412579,-10.406494,-17.242432,61.218262,30.562500
22080,9.241618,-3.624821,-4.079720,-19.989014,2.929688,96.710205,30.546875
22120,9.504981,-0.976834,-2.935291,-28.289795,-112.304688,47.698975,30.568359
22160,7.675811,0.057461,0.746991,-46.630859,-107.055664,-20.965576,30.582031
22200,5.329493,-1.024718,1.599327,63.201904,-71.594238,-6.011963,30.558594
22240,5.224148,-3.284845,-1.273715,49.072266,-42.877197,82.305908,30.576172
22280,9.414001,-1.513135,-1.340753,-6.347656,-22.399902,63.995361,30.580078
22320,13.436260,0.694318,-0.627281,-65.551758,-52.215576,0.854492,30.595703
22360,14.307750,0.339977,1.149217,47.729492,-25.451660,3.387451,30.603516
22400,13.086706,-1.537078,1.101333,15.319824,11.322021,-24.597168,30.599609
22440,13.072341,-1.900996,1.125275,-17.578125,58.837891,-33.721924,30.583984
22480,13.637373,-0.957681,4.137180,225.677490,163.238525,-80.444336,30.595703
22520,12.866440,-2.260126,-1.934515,-58.288574,162.353516,-26.672363,30.599609
22560,12.842498,-4.850653,-2.806004,179.809570,80.596924,-57.403564,30.605469
22600,12.325351,-2.609680,-0.574608,213.012695,47.637939,-84.136963,30.613281
22640,9.466674,-0.349553,-0.909797,-9.735107,56.274414,-78.338623,30.615234
22680,5.635951,-1.067814,-2.418144,-79.742432,47.454834,-88.714600,30.611328
22720,3.074155,-2.394202,-2.849100,-104.522705,10.589600,-69.183350,30.621094
22760,2.973598,-3.361459,-1.537078,-78.948975,-25.268555,-15.686035,30.621094
22800,4.692636,-4.122815,0.900220,-102.111816,-11.108398,77.728271,30.646484
22840,11.003751,0.445322,7.589619,-73.059082,-7.812500,-20.782471,30.630859
22880,16.874334,7.862558,9.030929,21.423340,7.659912,-65.246582,30.613281
22920,13.129802,4.328717,4.999093,-13.549805,41.931152,94.482422,30.626953
22960,11.401189,-0.483629,-3.026271,-1.892090,-121.917725,69.335938,30.615234
23000,9.830592,-5.070919,-0.172383,-28.076172,-81.970215,-25.848389,30.644531
23040,8.576031,-7.273585,-1.991976,-12.359619,-85.723877,17.883301,30.638672
23080,8.494628,-6.890512,-3.174711,-70.770264,-17.333984,71.502686,30.634766
23120,8.767567,-5.224148,-2.873042,-74.005127,-25.329590,112.762451,30.615234
23160,9.332599,-1.867477,0.019154,-102.569580,-64.575195,55.664062,30.638672
23200,7.718906,-0.229843,2.715025,-68.145752,-35.461426,33.325195,30.632812
23240,6.517017,-0.081403,0.766145,34.240723,-36.254883,18.554688,30.646484
23280,7.694964,-1.024718,-3.351882,-15.838623,-89.782715,10.284424,30.630859
23320,10.204087,-1.489193,-1.857901,-53.863525,-102.539062,7.110596,30.648438
23360,11.583148,-2.336741,0.670376,-35.797119,-42.175293,16.326904,30.640625
23400,13.177686,-0.641646,-0.258574,9.887695,-32.958984,4.455566,30.638672
23440,13.934254,0.416591,1.019930,162.567139,-44.158936,-35.339355,30.640625
23480,14.331692,0.368707,2.504335,90.759277,82.611084,-55.755615,30.644531
23520,12.789825,-0.632069,2.226608,70.251465,181.427002,-50.994873,30.642578
23560,10.721235,-2.796427,-1.340753,-91.033936,171.539307,-5.493164,30.646484
23600,11.678916,-5.248090,-3.198653,51.666260,138.031006,-25.329590,30.654297
23640,12.387600,-4.012682,-1.465251,304.931641,8.697510,-86.090088,30.638672
23680,10.170568,-0.933739,-0.483629,44.189453,51.239014,-92.346191,30.660156
23720,6.598420,-1.407791,-1.283292,-37.139893,33.447266,-94.421387,30.658203
23760,3.835511,-2.729390,-1.968034,-89.080811,11.505127,-70.251465,30.658203
23800,3.610456,-2.882619,-1.015141,-72.540283,-15.869141,-29.968262,30.644531
23840,4.429273,-3.399766,1.015141,-80.169678,0.549316,40.374756,30.640625
23880,7.709330,-1.771709,4.831499,-58.074951,-4.241943,50.933838,30.660156
23920,15.581465,6.181829,9.514558,42.846680,-23.742676,-109.741211,30.652344
23960,15.356410,5.760449,7.623138,-54.779053,47.485352,-4.394531,30.660156
24000,12.531252,0.924162,-1.910573,103.485107,-24.749756,92.773438,30.658203
24040,10.874464,-2.327164,0.110133,-51.116943,-21.942139,16.845703,30.669922
24080,9.188946,-5.583278,-2.035071,-23.010254,-115.966797,-9.094238,30.658203
24120,7.690176,-7.024588,-2.073379,3.631592,-83.709717,37.475586,30.677734
24160,7.742848,-5.477933,-3.093309,-46.417236,-32.989502,85.906982,30.648438
24200,8.676587,-2.834735,-1.168370,-76.934814,-50.994873,92.132568,30.666016
24240,8.432379,-0.325611,1.685518,-57.708740,-61.096191,50.659180,30.648438
24280,7.292738,0.742203,0.928950,11.718750,-43.334961,39.947510,30.722656
24320,7.235278,-0.780510,-1.819593,21.087646,-67.291260,43.090820,30.726562
24360,9.021352,-1.604115,-1.771709,-5.371094,-55.847168,49.346924,30.718750
24400,11.429919,-0.938527,0.756568,-43.884277,-51.788330,-0.305176,30.759766
24440,13.115437,-0.536301,0.732626,6.530762,-11.322021,3.082275,30.726562
24480,14.293385,0.119710,-0.493206,-36.590576,-43.945312,-18.585205,30.718750
24520,14.279019,-0.478840,2.782062,90.820312,58.105469,-37.017822,30.732422
24560,13.196839,-1.522712,2.475605,105.590820,142.730713,-43.304443,30.730469
24600,11.616667,-3.749320,-1.249773,-6.500244,142.669678,-48.004150,30.748047
24640,11.089942,-6.023811,-1.886631,115.783691,108.795166,-65.002441,30.740234
24680,11.492168,-4.735731,0.153229,184.936523,65.734863,-68.786621,30.753906
24720,9.701305,-1.532289,-0.756568,70.678711,58.593750,-74.951172,30.726562
24760,6.713342,-0.665588,-1.527501,3.723145,38.269043,-96.069336,30.746094
24800,4.146757,-1.484405,-1.939303,-54.901123,6.896973,-80.505371,30.755859
24840,3.830723,-1.733402,-0.905008,-64.025879,-21.881104,-40.344238,30.742188
24880,4.491522,-2.614468,0.967257,-82.214355,-5.767822,36.987305,30.759766
24920,6.871359,-2.020706,4.764462,-134.552002,23.590088,79.162598,30.767578
24960,14.877569,5.722142,10.199299,37.963867,-8.789062,-107.574463,30.759766
25000,15.385140,5.779603,8.552089,-58.410645,47.515869,-2.319336,30.742188
25040,13.177686,0.565032,-1.029507,162.109375,-58.135986,74.829102,30.767578
25080,10.740389,-3.643975,0.153229,-53.039551,-4.333496,3.387451,30.738281
25120,8.188169,-7.781156,-2.140416,48.187256,-151.275635,21.667480,30.761719
25160,7.623138,-6.900089,-2.130840,4.608154,-52.459717,74.829102,30.771484
25200,8.959103,-4.644751,-2.758120,-40.710449,-39.581299,92.407227,30.750000
25240,9.749189,-1.857901,0.349553,-43.609619,-67.565918,99.182129,30.751953
25280,9.059659,0.770933,1.867477,-51.879883,-42.602539,35.644531,30.755859
25320,7.240066,1.072602,0.909797,11.230469,-46.142578,20.751953,30.755859
25360,6.392519,-1.000776,-1.647211,18.890381,-57.189941,36.773682,30.781250
25400,8.169016,-2.173935,-2.126051,-19.073486,-71.533203,42.999268,30.765625
25440,10.955867,-1.326388,0.435745,-43.823242,-67.687988,4.821777,30.779297
25480,13.632585,0.100556,0.268151,0.976562,-15.991211,-4.638672,30.755859
25520,14.551958,0.670376,0.067038,-26.550293,-65.765381,-29.449463,30.773438
25560,14.566323,0.469264,2.873042,67.108154,72.509766,-57.312012,30.775391
25600,13.441049,-0.488417,3.232172,69.732666,171.936035,-73.974609,30.775391
25640,12.186486,-3.605668,-0.962469,54.473877,140.686035,-63.964844,30.779297
25680,11.621455,-7.053318,-3.055001,100.830078,68.115234,-64.331055,30.779297
25720,12.014104,-4.414908,-0.483629,109.191895,64.453125,-62.164307,30.761719
25760,10.170568,0.124498,-1.086968,52.093506,63.751221,-67.504883,30.773438
25800,6.876147,0.330400,-1.709460,-24.597168,46.813965,-93.719482,30.777344
25840,3.581726,-1.628057,-2.351106,-83.831787,15.991211,-69.915771,30.777344
25880,2.901772,-2.446874,-1.206678,-65.490723,-22.064209,-22.247314,30.779297
25920,4.165911,-2.858677,1.063026,-88.378906,-17.333984,45.501709,30.792969
25960,8.087613,-0.756568,6.200983,-108.978271,10.528564,28.594971,30.755859
26000,15.389929,7.642292,9.299079,27.069092,-7.171631,-83.648682,30.785156
26040,14.504074,6.081272,6.866570,-72.326660,47.363281,-4.821777,30.761719
26080,11.051635,-0.210690,-0.900220,121.093750,-38.787842,102.325439,30.781250
26120,10.721235,-3.720589,-0.316035,46.569824,-70.190430,36.193848,30.781250
26160,10.141838,-5.401319,-1.379060,40.191650,-130.828857,19.683838,30.775391
26200,8.954314,-5.272032,-1.872266,19.775391,-59.387207,52.124023,30.800781
26240,8.815451,-3.907337,-3.916914,-45.349121,-37.963867,65.765381,30.777344
26280,8.619126,-2.796427,-1.225831,-94.665527,-30.181885,81.268311,30.839844
26320,8.537724,-0.004788,2.130840,-65.277100,-50.109863,51.086426,30.863281
26360,7.479486,1.546654,1.891419,17.120361,-51.361084,21.087646,30.861328
26400,6.722919,-0.454898,-1.019930,21.575928,-45.471191,37.994385,30.875000
26440,8.485051,-1.383849,-1.944092,-18.768311,-46.875000,58.746338,30.857422
26480,11.070788,0.397437,0.411803,-24.841309,-47.943115,17.974854,30.841797
26520,12.061988,0.253785,0.814029,11.657715,-13.946533,3.601074,30.857422
26560,13.517663,-0.253785,-2.025495,6.042480,-22.460938,-12.084961,30.886719
26600,14.231135,-0.296881,2.274492,19.653320,-0.488281,-37.475586,30.869141
26640,14.274231,-0.526724,3.572149,42.602539,115.844727,-40.649414,30.880859
26680,12.665327,-1.987187,0.881066,11.505127,163.940430,-45.349121,30.859375
26720,11.616667,-5.219360,-3.136404,59.509277,112.274170,-45.043945,30.865234
26760,11.971008,-4.548983,-0.268151,194.824219,75.836182,-63.690186,30.853516
26800,10.515334,-1.450886,-0.986411,90.362549,58.624268,-60.241699,30.884766
26840,7.345411,0.143652,-1.709460,16.906738,45.806885,-83.312988,30.843750
26880,4.295198,-0.861913,-2.260126,-70.434570,20.294189,-84.991455,30.882812
26920,3.160346,-2.092532,-1.556231,-78.155518,-10.925293,-49.468994,30.880859
26960,4.122815,-2.710236,0.426168,-73.944092,-29.449463,13.671875,30.873047
27000,6.698977,-2.331953,4.424485,-138.610840,8.300781,58.410645,30.869141
27040,13.757083,4.874595,9.461885,3.631592,15.594482,-79.528809,30.882812
27080,15.255854,6.727707,7.891289,-45.227051,39.367676,-18.280029,30.900391
27120,11.520899,1.254562,1.699883,61.187744,-16.021729,79.193115,30.863281
27160,10.955867,-2.614468,-0.809240,73.059082,-119.995117,34.240723,30.873047
27200,10.251971,-5.348647,-0.598550,12.908936,-91.979980,23.071289,30.875000
27240,9.471462,-5.750873,-1.723825,11.779785,-64.910889,51.605225,30.886719
27280,8.839393,-4.841076,-3.169923,-67.260742,-18.585205,68.450928,30.898438
27320,8.470686,-3.380613,-2.858677,-69.671631,-44.555664,99.578857,30.886719
27360,8.341399,-0.679953,0.885855,-81.634521,-72.357178,42.999268,30.902344
27400,6.890512,0.507571,2.978387,2.960205,-53.558350,26.947021,30.902344
27440,6.397307,-0.560243,-0.105345,32.562256,-38.146973,34.637451,30.875000
27480,8.839393,-1.532289,-2.944868,-36.102295,-90.881348,28.106689,30.902344
27520,11.444284,-0.009577,-0.167594,-19.897461,-85.083008,12.908936,30.892578
27560,12.512098,0.459687,1.283292,15.930176,-21.209717,-0.518799,30.880859
27600,13.397953,-0.569820,-1.522712,-1.281738,-15.655518,-10.803223,30.886719
27640,13.781025,-0.296881,1.886631,29.907227,-14.190674,-31.829834,30.906250
27680,13.728353,0.263362,2.839523,61.584473,124.420166,-52.185059,30.916016
27720,12.646173,-0.766145,0.828394,13.793945,149.627686,-72.204590,30.902344
27760,12.119449,-5.248090,-3.256114,49.591064,117.797852,-62.164307,30.916016
27800,13.230358,-5.712565,-1.254562,189.788818,62.591553,-73.150635,30.910156
27840,11.525687,-1.968034,-1.240196,102.569580,66.253662,-60.485840,30.916016
27880,8.078036,0.100556,-1.805228,13.702393,58.349609,-74.676514,30.900391
27920,4.525041,-1.101333,-2.499547,-57.006836,28.991699,-82.702637,30.910156
27960,2.662352,-2.403779,-2.193089,-81.054688,3.814697,-46.630859,30.912109
28000,3.399766,-2.997540,-0.579397,-66.864014,-18.524170,1.586914,30.929688
28040,5.492299,-3.452439,1.996764,-135.223389,-4.272461,82.031250,30.917969
28080,12.832921,3.481169,9.414001,20.751953,24.414062,-87.768555,30.916016
28120,16.606182,9.658210,8.015787,-15.380859,20.263672,-47.943115,30.912109
28160,12.191275,3.576937,3.136404,0.671387,0.030518,75.042725,30.912109
28200,10.366894,-1.446098,-3.246537,8.514404,-133.544922,94.543457,30.925781
28240,9.892841,-5.444415,0.555455,10.009766,-67.230225,-1.251221,30.982422
28280,9.279925,-6.952762,-1.690306,33.782959,-108.978271,42.816162,30.988281
28320,9.375694,-5.430049,-2.418144,-37.780762,-23.895264,62.103271,30.988281
28360,9.002198,-3.519476,-2.796427,-63.262939,-25.268555,89.477539,30.998047
28400,8.432379,-0.972046,0.067038,-103.515625,-27.465820,57.647705,31.001953
28440,7.196970,0.565032,2.868254,-48.156738,-26.031494,15.350342,30.976562
28480,6.320693,-0.033519,0.550666,48.583984,-28.137207,27.954102,31.000000
28520,7.920019,-1.369483,-4.491522,-27.832031,-85.266113,39.672852,30.998047
28560,10.826580,-0.306458,-1.805228,-17.639160,-100.677490,25.360107,30.990234
28600,12.066776,0.062249,1.910573,13.824463,-41.442871,3.723145,31.003906
28640,12.923901,-0.430956,-0.119710,15.686035,-21.606445,-5.126953,30.992188
28680,13.828909,0.263362,-1.221043,11.138916,-15.899658,-21.087646,31.011719
28720,14.355634,0.186748,3.227384,10.955811,83.953857,-45.989990,30.994141
28760,13.795390,-0.268151,3.691859,38.421631,167.938232,-61.309814,30.996094
28800,12.823344,-3.552995,-0.483629,63.140869,119.293213,-51.086426,31.011719
28840,11.621455,-6.933608,-5.281609,88.195801,88.897705,-42.053223,31.003906
28880,11.042058,-2.748544,-1.110910,172.454834,50.628662,-58.502197,31.013672
28920,9.021352,0.502782,-0.799663,39.978027,62.652588,-79.620361,31.013672
28960,5.702989,-0.134075,-1.963245,-32.714844,36.499023,-91.278076,31.017578
29000,3.457227,-1.757344,-2.427721,-87.829590,10.925293,-64.849854,31.039062
29040,3.801992,-2.466028,-1.273715,-80.139160,-19.775391,-22.735596,31.009766
29080,4.960786,-3.500323,0.885855,-104.217529,-4.241943,69.061279,31.029297
29120,9.758766,-0.158017,6.742072,-25.390625,0.701904,10.162354,31.023438
29160,16.457743,8.470686,8.748413,61.981201,-33.264160,-69.427490,31.005859
29200,14.240712,5.200206,5.750873,-29.693604,33.782959,46.905518,31.021484
29240,11.180922,-0.636858,-2.470816,12.451172,-30.334473,106.903076,31.011719
29280,10.510546,-4.151546,-0.799663,-53.924561,-83.770752,-45.776367,30.992188
29320,8.523358,-7.340622,-0.263362,1.617432,-65.277100,24.353027,31.029297
29360,8.494628,-6.560112,-1.675941,-10.742188,-33.691406,64.270020,31.029297
29400,8.580819,-4.141969,-2.786851,-43.701172,-2.929688,97.473145,31.003906
29440,9.011775,-1.335965,-1.532289,-47.119141,-75.469971,70.678711,31.035156
29480,7.929596,0.335188,1.192312,-22.094727,-56.671143,13.793945,31.023438
29520,6.325481,-0.229843,0.799663,57.098389,-50.994873,43.121338,31.021484
29560,7.694964,-0.665588,-2.154782,-8.148193,-73.699951,38.330078,31.029297
29600,10.697293,0.119710,-1.393425,-28.656006,-106.842041,21.301270,31.023438
29640,11.918336,0.517148,2.030283,-5.096436,-34.942627,2.105713,31.021484
29680,12.459426,-0.593762,0.138864,31.280518,-14.862061,-7.843018,31.027344
29720,12.943054,-1.666364,-2.786851,1.617432,-23.284912,-3.906250,31.037109
29760,13.498509,-1.154005,0.603339,-2.960205,6.195068,-22.155762,31.017578
29800,13.570335,0.397437,5.070919,118.164062,124.267578,-55.877686,31.042969
29840,12.411542,-1.106121,0.847547,20.660400,152.038574,-56.640625,31.023438
29880,11.717223,-5.315128,-3.318364,58.410645,114.288330,-48.339844,31.029297
29920,12.100295,-4.750096,-1.106121,181.335449,56.823730,-70.251465,31.027344
29960,10.500969,-1.790863,-1.053449,79.528809,55.664062,-68.450928,31.031250
30000,7.283162,-0.622492,-2.111686,-0.427246,40.191650,-85.937500,31.031250
30040,4.161122,-1.699883,-2.269703,-56.884766,16.082764,-71.899414,31.041016
30080,3.462016,-2.188300,-1.632846,-77.453613,-4.058838,-39.306641,31.058594
30120,4.505888,-2.686294,-0.023942,-70.220947,-15.502930,15.472412,31.060547
30160,6.809110,-2.446874,3.026271,-120.605469,6.713867,73.516846,31.044922
30200,13.991714,4.668694,8.805874,32.073975,-12.817383,-78.369141,31.042969
30240,15.974113,8.087613,7.110779,-13.641357,37.200928,-21.545410,31.039062
30280,13.340492,2.403779,1.335965,61.096191,-31.951904,40.588379,31.056641
30320,11.104307,-1.776498,-1.417367,-21.209717,-72.723389,37.994385,31.046875
30360,9.050082,-5.540183,-0.952892,3.814697,-78.735352,10.894775,31.041016
30400,8.078036,-7.163452,-2.145205,14.465332,-138.610840,25.543213,31.052734
30440,7.785944,-5.899313,-3.064578,-32.958984,-27.679443,80.383301,31.048828
30480,8.863335,-3.213019,-2.384625,-46.783447,-56.610107,93.139648,31.050781
30520,8.748413,-0.407014,1.201889,-38.024902,-54.443359,62.408447,31.064453
30560,7.556100,0.746991,1.211466,6.256104,-16.571045,59.722900,31.044922
30600,7.565677,0.507571,-1.321599,30.273438,-41.595459,47.943115,31.119141
30640,8.719683,-0.335188,-2.279280,-0.152588,-70.678711,35.095215,31.117188
30680,10.477027,-0.402226,-0.387861,-20.782471,-67.230225,14.770508,31.132812
30720,11.903971,-0.828394,0.775721,-5.371094,-22.125244,0.762939,31.119141
30760,13.661315,-0.598550,-2.202666,-0.305176,-15.899658,-2.960205,31.136719
30800,14.101848,-0.440533,0.502782,-2.197266,-12.695312,-23.101807,31.138672
30840,14.025233,-0.450110,2.384625,30.853271,119.445801,-47.821045,31.142578
30880,12.861651,-1.264138,1.345541,49.316406,171.325684,-65.368652,31.119141
30920,11.918336,-5.166687,-2.748544,78.186035,113.952637,-53.070068,31.132812
30960,10.998962,-6.617573,-1.819593,159.698486,69.061279,-63.720703,31.109375
31000,10.285490,-2.614468,-1.101333,136.901855,40.954590,-67.932129,31.134766
31040,7.881712,0.052672,-1.996764,23.132324,38.574219,-86.669922,31.115234
31080,4.874595,-0.909797,-2.149993,-54.321289,13.183594,-84.381104,31.119141
31120,3.299210,-2.293645,-1.757344,-85.113525,-3.906250,-48.095703,31.132812
31160,4.242526,-2.489970,-0.296881,-64.910889,-23.895264,10.131836,31.138672
31200,5.975927,-2.806004,2.279280,-110.015869,6.835938,83.404541,31.134766
31240,12.540829,2.834735,8.599973,-14.465332,9.429932,-70.648193,31.128906
31280,16.328455,8.963891,7.292738,9.613037,18.493652,-42.602539,31.136719
31320,13.354857,4.089296,2.035071,18.585205,-11.840820,64.544678,31.154297
31360,11.760319,-1.316811,-2.212242,19.683838,-96.801758,14.404297,31.134766
31400,9.916783,-5.674258,-0.311246,-9.033203,-64.147949,-7.965088,31.125000
31440,9.160215,-7.129933,-2.432509,-11.535645,-149.139404,18.188477,31.162109
31480,8.504205,-5.995081,-2.978387,-27.038574,-36.132812,52.368164,31.150391
31520,8.365341,-4.189853,-1.991976,-51.940918,-31.066895,78.887939,31.138672
31560,8.121132,-1.561020,0.301669,-40.130615,-55.175781,74.523926,31.154297
31600,7.292738,0.723049,0.636858,-4.760742,-48.065186,43.090820,31.138672
31640,6.761226,1.000776,-0.905008,72.967529,-42.205811,54.504395,31.152344
31680,8.178593,0.043096,-2.676718,8.148193,-61.889648,46.844482,31.140625
31720,10.352529,0.732626,-0.694318,10.925293,-57.128906,29.479980,31.167969
31760,11.702858,0.612916,1.024718,15.930176,-16.876221,2.838135,31.162109
31800,12.531252,-0.780510,-1.474828,23.925781,-3.814697,-2.471924,31.158203
31840,13.153744,-1.541866,-2.480393,-8.636475,-4.394531,-19.958496,31.150391
31880,14.255077,-0.962469,1.886631,0.122070,63.171387,-34.179688,31.154297
31920,13.881581,0.660800,3.768473,52.642822,162.872314,-59.112549,31.152344
31960,12.315774,-2.284068,-1.570596,27.191162,133.880615,-57.373047,31.148438
32000,11.726800,-5.070919,-3.069367,98.632812,75.286865,-65.368652,31.164062
32040,11.899182,-3.064578,-0.670376,119.354248,53.192139,-80.352783,31.166016
32080,9.696517,-0.148441,-1.436521,28.472900,52.093506,-89.080811,31.154297
32120,6.119579,-0.651223,-2.240973,-53.802490,35.766602,-95.458984,31.173828
32160,3.543418,-2.063802,-2.303222,-104.980469,22.277832,-65.979004,31.173828
32200,3.643975,-2.705448,-1.570596,-67.382812,-28.076172,-19.989014,31.171875
32240,4.764462,-3.629610,1.024718,-77.758789,-11.657715,60.760498,31.173828
32280,8.499416,-1.537078,5.506664,-122.955322,25.268555,60.089111,31.152344
32320,15.696386,6.646304,8.394072,30.151367,-19.256592,-54.840088,31.164062
32360,14.642938,5.961562,6.598420,-39.001465,35.156250,19.897461,31.154297
32400,11.951855,1.005565,-1.470040,128.173828,-39.855957,80.780029,31.177734
32440,11.133038,-2.183512,-0.172383,-1.342773,-69.976807,-26.824951,31.158203
32480,9.002198,-5.971139,-1.355118,26.641846,-108.734131,29.815674,31.160156
32520,8.662222,-5.583278,-2.379837,-6.530762,-60.729980,42.449951,31.171875
32560,8.671799,-4.855441,-3.907337,-50.018311,-34.423828,77.880859,31.244141
32600,8.954314,-2.691083,-1.316811,-70.495605,-50.994873,73.699951,31.232422
32640,8.111555,-0.114922,1.953669,-41.351318,-61.614990,29.663086,31.214844
32680,6.464345,0.411803,1.321599,54.504395,-37.841797,30.151367,31.251953
32720,6.584054,-1.561020,-1.924938,25.543213,-32.531738,63.293457,31.226562
32760,9.696517,-0.612916,-2.178724,-25.115967,-63.659668,50.323486,31.224609
32800,11.975797,1.723825,0.124498,1.220703,-50.659180,13.671875,31.240234
32840,12.291832,0.837971,-0.081403,20.751953,-16.784668,-1.190186,31.269531
32880,12.737153,-1.422156,-2.638410,1.861572,-28.869629,-5.462646,31.240234
32920,13.733141,-0.756568,1.934515,6.835938,-0.885010,-22.430420,31.255859
32960,14.326903,0.837971,3.514688,60.211182,132.080078,-50.079346,31.248047
33000,12.559982,-0.770933,-0.205901,-24.597168,145.965576,-54.779053,31.263672
33040,11.453861,-4.185065,-3.318364,54.595947,106.414795,-66.650391,31.246094
33080,12.205640,-4.558560,-1.019930,169.708252,70.648193,-69.671631,31.257812
33120,11.429919,-1.747767,-1.537078,85.632324,51.452637,-80.932617,31.269531
33160,8.121132,-0.129287,-2.011129,-0.640869,37.780762,-94.665527,31.269531
33200,4.707001,-1.230620,-2.312799,-78.582764,25.817871,-86.791992,31.263672
33240,3.476381,-2.240973,-1.939303,-95.489502,1.098633,-43.701172,31.253906
33280,4.031836,-2.983175,-0.158017,-76.843262,-19.836426,19.439697,31.289062
33320,5.894525,-3.227384,2.595315,-123.992920,-6.652832,92.010498,31.265625
33360,13.306973,3.533842,8.676587,-26.184082,23.101807,-67.443848,31.246094
33400,15.816096,8.288726,7.268796,10.070801,20.904541,-7.537842,31.275391
33440,13.096283,3.667917,0.086191,68.359375,-45.898438,96.282959,31.275391
33480,12.172121,-1.125275,-1.125275,-13.793945,-91.674805,-26.367188,31.250000
33520,9.294291,-6.172252,-0.239420,-7.293701,-85.906982,18.737793,31.265625
33560,8.279149,-7.632715,-2.116474,10.620117,-96.130371,31.372070,31.251953
33600,8.164227,-6.301539,-3.093309,-38.208008,-7.019043,86.608887,31.251953
33640,8.724471,-3.529053,-2.485181,-37.261963,-60.333252,110.961914,31.265625
33680,7.934384,-0.914585,0.100556,-57.128906,-55.511475,80.535889,31.283203
33720,7.163452,0.881066,0.818817,38.787842,-25.115967,76.049805,31.263672
33760,7.656657,0.426168,-1.221043,23.010254,-52.734375,53.192139,31.267578
33800,9.308656,-0.833182,-1.920150,-23.651123,-74.035645,27.709961,31.275391
33840,11.176133,-1.139640,0.541090,-39.123535,-51.300049,4.943848,31.275391
33880,12.847286,-0.837971,1.130063,18.981934,-5.126953,-8.605957,31.298828
33920,13.718776,-0.459687,-1.891419,-20.111084,-33.416748,-13.671875,31.289062
33960,13.627796,-0.866701,2.557007,67.779541,45.043945,-43.701172,31.287109
34000,12.751518,-1.996764,2.173935,60.699463,154.968262,-57.952881,31.275391
34040,12.052411,-3.519476,-1.379060,-14.648438,160.919189,-59.051514,31.289062
34080,12.224793,-5.607220,-2.638410,126.556396,98.144531,-63.415527,31.289062
34120,12.119449,-4.529830,-0.656011,233.459473,28.778076,-77.728271,31.289062
34160,9.246407,-2.207454,-1.034295,95.703125,35.095215,-67.932129,31.271484
34200,6.210559,-0.603339,-1.738190,-13.458252,23.986816,-83.404541,31.306641
34240,3.825934,-1.110910,-2.197877,-84.716797,9.277344,-77.972412,31.312500
34280,3.629610,-2.059013,-1.465251,-89.630127,-25.207520,-38.482666,31.275391
34320,4.606444,-3.394978,0.397437,-83.251953,-5.462646,41.168213,31.302734
34360,7.484274,-2.336741,3.462016,-146.514893,32.928467,71.289062,31.296875
34400,15.217546,5.238513,8.801085,58.929443,-39.825439,-102.905273,31.292969
34440,15.337256,6.071695,7.187394,-27.923584,67.810059,29.693604,31.308594
34480,12.234370,0.790087,-0.976834,22.857666,-25.665283,117.797852,31.306641
34520,11.602302,-2.844312,-1.168370,-38.909912,-116.210938,-80.108643,31.308594
34560,8.355764,-7.637504,0.483629,36.437988,-78.948975,20.843506,31.367188
34600,7.977480,-8.058883,-1.182736,-2.197266,-16.204834,69.610596,31.373047
34640,8.868123,-5.961562,-3.098097,-51.452637,11.230469,93.597412,31.355469
34680,9.069236,-3.375824,-1.939303,-39.276123,-38.146973,92.742920,31.349609
34720,8.073248,-0.881066,0.167594,-91.369629,-49.468994,32.775879,31.378906
34760,7.101202,0.569820,0.751779,60.028076,-71.075439,34.759521,31.357422
34800,7.177817,-0.972046,-1.048660,26.733398,-82.427979,44.464111,31.365234
34840,9.246407,-0.866701,-1.039083,-19.744873,-80.932617,44.036865,31.367188
34880,11.353305,0.004788,1.594538,-24.932861,-31.036377,18.188477,31.382812
34920,12.464214,-0.114922,0.751779,65.246582,-7.293701,-27.404785,31.382812
34960,12.583924,-1.259350,-3.806781,9.338379,-28.259277,-19.165039,31.378906
35000,12.866440,-2.030283,0.000000,-26.489258,-43.457031,-24.566650,31.375000
35040,13.670892,-1.106121,6.387730,197.235107,138.732910,-84.594727,31.365234
35080,12.378023,-2.106898,1.077391,-36.102295,168.395996,-75.592041,31.394531
35120,12.152967,-5.458780,-2.762909,23.101807,125.213623,-66.314697,31.351562
35160,13.211205,-5.228937,-0.584185,310.028076,-0.244141,-101.165771,31.404297
35200,10.601525,-2.355895,-0.359130,103.759766,29.479980,-63.903809,31.388672
35240,6.880936,-0.881066,-1.072602,0.274658,43.609619,-66.406250,31.376953
35280,3.797204,-1.455675,-2.068590,-69.915771,25.848389,-64.300537,31.375000
35320,2.671929,-2.389413,-2.035071,-69.915771,-13.488770,-29.693604,31.390625
35360,3.983952,-2.944868,0.014365,-62.164307,-27.954102,21.728516,31.380859
35400,6.924031,-2.853889,2.758120,-113.250732,-8.819580,91.888428,31.365234
35440,15.595830,6.287174,8.413225,46.905518,-19.744873,-102.508545,31.369141
35480,16.400282,9.313444,6.861782,4.943848,50.689697,16.143799,31.400391
35520,12.330139,2.039860,-0.780510,72.906494,-1.708984,114.135742,31.410156
35560,10.735600,-3.495534,-1.192312,-88.409424,-95.703125,-19.317627,31.398438
35600,8.872911,-6.794744,0.105345,5.676270,-86.059570,-3.753662,31.402344
35640,8.130709,-7.589619,-1.685518,8.026123,-43.304443,48.919678,31.384766
35680,8.532935,-5.889736,-3.438074,-46.417236,-6.713867,85.418701,31.410156
35720,9.002198,-3.179500,-2.413355,-42.907715,-31.341553,96.038818,31.406250
35760,8.374918,-0.488417,0.416591,-43.304443,-55.847168,51.147461,31.394531
35800,6.799533,0.306458,1.225831,18.127441,-48.645020,37.292480,31.404297
35840,6.569689,-1.235408,-1.259350,-0.640869,-45.440674,51.116943,31.404297
35880,9.102755,-1.211466,-2.130840,-44.403076,-80.810547,40.832520,31.406250
35920,11.468226,-0.038307,0.464475,-28.594971,-42.297363,16.540527,31.400391
35960,12.823344,-0.258574,0.330400,8.300781,-19.104004,-6.469727,31.423828
36000,13.872005,-0.632069,-2.715025,-8.514404,-36.773682,-9.735107,31.410156
36040,14.470555,-0.761356,2.489970,68.115234,27.191162,-49.438477,31.414062
36080,13.919888,-0.780510,3.184288,100.708008,174.102783,-79.315186,31.392578
36120,12.330139,-2.485181,-1.268927,-6.835938,154.449463,-61.706543,31.392578
36160,11.611878,-5.913678,-2.820370,103.271484,94.787598,-69.335938,31.410156
36200,11.774684,-4.673482,-1.019930,192.291260,45.654297,-82.794189,31.416016
36240,9.576807,-0.833182,-1.934515,67.169189,41.564941,-65.948486,31.416016
36280,6.603208,0.215478,-2.054225,-31.158447,31.555176,-86.914062,31.417969
36320,3.730166,-1.628057,-2.092532,-104.492188,15.411377,-73.455811,31.410156
36360,3.375824,-2.691083,-1.460463,-93.566895,-23.773193,-26.916504,31.421875
36400,4.754885,-3.246537,0.584185,-85.815430,-7.049561,42.694092,31.414062
36440,7.766790,-2.068590,3.711013,-128.509521,9.826660,71.014404,31.425781
36480,15.423448,6.138733,8.566454,89.965820,-30.090332,-87.188721,31.414062
36520,15.413871,7.532158,6.421249,-39.459229,54.748535,24.047852,31.505859
36560,11.822568,1.259350,-2.557007,15.533447,7.446289,127.410889,31.513672
36600,11.717223,-2.686294,-0.009577,-35.675049,-115.356445,-72.845459,31.496094
36640,9.112331,-6.900089,-0.181959,6.530762,-74.005127,-0.701904,31.486328
36680,8.504205,-7.383718,-1.872266,21.331787,-83.312988,30.822754,31.498047
36720,8.494628,-5.453991,-3.500323,-20.965576,-27.801514,76.141357,31.492188
36760,8.796297,-2.829947,-2.384625,-39.245605,-75.622559,85.937500,31.517578
36800,7.445967,-1.374272,0.905008,-59.387207,-41.229248,64.361572,31.488281
36840,5.951985,-0.785298,0.981623,34.881592,-26.794434,88.287354,31.507812
36880,6.876147,-0.991199,-1.498770,31.433105,-10.040283,87.615967,31.505859
36920,10.280702,-0.665588,-2.719813,-37.902832,-71.136475,41.900635,31.498047
36960,11.918336,-0.397437,0.766145,-45.989990,-49.682617,16.906738,31.496094
37000,12.583924,-0.766145,1.877054,12.939453,6.042480,-13.427734,31.488281
37040,13.838486,-0.407014,-3.069367,17.089844,-15.167236,-15.289307,31.494141
37080,14.159308,-0.311246,1.115698,47.821045,1.220703,-42.114258,31.521484
37120,13.646950,-0.976834,3.744531,83.587646,174.285889,-87.463379,31.503906
37160,11.971008,-3.696647,-0.191536,-34.667969,167.968750,-73.059082,31.517578
37200,11.779472,-6.842628,-2.398990,80.169678,95.184326,-64.788818,31.488281
37240,12.057199,-4.979939,-0.272939,204.223633,45.806885,-76.995850,31.505859
37280,9.433155,-1.268927,-1.039083,73.791504,48.919678,-74.462891,31.476562
37320,6.148310,-0.478840,-1.762132,-10.375977,35.888672,-92.620850,31.517578
37360,3.404555,-1.910573,-2.149993,-77.117920,8.087158,-71.624756,31.486328
37400,3.265691,-2.537854,-1.177947,-66.406250,-27.404785,-27.709961,31.496094
37440,4.951209,-2.820370,0.885855,-75.683594,-25.390625,35.919189,31.476562
37480,8.087613,-1.795651,4.548983,-117.370605,2.014160,65.795898,31.507812
37520,15.198392,5.655105,9.222465,57.647705,-21.850586,-89.935303,31.515625
37560,14.997279,6.631939,6.885724,-28.167725,56.365967,-1.098633,31.492188
37600,11.109096,1.043872,-1.154005,77.301025,-16.174316,144.165039,31.517578
37640,11.367670,-2.576161,-0.407014,-25.329590,-131.195068,-16.815186,31.505859
37680,9.461885,-6.076484,0.603339,-6.134033,-56.213379,9.490967,31.544922
37720,8.695741,-7.067683,-1.264138,12.969971,-54.718018,36.254883,31.509766
37760,8.192958,-6.392519,-2.470816,-34.545898,-5.157471,79.803467,31.503906
37800,8.599973,-3.835511,-2.149993,-61.828613,-14.801025,91.827393,31.496094
37840,8.264784,-0.703895,0.320823,-56.060791,-48.431396,38.085938,31.523438
37880,6.785168,-0.143652,0.962469,38.299561,-53.253174,29.083252,31.523438
37920,6.660669,-1.786075,-1.125275,-2.746582,-68.756104,43.334961,31.492188
37960,9.174581,-0.866701,-1.747767,-52.246094,-99.334717,43.487549,31.525391
38000,11.568783,1.019930,0.512359,-14.099121,-57.617188,26.611328,31.531250
38040,11.832145,0.177171,1.589750,22.460938,-10.589600,-8.087158,31.521484
38080,12.071565,-1.881842,-2.398990,30.792236,-30.761719,-18.951416,31.531250
38120,13.014880,-2.442086,-1.896208,-15.533447,-62.255859,-15.014648,31.529297
38160,14.666880,-0.478840,5.099649,158.233643,98.022461,-68.908691,31.523438
38200,13.522451,0.430956,2.188300,40.679932,185.852051,-90.881348,31.550781
38240,12.287044,-2.796427,-3.232172,-4.577637,144.866943,-67.687988,31.521484
38280,12.655750,-6.598420,-1.522712,209.899902,40.893555,-94.116211,31.554688
38320,11.506534,-3.869030,-0.646434,80.261230,66.925049,-76.232910,31.541016
38360,8.528147,-0.225055,-1.479617,4.821777,57.769775,-89.416504,31.541016
38400,4.692636,-1.015141,-2.576161,-78.125000,38.055420,-88.043213,31.552734
38440,2.748544,-2.604892,-2.375048,-91.552734,9.552002,-47.058105,31.541016
38480,3.481169,-3.093309,-0.454898,-71.899414,-25.054932,14.465332,31.542969
38520,5.731719,-2.887407,3.088520,-102.539062,-2.197266,95.733643,31.613281
38560,12.823344,3.538630,9.270349,-45.867920,20.538330,-61.279297,31.595703
38600,15.787366,7.891289,7.120356,6.622314,15.960693,-6.713867,31.591797
38640,12.191275,3.241749,2.375048,72.448730,-24.414062,118.347168,31.621094
38680,11.674128,-1.240196,-1.230620,-66.925049,-139.312744,-9.307861,31.605469
38720,9.672575,-5.880159,0.565032,8.605957,-67.504883,-8.087158,31.626953
38760,9.045294,-7.077260,-1.877054,16.143799,-82.427979,37.475586,31.617188
38800,9.136273,-6.019023,-2.432509,-38.848877,-8.300781,68.908691,31.628906
38840,9.265560,-3.883395,-2.509123,-44.097900,-38.604736,96.252441,31.613281
38880,8.030152,-1.417367,0.114922,-45.684814,-62.835693,57.220459,31.646484
38920,5.951985,-0.972046,1.335965,-4.272461,-43.579102,21.697998,31.621094
38960,5.118803,-2.724602,-0.713472,32.073975,-28.625488,73.822021,31.613281
39000,8.628703,-2.068590,-2.801216,-70.129395,-87.432861,49.255371,31.623047
39040,12.397177,0.708684,-0.871489,-60.211182,-87.646484,26.763916,31.603516
39080,13.148955,1.618480,1.651999,29.693604,-25.238037,-2.899170,31.630859
39120,12.899959,-0.665588,-1.096544,20.935059,-19.348145,-9.979248,31.621094
39160,12.818556,-1.814805,-0.905008,-16.998291,-55.633545,-14.099121,31.628906
39200,13.426683,-0.885855,4.118027,122.650146,94.635010,-59.478760,31.628906
39240,12.650962,-0.378284,1.096544,38.116455,165.954590,-77.148438,31.636719
39280,12.344504,-2.365471,-2.580950,-21.850586,153.381348,-68.878174,31.617188
39320,13.105860,-6.047753,-2.269703,170.043945,44.891357,-80.200195,31.644531
39360,11.889606,-4.089296,-0.507571,113.311768,63.110352,-83.587646,31.638672
39400,8.748413,-1.312023,-1.010353,-0.640869,74.584961,-93.872070,31.626953
39440,5.070919,-1.187524,-2.312799,-67.321777,42.480469,-91.186523,31.626953
39480,2.877831,-2.116474,-2.389413,-100.738525,14.373779,-56.884766,31.640625
39520,3.251326,-2.705448,-0.991199,-80.352783,-20.904541,-0.366211,31.626953
39560,5.248090,-3.007117,1.369483,-106.750488,-4.913330,86.486816,31.626953
39600,11.310209,1.158794,7.623138,-66.589355,7.446289,-17.395020,31.650391
39640,16.452953,7.738060,8.350976,46.936035,-24.108887,-47.851562,31.632812
39680,13.148955,3.658340,4.577713,-11.749268,-4.150391,60.424805,31.642578
39720,11.118672,-1.747767,-1.541866,-71.136475,-4.425049,46.722412,31.654297
39760,10.280702,-4.563348,-1.541866,19.592285,-94.024658,-23.620605,31.666016
39800,8.939949,-7.714118,-0.885855,-13.977051,-55.206299,31.188965,31.638672
39840,8.858546,-6.904878,-2.073379,-44.219971,8.026123,74.523926,31.658203
39880,9.452309,-3.457227,-2.691083,-79.437256,1.708984,79.895020,31.650391
39920,8.777143,-0.972046,-0.268151,-98.358154,-58.532715,30.120850,31.630859
39960,6.837840,0.110133,1.968034,13.977051,-69.274902,22.064209,31.632812
40000,5.875371,-0.761356,-0.957681,22.369385,-80.139160,36.315918,31.666016
40040,8.068460,-1.182736,-2.949656,-17.150879,-129.089355,41.442871,31.662109
40080,11.238382,0.134075,0.378284,-13.305664,-88.867188,18.524170,31.660156
40120,12.564771,0.636858,3.213019,10.284424,-25.238037,-1.495361,31.656250
40160,13.196839,0.043096,-0.612916,35.095215,-19.439697,-13.336182,31.646484
40200,13.488933,-0.502782,-1.810017,21.209717,-2.899170,-26.489258,31.671875
40240,13.800179,-0.474052,3.806781,84.869385,47.393799,-53.253174,31.652344
40280,13.441049,-0.565032,3.227384,71.929932,177.795410,-84.228516,31.667969
40320,12.598289,-4.611232,-2.585738,18.737793,134.704590,-62.438965,31.673828
40360,12.694057,-6.478710,-1.877054,145.294189,66.650391,-68.054199,31.675781
40400,11.621455,-2.748544,-1.048660,102.081299,61.706543,-68.206787,31.656250
40440,8.355764,0.268151,-1.800440,18.798828,50.170898,-81.054688,31.675781
40480,4.888960,-0.253785,-2.164358,-59.356689,37.078857,-83.648682,31.718750
40520,2.820370,-1.982399,-1.982399,-98.205566,3.601074,-52.581787,31.734375
40560,3.246537,-2.930503,-0.818817,-75.988770,-30.090332,-3.387451,31.732422
40600,5.276821,-3.811569,1.312023,-109.008789,-5.615234,80.871582,31.744141
40640,11.142614,-0.119710,7.556100,-31.188965,12.329102,-0.244141,31.744141
40680,16.663643,8.188169,9.193734,100.006104,-11.596680,-48.797607,31.767578
40720,14.245501,5.779603,3.983952,-65.521240,15.808105,47.973633,31.744141
40760,12.023681,-0.215478,-3.744531,-26.489258,-36.560059,57.678223,31.734375
40800,10.108319,-4.596867,0.967257,-39.215088,-55.084229,-41.809082,31.761719
40840,7.934384,-8.916007,0.641646,9.307861,-78.552246,27.618408,31.750000
40880,7.680599,-8.039729,-2.135628,-12.542725,8.544922,87.615967,31.759766
40920,8.729259,-4.965574,-3.615245,-45.104980,-1.159668,106.140137,31.755859
40960,9.251195,-1.838747,-1.110910,-59.173584,-73.730469,60.089111,31.763672
41000,8.389283,0.708684,0.723049,-19.653320,-76.599121,30.395508,31.753906
41040,7.465121,0.905008,0.483629,37.658691,-77.911377,36.834717,31.753906
41080,8.269572,-0.086191,-0.339977,0.732422,-100.372314,23.986816,31.757812
41120,10.084377,0.244209,0.474052,-10.620117,-72.143555,17.913818,31.742188
41160,11.018116,0.320823,1.824382,1.403809,-28.808594,-3.784180,31.753906
41200,12.243947,-0.770933,-1.441309,24.383545,-25.085449,-21.362305,31.748047
41240,13.043611,-1.379060,-3.845088,-1.007080,-44.982910,-9.155273,31.746094
41280,13.661315,-0.972046,2.853889,79.284668,-25.573730,-39.978027,31.775391
41320,13.484144,-0.708684,4.821922,105.682373,170.166016,-79.132080,31.753906
41360,12.334928,-2.466028,-0.814029,-39.337158,155.151367,-51.483154,31.767578
41400,12.890382,-5.104438,-2.518700,116.699219,99.060059,-63.781738,31.773438
41440,12.550406,-4.855441,-0.292093,165.008545,67.993164,-73.089600,31.736328
41480,9.490616,-2.164358,-1.158794,61.614990,62.591553,-71.105957,31.759766
41520,6.153099,-0.646434,-2.006341,-7.904053,43.029785,-81.695557,31.763672
41560,3.490746,-1.546654,-2.293645,-70.495605,16.906738,-64.697266,31.757812
41600,3.074155,-2.427721,-1.426944,-58.593750,-25.726318,-21.301270,31.765625
41640,4.802769,-2.566584,1.039083,-58.044434,-26.855469,38.940430,31.769531
41680,8.125920,-1.230620,4.908113,-126.373291,5.767822,50.781250,31.763672
41720,14.528016,5.473145,8.710106,71.563721,-20.233154,-64.880371,31.750000
41760,14.470555,6.617573,7.101202,-40.130615,55.755615,14.007568,31.767578
41800,11.286267,1.752556,-0.794875,35.522461,-15.289307,114.349365,31.763672
41840,11.568783,-2.422932,-1.742979,26.123047,-154.571533,-17.761230,31.767578
41880,9.710882,-6.038177,1.168370,2.044678,-49.011230,12.634277,31.773438
41920,8.738836,-7.335834,-0.450110,5.859375,-13.671875,61.614990,31.759766
41960,8.939949,-5.262455,-2.973598,-45.837402,10.101318,77.392578,31.785156
42000,8.863335,-3.016694,-2.896984,-65.155029,-28.747559,79.132080,31.769531
42040,7.967903,-1.000776,0.071826,-60.485840,-61.859131,40.832520,31.794922
42080,6.823475,0.134075,1.120486,20.507812,-63.995361,27.191162,31.783203
42120,6.986280,-0.526724,-1.019930,11.047363,-77.728271,30.700684,31.759766
42160,9.136273,-0.306458,-1.493982,-23.040771,-102.050781,23.162842,31.789062
42200,11.176133,0.402226,1.197101,-2.502441,-59.753418,13.641357,31.777344
42240,12.315774,0.339977,1.786075,20.294189,-16.174316,-12.145996,31.796875
42280,13.024457,-0.138864,-1.637634,21.697998,-19.958496,-19.561768,31.783203
42320,13.747506,-0.799663,-0.488417,20.812988,9.429932,-41.168213,31.787109
42360,13.943830,-0.866701,4.299986,16.235352,106.231689,-54.199219,31.789062
42400,13.259089,-1.096544,3.011906,61.614990,177.764893,-67.291260,31.798828
42440,12.267890,-5.506664,-3.313575,95.245361,95.855713,-47.973633,31.806641
42480,11.880029,-6.114791,-1.192312,118.499756,74.981689,-63.873291,31.849609
42520,11.473015,-0.478840,-0.900220,66.802979,71.014404,-65.368652,31.851562
42560,8.418014,1.053449,-1.857901,-0.885010,67.840576,-81.756592,31.851562
42600,4.491522,-1.331176,-2.849100,-72.265625,26.397705,-76.812744,31.851562
42640,2.671929,-3.064578,-2.078167,-68.969727,-8.758545,-32.867432,31.865234
42680,3.687071,-3.208230,0.359130,-84.167480,-13.824463,25.482178,31.851562
42720,6.315904,-2.561796,3.964798,-160.491943,9.063721,75.775146,31.849609
42760,13.268666,4.122815,9.840169,-3.631592,21.972656,-72.357178,31.841797
42800,14.877569,6.708553,7.996634,-25.604248,22.003174,-12.847900,31.865234
42840,13.709199,3.160346,1.393425,119.628906,-45.745850,30.151367,31.845703
42880,11.817780,-2.207454,0.095768,4.150391,-26.916504,42.205811,31.865234
42920,9.639056,-5.348647,-1.632846,22.277832,-78.399658,25.299072,31.859375
42960,8.331821,-6.105214,-2.767697,-22.674561,-21.850586,52.154541,31.880859
43000,8.700529,-4.414908,-3.907337,-70.251465,-34.790039,64.727783,31.855469
43040,8.887277,-2.829947,-1.115698,-78.033447,-75.164795,61.828613,31.869141
43080,7.651869,-1.810017,3.260903,-60.302734,-18.432617,53.314209,31.869141
43120,7.082048,-0.603339,2.226608,-15.594482,-15.258789,50.231934,31.851562
43160,7.287950,-1.043872,-1.072602,-24.536133,-38.238525,46.936035,31.849609
43200,9.227253,-0.900220,-1.541866,-53.283691,-76.232910,40.954590,31.861328
43240,11.200075,0.373495,1.776498,-33.477783,-53.314209,17.211914,31.861328
43280,12.057199,-0.043096,2.149993,-5.126953,-3.234863,-9.033203,31.871094
43320,12.986150,-1.158794,-1.881842,-3.875732,-16.448975,-15.594482,31.875000
43360,14.092271,-1.527501,-1.130063,6.591797,-5.706787,-20.599365,31.865234
43400,13.977349,0.105345,4.055778,20.050049,70.190430,-29.022217,31.880859
43440,12.971785,1.134852,3.433285,62.835693,169.921875,-52.307129,31.880859
43480,11.085154,-3.002329,-3.155558,11.810303,109.222412,-56.610107,31.865234
43520,9.935937,-4.898537,-2.633622,104.370117,54.779053,-49.224854,31.878906
43560,10.429143,-1.039083,-1.517924,63.140869,45.654297,-68.023682,31.876953
43600,8.963891,1.436521,-1.944092,-24.505615,37.017822,-91.156006,31.867188
43640,6.234501,-0.488417,-2.049437,-106.689453,15.136719,-90.606689,31.876953
43680,4.975151,-2.413355,-1.637634,-131.988525,-3.204346,-47.332764,31.902344
43720,5.420473,-3.165135,-0.430956,-117.889404,-17.059326,13.061523,31.898438
43760,5.760449,-3.648763,1.733402,-165.283203,17.272949,94.085693,31.869141
43800,9.193734,-0.368707,6.325481,-99.487305,8.239746,24.169922,31.888672
43840,14.638149,5.224148,7.838616,-8.239746,-10.223389,-70.861816,31.880859
43880,14.662091,5.257667,2.193089,-25.604248,-14.678955,2.136230,31.896484
43920,13.532028,0.153229,-1.561020,-21.423340,-52.947998,11.413574,31.906250
43960,10.668563,-5.128380,0.047884,-49.926758,7.263184,-1.251221,31.878906
44000,8.307879,-6.641516,-3.356671,-59.631348,-16.601562,37.597656,31.894531
44040,8.532935,-4.635174,-5.372589,-141.052246,-10.498047,34.637451,31.894531
44080,9.117120,-3.452439,-3.529053,-119.262695,-80.780029,49.163818,31.896484
44120,8.461109,-2.964022,2.619257,-129.302979,-35.705566,27.770996,31.890625
44160,7.278373,-1.944092,3.524265,-93.353271,-5.523682,29.235840,31.908203
44200,7.484274,-1.723825,-1.067814,-80.108643,-36.682129,28.900146,31.880859
44240,8.786720,-2.078167,-2.063802,-77.148438,-69.610596,30.334473,31.888672
44280,10.558430,-1.599327,0.818817,-55.786133,-66.314697,16.113281,31.914062
44320,11.822568,-0.330400,2.494758,-28.961182,-13.580322,-0.457764,31.882812
44360,12.627020,-0.095768,1.364695,-22.796631,10.437012,-1.342773,31.904297
44400,13.220781,0.277727,3.289633,-13.366699,66.802979,-34.881592,31.904297
44440,13.196839,0.550666,2.920926,20.477295,128.997803,-45.715332,31.982422
44480,12.890382,0.167594,-1.321599,-34.881592,126.861572,-56.427002,31.972656
44520,13.091495,-1.867477,-3.849876,40.405273,68.389893,-72.418213,31.960938
44560,12.354081,-3.303998,-0.852336,92.132568,76.904297,-61.614990,31.960938
44600,11.008539,-0.555455,-1.005565,5.859375,67.932129,-79.864502,31.982422
44640,8.322245,0.464475,-2.676718,-63.171387,48.828125,-98.815918,31.972656
44680,5.698200,-1.278504,-3.299210,-123.718262,13.885498,-83.709717,31.966797
44720,5.544971,-2.437297,-2.035071,-149.780273,1.037598,-67.199707,31.986328
44760,6.325481,-4.113238,0.134075,-128.387451,-6.042480,-13.824463,31.980469
44800,6.665458,-4.276044,2.671929,-123.413086,1.342773,44.708252,31.982422
44840,9.399636,0.110133,6.703765,-45.501709,4.516602,-6.530762,31.982422
44880,12.914324,4.496311,7.675811,-28.228760,7.110596,-70.281982,31.994141
44920,12.157756,5.803545,4.237737,-50.994873,0.244141,13.122559,31.990234
44960,9.524135,1.666364,-2.140416,59.265137,-118.896484,110.931396,31.986328
45000,10.721235,-2.973598,0.196325,36.346436,-80.322266,-18.524170,31.992188
45040,10.620679,-5.736507,1.077391,-6.652832,-67.657471,-3.173828,31.984375
45080,9.404425,-6.861782,-0.354342,7.171631,-24.291992,45.074463,31.994141
45120,8.968679,-5.980716,-2.671929,-37.139893,-5.157471,86.608887,32.001953
45160,9.188946,-3.208230,-2.724602,-45.196533,-45.806885,96.862793,31.986328
45200,8.068460,-0.962469,-0.119710,-71.289062,-34.210205,56.915283,32.011719
45240,6.670246,-0.277727,1.067814,-14.587402,-51.361084,29.357910,32.007812
45280,6.675035,-1.680730,-0.186748,-25.878906,-33.172607,18.463135,31.998047
45320,9.792285,-1.077391,-1.134852,-63.507080,-50.720215,1.190186,31.988281
45360,11.568783,0.837971,2.082955,-23.529053,-11.108398,0.915527,32.005859
45400,11.415554,0.560243,3.289633,26.885986,2.899170,-17.242432,32.023438
45440,11.865664,-2.015918,-1.608904,45.440674,-34.301758,-18.554688,32.001953
45480,12.852075,-2.207454,-2.949656,-3.936768,-35.552979,-7.202148,32.005859
45520,13.733141,-0.162806,3.098097,40.679932,-0.946045,-27.740479,31.992188
45560,13.053187,1.086968,5.645528,67.169189,98.968506,-65.124512,32.003906
45600,11.458650,-1.771709,0.656011,-36.285400,154.418945,-65.216064,31.986328
45640,11.779472,-4.745308,-2.748544,82.672119,88.104248,-46.447754,32.001953
45680,12.287044,-4.362236,-0.387861,144.561768,35.217285,-64.086914,31.992188
45720,10.074800,-2.044648,-0.450110,84.838867,37.078857,-71.472168,32.029297
45760,7.010222,-0.823605,-1.489193,8.850098,30.761719,-78.002930,32.000000
45800,4.620809,-0.737414,-1.905785,-70.556641,29.998779,-58.135986,31.990234
45840,4.074931,-1.383849,-1.594538,-78.735352,-7.385254,-25.115967,31.994141
45880,4.534618,-2.968810,0.047884,-77.850342,-7.293701,35.644531,32.021484
45920,6.449979,-2.686294,2.882619,-133.483887,5.249023,75.653076,32.042969
45960,13.742718,3.203442,9.318233,43.304443,-31.188965,-84.533691,32.029297
46000,15.461755,7.273585,7.407660,21.057129,34.149170,-28.015137,32.015625
46040,10.989386,2.408567,1.058237,8.483887,13.458252,113.891602,32.021484
46080,9.950302,-1.958457,-2.068590,22.827148,-60.089111,36.376953,32.021484
46120,11.793838,-5.712565,-0.871489,110.565186,-90.454102,-30.456543,32.027344
46160,9.509769,-6.957550,1.738190,12.786865,-50.018311,34.576416,32.035156
46200,8.609550,-7.129933,1.034295,-15.258789,25.421143,80.169678,32.029297
46240,8.954314,-4.754885,-1.910573,-36.041260,-12.756348,74.768066,32.017578
46280,7.723695,-2.039860,-1.398214,-47.058105,-52.032471,53.802490,32.019531
46320,6.593631,-1.513135,-0.665588,-5.950928,-51.025391,44.494629,32.025391
46360,6.904878,-1.173159,0.167594,16.510010,-57.769775,24.658203,32.027344
46400,9.835381,0.737414,0.454898,-31.463623,-62.591553,11.535645,32.003906
46440,10.998962,2.619257,1.168370,10.986328,-30.181885,10.498047,32.039062
46480,11.166556,1.814805,1.723825,17.364502,-9.216309,2.288818,32.060547
46520,11.492168,-1.082179,0.134075,61.584473,-10.955811,-24.810791,32.015625
46560,12.473791,-1.968034,-2.456451,-2.105713,-25.024414,-9.613037,32.033203
46600,13.661315,-0.785298,1.570596,0.274658,16.082764,-17.730713,32.037109
46640,12.435484,0.225055,5.458780,12.939453,6.561279,-25.634766,32.042969
46680,11.918336,-1.283292,3.251326,6.744385,161.926270,-55.816650,32.091797
46720,12.061988,-4.553771,-2.154782,66.192627,102.416992,-54.199219,32.074219
46760,12.287044,-5.358223,0.167594,179.992676,0.976562,-82.824707,32.082031
46800,10.477027,-1.958457,-0.569820,51.971436,43.121338,-79.589844,32.070312
46840,7.690176,-0.076614,-1.479617,-5.798340,37.109375,-91.918945,32.064453
46880,4.587290,-1.474828,-2.092532,-69.915771,25.543213,-66.162109,32.091797
46920,3.538630,-2.413355,-1.369483,-74.981689,-9.277344,-28.259277,32.097656
46960,4.390966,-2.614468,0.799663,-70.098877,-11.505127,33.508301,32.072266
47000,6.397307,-2.207454,3.404555,-116.333008,-4.699707,81.573486,32.087891
47040,13.206416,3.749320,8.710106,-0.671387,-4.486084,-51.330566,32.093750
47080,15.179238,7.345411,7.211336,4.760742,22.552490,-31.951904,32.097656
47120,11.851298,2.135628,1.273715,57.220459,2.044678,79.193115,32.097656
47160,11.066000,-2.882619,-0.890643,30.426025,-79.193115,46.508789,32.111328
47200,10.568007,-4.510676,0.359130,31.677246,-40.283203,5.859375,32.103516
47240,8.963891,-5.798757,0.134075,14.831543,-30.395508,48.553467,32.101562
47280,8.101978,-6.014235,-1.297657,-50.781250,7.293701,67.199707,32.113281
47320,8.944737,-4.362236,-2.217031,-67.138672,-4.119873,71.441650,32.113281
47360,8.868123,-1.728614,0.636858,-34.362793,-30.395508,50.109863,32.087891
47400,7.292738,-0.244209,1.857901,-31.250000,-21.728516,17.364502,32.095703
47440,6.986280,-0.952892,0.186748,34.881592,-54.260254,28.259277,32.132812
47480,8.671799,-1.187524,-0.790087,0.396729,-58.776855,27.252197,32.101562
47520,10.529699,0.746991,0.986411,7.720947,-44.403076,35.675049,32.117188
47560,10.874464,1.072602,3.078943,15.533447,-11.718750,12.725830,32.117188
47600,11.559206,-0.526724,1.632846,43.579102,-3.662109,-18.859863,32.130859
47640,12.727576,-1.244985,-1.292869,-24.139404,-9.033203,-16.448975,32.109375
47680,14.374787,-0.210690,1.350330,-60.668945,39.245605,-25.482178,32.113281
47720,13.192051,1.355118,3.701436,20.965576,59.082031,-21.240234,32.130859
47760,11.362882,-0.057461,4.266468,58.685303,61.431885,-32.836914,32.130859
47800,12.033257,-5.655105,-0.962469,68.450928,144.012451,-78.277588,32.154297
47840,11.745954,-5.343858,-1.532289,163.116455,-17.425537,-66.528320,32.130859
47880,10.328587,-0.809240,-1.034295,38.879395,40.039062,-90.118408,32.140625
47920,7.331046,-0.239420,-1.312023,-57.403564,58.746338,-86.120605,32.140625
47960,4.826711,-1.441309,-1.891419,-116.271973,25.726318,-71.258545,32.156250
48000,4.299986,-2.499547,-1.393425,-106.323242,-2.807617,-32.836914,32.150391
48040,4.290410,-3.792415,0.306458,-88.348389,1.373291,34.301758,32.146484
48080,6.574478,-2.614468,2.240973,-120.727539,10.681152,89.630127,32.156250
48120,13.278243,2.432509,9.672575,-15.380859,-45.959473,-40.069580,32.152344
48160,15.907076,7.809886,7.388506,1.800537,16.571045,-18.432617,32.148438
48200,12.899959,2.667141,-0.632069,-51.239014,11.108398,67.169189,32.158203
48240,10.682928,-3.026271,-0.047884,5.340576,28.289795,-5.310059,32.162109
48280,9.548077,-5.315128,-0.110133,20.782471,-42.724609,-29.357910,32.167969
48320,7.776367,-8.930372,-0.335188,-9.185791,-22.186279,48.126221,32.173828
48360,8.714894,-6.675035,-1.642422,-70.861816,27.709961,72.174072,32.152344
48400,9.691729,-3.390190,-1.407791,-99.639893,-38.208008,71.014404,32.173828
48440,8.465898,-0.861913,1.632846,-99.334717,-44.219971,42.541504,32.169922
48480,6.761226,0.019154,2.183512,-22.277832,-55.603027,34.545898,32.164062
48520,6.612785,-1.872266,0.512359,5.981445,-67.749023,34.057617,32.183594
48560,8.954314,-1.197101,-0.253785,-23.162842,-81.665039,20.690918,32.169922
48600,10.826580,0.335188,2.082955,-5.889893,-46.325684,26.092529,32.181641
48640,11.506534,-0.679953,2.466028,34.362793,-8.270264,-4.364014,32.193359
48680,12.186486,-2.025495,-0.699107,52.581787,-10.131836,-27.862549,32.164062
48720,12.761095,-1.201889,-0.138864,-57.617188,12.390137,-2.044678,32.156250
48760,13.536817,-0.679953,4.170700,12.054443,71.716309,-19.165039,32.179688
48800,11.784261,-0.359130,4.984728,80.932617,174.621582,-60.913086,32.183594
48840,11.367670,-5.018247,1.398214,-4.974365,130.126953,-29.449463,32.175781
48880,12.038046,-7.326257,-1.460463,109.191895,36.651611,-10.406494,32.160156
48920,11.118672,-3.069367,-0.603339,120.513916,-61.706543,-13.916016,32.175781
48960,8.149862,-0.876278,2.097321,96.771240,-1.617432,-57.250977,32.175781
49000,4.697424,-1.604115,-0.474052,-37.231445,11.840820,-37.536621,32.179688
49040,3.600879,-2.767697,-1.900996,-13.763428,-43.792725,-14.801025,32.179688
49080,5.109226,-2.863465,-0.761356,-44.433594,-34.149170,25.543213,32.203125
49120,6.086061,-4.146757,1.632846,-156.433105,40.924072,92.193604,32.187500
49160,8.949526,-2.619257,4.434062,-121.551514,-21.026611,80.780029,32.185547
49200,15.773001,3.313575,7.656657,185.241699,-105.743408,-69.610596,32.175781
49240,15.107412,3.141193,5.449203,-9.490967,3.631592,-14.709473,32.183594
49280,10.931925,-1.924938,-0.292093,-198.059082,38.757324,48.431396,32.195312
49320,9.165004,-5.770026,0.565032,-62.347412,139.160156,-6.652832,32.179688
49360,8.010999,-9.222465,0.790087,40.069580,29.815674,-16.632080,32.201172
49400,8.001422,-8.968679,-3.591303,-43.670654,-6.866455,26.763916,32.208984
49440,9.255983,-5.779603,-3.174711,-37.658691,-24.261475,-19.439697,32.195312
49480,8.863335,-3.337517,-0.067038,-88.165283,-96.374512,16.479492,32.187500
49520,7.766790,-1.106121,2.059013,9.643555,-81.085205,22.827148,32.189453
49560,6.607996,-0.718261,0.866701,-18.951416,-69.702148,22.766113,32.205078
49600,7.498640,-1.096544,0.043096,-19.561768,-82.275391,11.413574,32.197266
49640,9.193734,-1.268927,0.804452,-52.612305,-76.446533,15.289307,32.208984
49680,10.405201,-0.995988,2.375048,-8.117676,-35.614014,6.500244,32.214844
49720,11.602302,-0.909797,1.747767,83.343506,-24.108887,-16.937256,32.271484
49760,12.349293,-1.752556,-1.197101,92.193604,-43.243408,-15.502930,32.273438
49800,12.746730,-2.274492,0.134075,-97.259521,19.073486,-8.941650,32.257812
49840,13.254301,-1.503559,4.793192,101.501465,78.918457,-30.242920,32.269531
49880,11.903971,-1.867477,3.936068,55.816650,172.393799,-43.060303,32.283203
49920,11.305421,-4.161122,0.933739,-18.615723,133.300781,-39.154053,32.275391
49960,11.937490,-5.645528,-1.714248,140.686035,27.954102,-23.651123,32.261719
50000,10.635044,-4.199430,-0.272939,265.777588,-42.175293,-69.671631,32.267578
50040,8.303091,-0.804452,0.153229,36.895752,28.869629,-87.554932,32.281250
50080,5.549759,-1.426944,-0.713472,-54.687500,45.867920,-70.983887,32.261719
50120,4.242526,-1.991976,-1.628057,-53.009033,-10.498047,-42.449951,32.271484
50160,4.783615,-2.671929,-0.588974,-44.952393,-29.815674,10.345459,32.263672
50200,5.975927,-3.055001,1.422156,-102.111816,4.547119,71.746826,32.265625
50240,9.907207,-0.790087,5.746084,-6.164551,-52.490234,12.969971,32.271484
50280,15.500062,5.070919,9.169792,128.601074,-39.489746,-83.160400,32.289062
50320,13.426683,3.897760,5.276821,-57.586670,42.510986,24.322510,32.263672
50360,10.409989,-0.205901,-1.431733,-130.004883,-8.514404,95.245361,32.283203
50400,10.596737,-4.759673,-0.301669,-0.793457,-29.113770,-8.178711,32.275391
50440,8.930372,-7.173028,0.737414,-6.774902,-5.584717,14.404297,32.287109
50480,8.250419,-7.422025,-2.466028,-27.526855,-1.831055,59.600830,32.283203
50520,8.973468,-4.783615,-4.424485,-32.012939,-48.065186,58.197021,32.273438
50560,8.724471,-3.227384,-1.805228,-57.373047,-82.794189,45.959473,32.257812
50600,7.929596,-1.532289,1.776498,-23.773193,-40.832520,38.879395,32.285156
50640,7.551312,-0.517148,1.034295,1.861572,-62.835693,32.287598,32.271484
50680,8.532935,-0.416591,-0.004788,4.547119,-71.807861,15.777588,32.294922
50720,9.701305,0.086191,0.306458,-18.798828,-63.232422,15.075684,32.294922
50760,10.117896,-0.316035,1.857901,-0.183105,-34.729004,5.798340,32.273438
50800,10.922348,-1.340753,0.708684,29.052734,-24.932861,-13.275146,32.285156
50840,11.956643,-1.891419,-2.542642,22.705078,-33.874512,-20.538330,32.279297
50880,13.450625,-1.867477,-0.469264,-9.918213,-7.049561,-26.824951,32.289062
50920,14.393941,-1.786075,3.375824,44.372559,71.624756,-23.284912,32.304688
50960,12.291832,-1.843535,4.070143,12.939453,175.628662,-29.724121,32.304688
51000,10.453085,-5.142745,0.545878,28.015137,158.325195,-37.963867,32.296875
51040,10.649409,-6.133945,-3.280056,87.554932,47.058105,-22.369385,32.304688
51080,10.711658,-2.015918,-1.388637,294.830322,-17.303467,-78.796387,32.298828
51120,8.360553,-0.339977,0.205901,58.013916,34.301758,-72.937012,32.304688
51160,5.808333,-1.225831,-0.876278,-44.403076,34.118652,-74.829102,32.296875
51200,4.874595,-1.958457,-1.517924,-43.701172,-15.930176,-50.872803,32.300781
51240,5.592855,-2.188300,-0.469264,-49.530029,-29.266357,5.401611,32.310547
51280,6.200983,-2.580950,1.728614,-104.766846,20.233154,76.110840,32.304688
51320,8.815451,-0.751779,5.018247,-82.702637,-11.077881,37.658691,32.328125
51360,14.255077,4.347870,8.212111,133.972168,-81.848145,-70.556641,32.332031
51400,13.618219,3.878607,5.664681,-30.822754,37.109375,0.091553,32.314453
51440,11.463438,0.330400,-0.933739,-68.054199,22.918701,87.677002,32.328125
51480,10.773908,-4.386178,0.220267,-15.502930,-27.893066,-5.889893,32.310547
51520,8.925584,-7.077260,1.556231,7.110596,-24.230957,-0.152588,32.332031
51560,7.848193,-7.656657,-1.359907,-19.042969,7.629395,64.147949,32.328125
51600,8.734048,-4.486734,-3.303998,-35.827637,-19.622803,70.281982,32.341797
51640,9.399636,-2.221819,-2.217031,-99.914551,-64.300537,33.813477,32.316406
51680,8.327033,-1.130063,0.732626,-70.129395,-30.914307,19.927979,32.318359
51720,7.196970,-0.579397,0.426168,-8.117676,-67.962646,23.803711,32.365234
51760,7.982268,-0.679953,-0.095768,42.083740,-101.623535,9.704590,32.382812
51800,9.466674,-0.636858,0.043096,-3.479004,-83.557129,17.486572,32.365234
51840,10.362105,-0.277727,1.613692,15.563965,-51.940918,16.052246,32.369141
51880,11.032481,-0.746991,1.484405,33.843994,-23.895264,-7.415771,32.376953
51920,11.990162,-1.810017,-1.513135,13.153076,-27.648926,-9.277344,32.388672
51960,13.105860,-1.958457,-0.550666,-9.765625,-9.094238,-13.793945,32.382812
52000,14.001291,-1.556231,3.299210,21.850586,60.882568,-24.475098,32.375000
52040,12.569559,-1.249773,3.280056,31.616211,121.978760,-26.031494,32.388672
52080,10.869676,-3.873818,1.733402,38.879395,172.943115,-54.351807,32.392578
52120,11.276690,-6.129156,-2.427721,112.152100,87.799072,-46.508789,32.388672
52160,11.142614,-3.385401,-2.164358,229.248047,-13.153076,-67.657471,32.367188
52200,9.174581,-1.312023,0.512359,108.428955,34.637451,-76.568604,32.394531
52240,6.253655,-1.139640,-0.689530,-16.906738,45.104980,-62.713623,32.382812
52280,4.659117,-1.244985,-1.771709,-44.982910,11.657715,-46.691895,32.390625
52320,4.721366,-2.011129,-1.120486,-49.987793,-15.716553,-4.974365,32.398438
52360,5.430049,-2.705448,0.699107,-87.402344,-4.638672,55.633545,32.398438
52400,7.680599,-1.398214,3.294421,-138.458252,-14.648438,72.906494,32.412109
52440,14.269443,3.897760,9.327810,133.026123,-61.859131,-64.849854,32.392578
52480,14.369999,4.577713,7.149086,1.464844,43.151855,-16.479492,32.402344
52520,12.085930,0.905008,0.349553,-5.096436,9.887695,60.943604,32.390625
52560,11.276690,-2.973598,-0.962469,-0.579834,-53.222656,-1.068115,32.408203
52600,9.414001,-6.440403,1.048660,-1.342773,-24.017334,-5.187988,32.392578
52640,8.216900,-7.201759,-0.339977,-15.960693,15.869141,61.889648,32.378906
52680,8.791509,-4.256891,-3.050213,-47.302246,-0.946045,63.262939,32.394531
52720,8.911219,-2.542642,-2.585738,-73.364258,-53.558350,49.743652,32.406250
52760,8.159439,-1.517924,0.258574,-63.568115,-50.933838,36.132812,32.394531
52800,7.374141,-0.656011,0.842759,-16.418457,-54.382324,26.367188,32.408203
52840,7.809886,-0.986411,0.081403,22.644043,-78.491211,18.585205,32.404297
52880,9.251195,-0.761356,-0.565032,-9.674072,-87.585449,29.479980,32.392578
52920,10.251971,-0.248997,1.369483,4.547119,-63.629150,27.862549,32.394531
52960,10.726024,-0.100556,2.571373,11.199951,-17.913818,0.335693,32.396484
53000,11.674128,-0.857124,0.071826,19.470215,-23.040771,-7.934570,32.394531
53040,12.215217,-1.666364,-0.991199,3.570557,-21.057129,-12.512207,32.416016
53080,13.244724,-1.786075,2.509123,17.150879,41.351318,-23.925781,32.406250
53120,13.249513,-0.464475,3.136404,29.113770,115.264893,-29.479980,32.416016
53160,11.717223,-1.455675,1.503559,36.560059,137.847900,-65.246582,32.402344
53200,11.899182,-5.841852,-1.312023,146.545410,92.163086,-67.443848,32.404297
53240,11.147403,-5.951985,-1.805228,149.108887,-18.920898,-47.515869,32.416016
53280,9.873688,-1.455675,-0.272939,57.891846,43.182373,-69.854736,32.408203
53320,7.345411,-0.009577,-0.785298,-4.577637,44.342041,-71.990967,32.433594
53360,4.764462,-1.403002,-1.877054,-68.389893,22.857666,-39.916992,32.416016
53400,4.467580,-2.169147,-1.403002,-67.840576,-6.805420,-8.483887,32.427734
53440,5.272032,-2.614468,0.483629,-80.352783,-11.627197,34.088135,32.431641
53480,7.000646,-2.355895,2.585738,-122.955322,-19.165039,53.710938,32.425781
53520,12.885593,2.384625,8.676587,33.721924,3.417969,-32.135010,32.421875
53560,14.954184,5.554548,7.790732,14.556885,15.167236,-26.306152,32.425781
53600,14.963760,2.911349,0.823605,71.502686,16.021729,-1.831055,32.433594
53640,11.042058,-3.390190,-0.033519,-24.566650,-16.937256,-6.225586,32.441406
53680,7.915231,-7.292738,0.248997,17.364502,-9.094238,39.611816,32.474609
53720,8.020576,-6.071695,-2.537854,-19.012451,1.678467,64.483643,32.480469
53760,8.614338,-3.672705,-4.070143,-50.659180,-45.166016,45.745850,32.466797
53800,8.542512,-4.103662,-1.431733,-63.232422,-48.858643,57.037354,32.484375
53840,8.925584,-2.580950,1.345541,-74.737549,-33.660889,51.116943,32.476562
53880,9.145850,0.028730,0.727837,-62.347412,-48.309326,25.909424,32.478516
53920,8.705317,0.023942,-0.158017,5.828857,-71.655273,26.885986,32.503906
53960,8.887277,-0.991199,-0.215478,-12.542725,-73.120117,26.855469,32.503906
54000,9.634268,-1.240196,1.010353,-0.976562,-68.115234,20.050049,32.494141
54040,10.620679,-0.938527,1.719037,18.402100,-32.531738,4.272461,32.494141
54080,11.420342,-0.957681,0.067038,9.033203,-21.728516,4.760742,32.511719
54120,12.014104,-0.464475,-0.478840,11.505127,-18.859863,-6.286621,32.515625
54160,12.583924,-0.454898,2.408567,38.635254,26.397705,-28.381348,32.507812
54200,12.636597,-0.905008,3.074155,25.604248,99.609375,-33.020020,32.500000
54240,11.650186,-1.575385,1.201889,-2.563477,146.148682,-43.304443,32.490234
54280,11.908759,-3.859453,-1.000776,86.059570,124.481201,-52.124023,32.496094
54320,11.923124,-4.869806,-3.040636,117.126465,14.007568,-38.513184,32.474609
54360,10.309433,-1.982399,-0.244209,116.607666,1.220703,-61.828613,32.498047
54400,8.015787,-0.751779,1.015141,1.861572,60.150146,-73.669434,32.503906
54440,5.358223,-1.776498,-1.101333,-49.987793,32.165527,-48.980713,32.486328
54480,5.027823,-2.331953,-1.781286,-55.297852,-14.373779,-24.353027,32.505859
54520,6.268020,-2.772485,0.043096,-61.981201,-20.202637,-2.288818,32.505859
54560,7.058106,-3.093309,2.111686,-80.688477,3.753662,50.109863,32.505859
54600,9.481039,-0.090980,5.185841,-28.411865,-42.297363,35.491943,32.515625
54640,13.560759,4.898537,7.240066,56.518555,-25.268555,-36.926270,32.529297
54680,12.832921,4.338294,4.204218,-36.499023,20.690918,-2.441406,32.501953
54720,11.099519,0.325611,-0.081403,-3.051758,11.108398,41.229248,32.501953
54760,11.018116,-3.356671,0.718261,44.433594,-24.291992,1.190186,32.500000
54800,9.605537,-6.253655,1.374272,-8.209229,7.965088,-4.486084,32.519531
54840,8.068460,-7.149086,-0.780510,-40.832520,16.235352,59.692383,32.523438
54880,8.791509,-4.592079,-3.610456,-62.438965,-3.173828,50.781250,32.509766
54920,9.203311,-3.169923,-1.527501,-77.331543,-48.248291,25.909424,32.542969
54960,8.542512,-1.810017,1.632846,-72.296143,-35.614014,16.906738,32.519531
55000,7.872135,-0.454898,1.149217,-19.866943,-58.715820,26.245117,32.529297
55040,8.121132,-0.928950,-0.158017,10.192871,-73.211670,23.193359,32.505859
55080,9.375694,-0.670376,-0.440533,-49.133301,-70.648193,33.325195,32.523438
55120,10.122684,0.119710,1.920150,-9.185791,-51.208496,28.137207,32.519531
55160,10.208876,-0.038307,2.829947,22.216797,-20.721436,-2.838135,32.523438
55200,10.797850,-1.479617,-0.090980,37.628174,-38.238525,-8.178711,32.527344
55240,11.994950,-1.786075,-2.647987,-9.155273,-38.574219,-4.699707,32.527344
55280,13.441049,-1.000776,1.479617,37.933350,-6.744385,-18.524170,32.523438
55320,13.694834,-1.015141,4.046201,29.449463,68.939209,-17.578125,32.505859
55360,11.602302,-0.689530,3.821146,23.986816,120.361328,-41.992188,32.533203
55400,10.764331,-3.878607,1.201889,44.769287,167.999268,-59.509277,32.513672
55440,11.583148,-5.755661,-2.748544,137.176514,57.464600,-39.184570,32.523438
55480,10.663774,-3.002329,-1.125275,180.297852,-47.424316,-56.335449,32.542969
55520,8.671799,-1.072602,0.469264,59.600830,32.318115,-74.035645,32.523438
55560,6.162675,-1.513135,-0.622492,-38.848877,44.860840,-62.561035,32.548828
55600,5.185841,-1.867477,-1.288081,-60.241699,9.979248,-42.816162,32.539062
55640,5.683835,-1.948880,-0.258574,-51.574707,-14.221191,-6.896973,32.539062
55680,5.908890,-2.475605,1.527501,-75.653076,3.417969,45.776367,32.595703
55720,7.565677,-0.976834,3.897760,-90.362549,-34.027100,50.537109,32.597656
55760,13.579912,4.165911,8.049306,63.385010,-44.342041,-49.316406,32.607422
55800,14.638149,5.161899,6.057330,0.518799,13.244629,-20.721436,32.599609
55840,12.694057,0.866701,-0.047884,21.118164,13.854980,56.945801,32.601562
55880,11.113884,-3.667917,0.067038,-10.284424,-31.280518,-7.690430,32.603516
55920,8.681376,-6.756437,1.149217,24.414062,-18.310547,14.556885,32.617188
55960,7.704541,-7.105990,-0.584185,-4.241943,9.918213,64.849854,32.605469
56000,8.513782,-4.620809,-3.265691,-47.180176,0.579834,66.009521,32.611328
56040,9.437943,-2.580950,-2.346318,-49.835205,-57.739258,37.475586,32.623047
56080,8.566454,-1.613692,1.211466,-26.947021,-41.351318,28.991699,32.607422
56120,7.757214,-0.660800,1.091756,-24.047852,-42.968750,21.789551,32.609375
56160,8.097190,-0.689530,-0.225055,14.495850,-66.223145,16.662598,32.611328
56200,9.562442,-0.177171,-0.871489,-10.742188,-80.444336,28.167725,32.601562
56240,10.347740,0.397437,1.000776,15.258789,-61.279297,34.515381,32.605469
56280,10.295067,0.220267,2.619257,7.507324,-15.838623,-1.342773,32.597656
56320,10.975020,-1.359907,0.454898,28.137207,-11.505127,-15.045166,32.632812
56360,11.832145,-2.073379,-2.044648,5.218506,-22.277832,-2.227783,32.605469
56400,13.077129,-1.187524,1.359907,29.052734,8.209229,-18.402100,32.619141
56440,13.632585,-0.296881,3.457227,21.179199,85.052490,-28.015137,32.632812
56480,12.014104,-0.057461,2.389413,23.895264,131.652832,-37.902832,32.621094
56520,10.927136,-3.026271,0.608127,80.474854,128.570557,-59.661865,32.636719
56560,11.185710,-6.402095,-2.494758,103.881836,37.658691,-40.252686,32.626953
56600,10.539276,-3.471592,-0.746991,157.043457,-61.798096,-48.553467,32.625000
56640,8.767567,-0.263362,0.478840,53.863525,20.843506,-68.878174,32.626953
56680,6.646304,0.052672,-1.039083,-62.438965,36.956787,-73.883057,32.632812
56720,5.305551,-1.575385,-1.565808,-98.541260,4.699707,-41.137695,32.621094
56760,5.770026,-2.729390,-0.565032,-74.951172,-19.104004,-3.479004,32.636719
56800,6.392519,-3.399766,1.369483,-73.059082,9.490967,44.769287,32.636719
56840,7.723695,-1.910573,2.758120,-98.236084,-15.197754,63.751221,32.621094
56880,12.722788,2.767697,7.283162,36.804199,-52.124023,-24.108887,32.632812
56920,14.954184,6.483498,5.161899,19.805908,-0.976562,-32.806396,32.626953
56960,13.230358,1.972822,-0.229843,18.890381,-0.946045,12.756348,32.611328
57000,11.161768,-2.638410,-1.211466,-32.897949,-20.660400,13.824463,32.609375
57040,9.193734,-6.114791,1.714248,-5.676270,-17.730713,2.593994,32.628906
57080,7.738060,-7.235278,0.928950,21.209717,24.627686,50.964355,32.621094
57120,7.896077,-5.367800,-2.710236,-28.015137,3.662109,57.800293,32.615234
57160,8.360553,-4.180276,-3.433285,-57.525635,-35.003662,62.377930,32.632812
57200,8.604761,-2.777274,0.110133,-65.887451,-29.937744,36.773682,32.650391
57240,8.753201,-0.373495,1.374272,-44.158936,-34.912109,15.655518,32.626953
57280,8.748413,0.062249,0.598550,9.124756,-60.058594,25.543213,32.632812
57320,9.500193,-0.339977,0.459687,-7.812500,-56.518555,19.226074,32.656250
57360,10.213664,0.215478,1.359907,-1.953125,-39.886475,19.958496,32.628906
57400,10.079589,0.234632,1.934515,17.791748,-19.256592,2.838135,32.638672
57440,10.371682,-0.866701,0.110133,20.385742,-10.925293,-10.772705,32.617188
57480,11.338940,-1.728614,-2.145205,20.111084,-25.299072,-5.371094,32.644531
57520,12.200851,-1.359907,0.545878,14.770508,-9.735107,-4.760742,32.660156
57560,13.101071,-0.565032,3.830723,70.129395,43.273926,-18.493652,32.646484
57600,12.277467,-0.248997,3.380613,45.715332,114.440918,-28.717041,32.654297
57640,10.711658,-2.427721,1.661576,62.377930,127.624512,-46.081543,32.708984
57680,10.951078,-5.444415,-1.407791,93.078613,67.382812,-48.828125,32.742188
57720,11.013328,-4.491522,-0.608127,196.990967,-81.359863,-48.675537,32.716797
57760,9.533711,-1.307234,0.440533,73.608398,19.226074,-58.227539,32.697266
57800,7.163452,0.095768,-0.651223,-14.312744,34.210205,-62.683105,32.716797
57840,5.406107,-0.703895,-1.374272,-77.606201,18.371582,-44.342041,32.726562
57880,5.439626,-1.867477,-1.063026,-76.690674,-21.545410,-14.617920,32.738281
57920,6.339846,-2.796427,0.703895,-70.892334,-7.690430,23.437500,32.738281
57960,7.206547,-2.193089,2.221819,-100.036621,15.106201,65.948486,32.728516
58000,10.788273,1.642422,5.861006,-55.328369,-96.099854,13.366699,32.740234
58040,15.169662,6.517017,6.598420,53.314209,-21.148682,-50.506592,32.712891
58080,13.704411,2.815581,2.035071,-16.845703,-22.949219,5.493164,32.734375
58120,11.856087,-1.810017,-1.632846,2.990723,49.957275,26.916504,32.728516
58160,10.046070,-4.759673,1.407791,-45.806885,-27.252197,-44.952393,32.703125
58200,7.752425,-7.584831,2.073379,32.379150,12.054443,37.475586,32.722656
58240,7.445967,-6.378153,-1.187524,-13.214111,6.347656,74.645996,32.736328
58280,9.107543,-3.600879,-3.878607,-32.012939,-10.498047,63.140869,32.726562
58320,9.552865,-2.312799,-0.593762,-45.349121,-25.146484,49.743652,32.755859
58360,8.413225,-0.497994,2.284068,-37.384033,-29.052734,22.583008,32.742188
58400,7.565677,-0.641646,1.034295,18.096924,-54.962158,28.625488,32.746094
58440,8.279149,-0.928950,0.110133,-1.892090,-57.067871,16.845703,32.742188
58480,9.821015,0.086191,0.593762,-11.077881,-61.889648,30.853271,32.744141
58520,10.199299,0.660800,2.379837,12.542725,-28.015137,22.552490,32.746094
58560,10.457873,-0.593762,1.570596,16.448975,-8.758545,-15.075684,32.732422
58600,11.846510,-1.800440,-1.675941,27.343750,-16.784668,-26.275635,32.728516
58640,13.431472,-0.320823,-0.181959,-40.100098,3.204346,-4.638672,32.732422
58680,14.207192,-0.009577,4.999093,72.784424,66.497803,-38.635254,32.755859
58720,12.157756,-1.546654,3.964798,-14.953613,102.416992,-39.062500,32.738281
58760,10.998962,-4.726154,2.255338,63.842773,164.459229,-52.429199,32.740234
58800,11.401189,-5.985504,-1.403002,125.823975,58.593750,-29.113770,32.748047
58840,10.419566,-2.418144,-0.995988,201.599121,-65.673828,-51.086426,32.732422
58880,8.312668,0.320823,0.268151,44.128418,29.449463,-72.875977,32.761719
58920,5.731719,0.138864,-0.512359,-71.319580,35.217285,-67.230225,32.732422
58960,4.405331,-1.264138,-1.201889,-65.155029,-14.434814,-50.994873,32.759766
59000,4.984728,-2.667141,-0.229843,-66.406250,-40.832520,-2.960205,32.771484
59040,6.239290,-2.987964,1.637634,-92.224121,3.234863,59.112549,32.748047
59080,8.322245,-0.842759,3.835511,-148.193359,-25.421143,70.434570,32.777344
59120,14.504074,4.908113,8.494628,154.571533,-89.172363,-49.255371,32.763672
59160,14.954184,5.564125,5.803545,3.570557,15.808105,4.699707,32.753906
59200,12.076353,-0.071826,-1.321599,-46.539307,19.195557,71.807861,32.746094
59240,11.219229,-4.520253,0.052672,36.163330,10.406494,-12.756348,32.755859
59280,9.366117,-6.847417,1.240196,-9.582520,-40.130615,-11.596680,32.740234
59320,7.575254,-7.900866,0.679953,-1.892090,-17.028809,70.220947,32.779297
59360,7.637504,-5.884948,-2.341529,-35.827637,-29.632568,86.761475,32.748047
59400,8.695741,-3.706224,-2.513912,-68.328857,-30.120850,58.532715,32.750000
59440,7.939173,-1.139640,-0.167594,-72.723389,-34.179688,25.207520,32.742188
59480,7.287950,-0.229843,0.301669,5.615234,-75.286865,37.445068,32.751953
59520,8.216900,-0.943315,0.105345,-16.510010,-54.016113,33.538818,32.765625
59560,9.921572,-0.177171,0.852336,-22.369385,-50.262451,41.076660,32.818359
59600,10.467450,0.229843,2.633622,-5.767822,-31.219482,17.517090,32.802734
59640,11.233594,-1.101333,1.647211,35.125732,-25.512695,-17.120361,32.804688
59680,12.492945,-1.379060,-1.857901,49.835205,-28.533936,-22.583008,32.837891
59720,13.139379,0.172383,1.034295,-60.089111,19.378662,-9.368896,32.839844
59760,12.947843,-1.297657,7.201759,152.740479,114.715576,-60.546875,32.814453
59800,12.641385,-2.954445,3.031059,-6.561279,200.225830,-89.935303,32.835938
59840,13.168109,-5.640739,-1.379060,25.726318,139.801025,-65.063477,32.828125
59880,12.545617,-6.248867,-1.934515,133.361816,-12.817383,-22.430420,32.818359
59920,10.089166,-2.911349,1.312023,227.386475,-23.345947,-69.915771,32.828125
59960,7.196970,-0.814029,0.263362,20.446777,27.862549,-76.934814,32.830078
60000,4.606444,-1.326388,-1.154005,-47.088623,20.355225,-63.201904,32.832031
60040,3.888184,-1.963245,-1.556231,-40.588379,-44.250488,-39.031982,32.839844
60080,4.711789,-2.734178,0.588974,-63.293457,-6.164551,19.653320,32.826172
60120,6.397307,-2.394202,2.590526,-122.558594,40.405273,94.451904,32.820312
60160,12.761095,2.121263,7.694964,77.056885,-92.437744,-20.385742,32.814453
60200,16.256630,7.225701,7.833828,44.128418,-3.814697,-27.709961,32.843750
60240,12.272678,2.777274,1.426944,-28.228760,49.285889,94.207764,32.849609
60280,10.860099,-3.026271,-0.047884,-32.928467,8.941650,7.263184,32.824219
60320,10.184934,-5.487510,-0.100556,-4.638672,-38.177490,-42.358398,32.847656
60360,8.264784,-7.115568,0.114922,-13.641357,-41.137695,26.214600,32.857422
60400,7.455544,-6.732495,-0.411803,-50.781250,34.118652,76.934814,32.820312
60440,9.064447,-3.974375,-2.331953,-90.881348,-1.831055,55.114746,32.824219
60480,8.829816,-1.819593,-0.469264,-52.581787,-53.649902,34.027100,32.865234
60520,6.890512,-1.278504,0.914585,-29.968262,-55.145264,19.378662,32.828125
60560,6.933608,-1.613692,0.459687,23.010254,-77.819824,28.472900,32.857422
60600,9.318233,-0.201113,-0.033519,-3.021240,-85.418701,25.878906,32.863281
60640,10.879252,1.240196,1.604115,15.441895,-50.537109,26.733398,32.847656
60680,11.027693,1.182736,3.055001,16.265869,-12.023926,0.610352,32.849609
60720,11.688493,-1.106121,-0.038307,30.517578,-18.188477,-13.183594,32.826172
60760,13.096283,-2.456451,-1.441309,-49.194336,27.343750,-9.338379,32.845703
60800,14.369999,-1.326388,2.619257,5.645752,43.731689,-37.414551,32.853516
60840,12.962208,1.072602,4.477157,56.152344,61.553955,-28.900146,32.849609
60880,12.176909,-1.374272,4.783615,109.436035,150.329590,-50.659180,32.847656
60920,12.315774,-7.053318,-0.512359,94.482422,160.217285,-66.772461,32.859375
60960,11.070788,-4.486734,-4.520253,140.869141,-83.557129,-32.958984,32.882812
61000,9.356541,-0.201113,0.359130,68.359375,4.852295,-101.806641,32.857422
61040,6.167464,-1.312023,-0.215478,-68.420410,58.349609,-111.022949,32.857422
61080,4.022259,-2.691083,-1.364695,-92.041016,12.817383,-72.021484,32.857422
61120,4.290410,-2.236184,-0.751779,-53.833008,-20.294189,-14.526367,32.859375
61160,5.085284,-1.982399,1.283292,-76.995850,4.974365,57.250977,32.869141
61200,8.355764,0.799663,5.415684,-112.213135,-32.379150,42.602539,32.869141
61240,14.853627,7.244854,7.532158,16.387939,-44.342041,-55.450439,32.859375
61280,13.393165,5.616797,5.525817,-33.203125,51.239014,12.451172,32.886719
61320,9.734824,1.005565,0.703895,89.904785,11.596680,181.701660,32.871094
61360,11.042058,-5.018247,-0.248997,39.367676,-75.622559,-7.781982,32.878906
61400,10.678140,-5.774815,-0.723049,-23.590088,-74.493408,7.995605,32.876953
61440,8.480263,-6.258443,0.742203,-15.899658,-19.927979,62.500000,32.871094
61480,8.001422,-5.439626,-0.847547,-54.992676,61.859131,92.498779,32.878906
61520,9.873688,-1.776498,-3.782839,-108.032227,-56.365967,41.534424,32.917969
61560,8.700529,-0.234632,0.028730,-14.556885,-106.475830,42.572021,32.919922
61600,6.521805,-1.369483,2.772485,-22.277832,-29.235840,21.606445,32.939453
61640,6.794744,-1.843535,0.679953,-37.292480,-24.902344,9.307861,32.923828
61680,9.279925,-0.871489,-1.742979,-30.151367,-75.042725,27.770996,32.914062
61720,11.008539,0.263362,0.459687,-15.136719,-45.471191,32.135010,32.937500
61760,11.338940,0.512359,2.614468,11.627197,-15.380859,-7.934570,32.923828
61800,12.071565,-1.120486,-0.909797,11.383057,-23.254395,-10.528564,32.925781
61840,13.053187,-1.173159,-0.469264,-17.486572,-4.608154,-20.874023,32.921875
61880,14.030022,-0.086191,2.547431,5.523682,67.413330,-47.271729,32.933594
61920,13.383588,0.162806,3.021482,25.268555,122.406006,-55.084229,32.943359
61960,12.856863,-3.045424,2.681506,118.682861,132.110596,-61.157227,32.949219
62000,12.440272,-7.402872,-2.178724,119.293213,74.096680,-52.062988,32.955078
62040,9.993398,-4.635174,-3.576937,77.087402,-47.576904,-30.609131,32.935547
62080,8.695741,-0.153229,0.363919,52.276611,13.763428,-87.310791,32.949219
62120,6.042965,-0.579397,-0.780510,-49.926758,26.428223,-95.886230,32.939453
62160,3.840300,-2.403779,-1.690306,-89.324951,0.762939,-76.446533,32.949219
62200,4.122815,-2.858677,-0.809240,-61.035156,-16.845703,-7.751465,32.935547
62240,5.147533,-3.002329,1.383849,-87.585449,27.313232,58.715820,32.951172
62280,9.706094,0.464475,6.019023,-112.762451,7.751465,-4.180908,32.943359
62320,15.361198,7.785944,6.981492,78.826904,-50.445557,-36.682129,32.935547
62360,12.876017,5.372589,4.903325,-0.610352,52.032471,45.562744,32.960938
62400,10.251971,-0.148441,-0.517148,37.170410,16.510010,153.900146,32.949219
62440,11.482592,-4.467580,-0.861913,60.699463,-77.941895,-8.392334,32.949219
62480,10.242394,-5.262455,0.296881,-8.422852,-59.265137,-5.126953,32.945312
62520,8.504205,-6.895301,0.842759,-22.003174,26.397705,71.044922,32.964844
62560,9.030929,-4.932055,-2.791639,-101.379395,41.625977,53.771973,32.958984
62600,9.342175,-2.054225,-2.557007,-50.231934,-85.968018,46.783447,32.972656
62640,7.220912,-1.177947,1.158794,-41.992188,-52.673340,39.337158,32.964844
62680,5.999869,-1.359907,0.852336,-8.972168,-50.384521,35.675049,32.955078
62720,7.182605,-1.704672,-1.302446,-31.097412,-80.322266,34.454346,32.960938
62760,10.093954,0.076614,-1.110910,-29.510498,-96.038818,33.447266,32.945312
62800,11.602302,1.206678,1.661576,14.831543,-61.035156,19.714355,32.955078
62840,12.358870,0.258574,1.963245,22.613525,-14.038086,-10.681152,32.978516
62880,12.799402,-0.857124,-0.818817,38.024902,-19.714355,-18.585205,32.970703
62920,13.182474,-1.182736,1.264138,35.430908,8.422852,-39.459229,32.968750
62960,13.225570,-0.737414,4.362236,57.128906,106.842041,-58.959961,32.990234
63000,12.655750,-2.475605,0.565032,46.051025,147.338867,-50.781250,32.996094
63040,12.344504,-5.851429,-3.552995,85.205078,59.997559,-45.257568,32.951172
63080,12.038046,-4.764462,-0.416591,195.190430,-16.571045,-77.423096,32.980469
63120,10.079589,-1.857901,-0.699107,57.159424,42.114258,-65.551758,32.978516
63160,7.201759,-0.263362,-1.575385,-8.392334,25.146484,-77.972412,32.966797
63200,4.371812,-1.383849,-1.872266,-81.390381,11.962891,-63.964844,32.976562
63240,3.227384,-2.523489,-1.537078,-92.163086,-18.463135,-29.785156,32.976562
63280,4.046201,-3.213019,0.158017,-77.606201,-2.593994,28.289795,32.996094
63320,6.306327,-2.925714,2.331953,-128.387451,27.130127,86.120605,32.986328
63360,14.379576,4.041412,7.872135,27.465820,-55.938721,-79.193115,32.976562
63400,16.572664,8.030152,6.263232,29.296875,24.414062,-25.482178,32.976562
63440,12.923901,1.733402,-0.981623,47.119141,25.573730,108.398438,32.998047
63480,11.267113,-2.825158,-1.944092,-12.542725,-115.203857,11.413574,32.988281
63520,9.241618,-5.975927,0.363919,-16.723633,-26.245117,0.183105,33.042969
63560,7.699753,-7.460332,-0.363919,-7.873535,-39.916992,56.762695,33.050781
63600,7.872135,-6.263232,-2.154782,-71.502686,44.158936,88.745117,33.027344
63640,9.907207,-3.495534,-4.094085,-110.809326,-50.445557,61.248779,33.066406
63680,9.222465,-0.905008,-0.076614,-46.661377,-107.543945,48.065186,33.066406
63720,6.732495,-0.440533,2.341529,5.187988,-46.417236,32.531738,33.056641
63760,6.052542,-1.843535,0.090980,1.312256,-40.649414,29.479980,33.060547
63800,8.216900,-1.642422,-2.485181,-10.864258,-75.317383,35.949707,33.046875
63840,10.745177,0.028730,-0.972046,4.943848,-64.788818,30.853271,33.046875
63880,11.927913,0.186748,1.149217,15.594482,-16.510010,-3.540039,33.050781
63920,12.713211,-0.435745,-1.541866,31.066895,-8.941650,-17.425537,33.050781
63960,13.014880,-0.114922,-0.895431,-19.012451,-40.374756,-40.802002,33.050781
64000,14.092271,-0.225055,3.342306,59.020996,110.931396,-80.688477,33.066406
64040,13.618219,-2.542642,1.762132,43.945312,170.013428,-91.217041,33.070312
64080,13.656527,-5.616797,-2.997540,70.800781,96.435547,-51.940918,33.087891
64120,12.933477,-6.938396,-1.656788,131.408691,27.740479,-73.883057,33.054688
64160,10.682928,-4.261679,-0.426168,71.533203,75.622559,-65.979004,33.052734
64200,7.718906,-1.024718,-1.599327,18.859863,29.205322,-88.562012,33.062500
64240,4.788404,-1.302446,-1.996764,-61.309814,6.500244,-92.773438,33.072266
64280,3.059790,-2.351106,-1.584962,-82.275391,-8.453369,-61.950684,33.080078
64320,3.725378,-2.403779,-0.210690,-57.647705,-13.122559,6.225586,33.058594
64360,5.238513,-3.021482,1.862689,-99.975586,21.240234,75.378418,33.066406
