MS,Accel X (m/s²),Accel Y (m/s²),Accel Z (m/s²),Gyro X (°/s),Gyro Y (°/s),Gyro Z (°/s),Temp (°C)
1240,4.194642,7.479486,-6.311116,6.622314,14.129639,70.800781,27.269531
1280,3.596091,6.406884,-6.473921,8.575439,-3.387451,72.845459,27.271484
1320,3.222595,5.846641,-6.502652,40.466309,-28.564453,67.779541,27.283203
1360,3.485958,6.430826,-6.612785,54.687500,-28.381348,64.880371,27.275391
1400,4.161122,7.546524,-6.986280,39.642334,9.185791,70.220947,27.289062
1440,4.467580,8.839393,-7.738060,29.693604,-9.246826,24.810791,27.296875
1480,4.113238,8.049306,-6.986280,23.864746,-16.082764,6.195068,27.289062
1520,3.864242,6.895301,-5.784391,15.777588,-4.913330,7.507324,27.322266
1560,3.950433,6.555324,-5.626374,14.190674,-1.068115,2.716064,27.281250
1600,4.237737,6.665458,-6.133945,10.437012,4.089355,0.244141,27.296875
1640,4.486734,7.005434,-6.651093,0.610352,6.134033,-6.683350,27.296875
1680,4.558560,6.957550,-6.861782,-5.157471,-1.953125,-18.493652,27.306641
1720,4.491522,6.718130,-6.306327,-9.948730,5.096436,-17.486572,27.310547
1760,4.429273,6.646304,-6.095637,-15.869141,9.124756,-15.808105,27.308594
1800,4.534618,7.010222,-6.296751,-18.554688,8.148193,-20.355225,27.306641
1840,4.683059,7.177817,-6.426037,-21.911621,10.467529,-17.272949,27.292969
1880,4.960786,7.019799,-6.411672,-16.418457,12.573242,-9.735107,27.322266
1920,5.463568,6.641516,-6.248867,-4.516602,20.568848,-6.072998,27.332031
1960,5.540183,6.603208,-6.564901,9.643555,24.749756,-10.681152,27.306641
2000,4.941632,6.636727,-7.134721,-5.065918,6.744385,-13.763428,27.332031
2040,4.448427,5.477933,-6.335058,-24.871826,-6.378174,-2.685547,27.335938
2080,4.606444,4.031836,-4.879383,-20.172119,0.701904,14.984131,27.322266
2120,5.209783,3.667917,-4.505888,-1.586914,9.643555,22.430420,27.322266
2160,5.525817,4.247314,-5.190629,16.540527,6.896973,15.472412,27.330078
2200,5.123591,4.448427,-5.353435,10.650635,-7.476807,13.092041,27.341797
2240,4.678270,3.399766,-4.323928,30.303955,0.274658,27.069092,27.351562
2280,5.080496,3.122039,-4.414908,55.175781,18.707275,55.786133,27.341797
2320,5.659893,5.090073,-5.650316,53.527832,9.521484,42.266846,27.333984
2360,6.062119,5.755661,-6.086061,51.635742,7.812500,44.372559,27.365234
2400,6.272809,6.153099,-6.133945,35.339355,8.270264,50.354004,27.359375
2440,6.282385,6.014235,-5.573701,14.617920,12.939453,47.393799,27.363281
2480,6.497863,4.821922,-5.324705,8.514404,21.697998,56.793213,27.365234
2520,7.201759,4.572925,-6.215348,4.943848,22.552490,58.959961,27.339844
2560,7.733272,4.845864,-6.952762,5.706787,13.732910,28.900146,27.365234
2600,7.086837,3.825934,-7.316680,3.967285,-0.061035,22.644043,27.365234
2640,6.718130,3.165135,-7.469909,8.972168,-4.760742,43.670654,27.376953
2680,7.666234,4.400543,-7.570466,-9.094238,-4.058838,24.414062,27.373047
2720,7.996634,4.443638,-7.331046,-42.358398,0.518799,22.979736,27.375000
2760,7.508216,3.265691,-6.813898,-75.164795,12.145996,42.541504,27.371094
2800,7.541735,3.169923,-6.373365,-71.044922,16.784668,31.219482,27.376953
2840,7.972692,3.691859,-6.028600,-74.432373,34.301758,13.000488,27.378906
2880,7.489063,2.954445,-5.032612,-50.079346,28.594971,10.833740,27.388672
2920,6.555324,2.451663,-4.027047,-47.851562,22.277832,16.235352,27.359375
2960,6.028600,3.428497,-3.869030,-48.095703,5.828857,38.574219,27.382812
3000,6.766014,5.008670,-3.495534,-7.659912,37.078857,19.042969,27.388672
3040,7.881712,6.196194,-2.911349,12.329102,101.074219,-2.319336,27.376953
3080,8.049306,4.821922,-2.935291,-16.052246,86.975098,13.244629,27.380859
3120,8.748413,3.371036,-2.758120,-57.250977,73.577881,17.120361,27.384766
3160,9.955091,4.242526,-3.284845,-4.669189,60.699463,0.762939,27.396484
3200,11.042058,4.865018,-3.078943,32.836914,68.023682,7.415771,27.517578
3240,11.654974,4.639963,-2.863465,75.958252,73.242188,-4.852295,27.519531
3280,11.085154,3.840300,-1.900996,17.059326,82.885742,6.561279,27.515625
3320,9.835381,2.063802,-0.397437,-18.341064,81.390381,-15.808105,27.509766
3360,8.978256,1.369483,-0.268151,-22.491455,20.935059,2.136230,27.542969
3400,9.188946,1.647211,0.335188,-6.835938,7.385254,-11.932373,27.544922
3440,8.049306,2.015918,0.679953,26.184082,42.449951,-15.167236,27.533203
3480,7.058106,2.260126,0.995988,47.729492,107.025146,-18.096924,27.542969
3520,6.560112,2.379837,0.296881,-0.122070,91.674805,-10.650635,27.519531
3560,7.115568,2.695871,-0.033519,-14.801025,49.102783,-2.410889,27.515625
3600,8.307879,3.241749,0.713472,40.710449,-6.744385,28.076172,27.544922
3640,8.863335,3.739743,1.690306,111.267090,-73.791504,-6.103516,27.558594
3680,10.553641,5.760449,3.375824,57.678223,-56.091309,-40.191650,27.556641
3720,10.979809,7.072472,3.380613,27.984619,-62.469482,-64.086914,27.515625
3760,11.257536,7.393295,1.546654,-59.722900,6.805420,-20.843506,27.546875
3800,11.971008,4.912902,-0.718261,2.258301,8.544922,-29.785156,27.556641
3840,11.568783,1.312023,-1.264138,48.980713,1.495361,-24.963379,27.572266
3880,9.107543,-0.694318,-2.159570,97.991943,41.198730,0.976562,27.576172
3920,8.020576,1.958457,-1.618480,146.484375,53.588867,4.272461,27.550781
3960,7.546524,4.199430,-1.522712,203.796387,65.124512,-45.257568,27.585938
4000,7.220912,3.462016,-1.235408,160.644531,-25.939941,-22.216797,27.580078
4040,6.828263,1.613692,-0.526724,38.909912,-94.787598,-3.509521,27.564453
4080,5.990293,2.777274,-0.775721,6.774902,-8.514404,52.978516,27.564453
4120,6.943185,5.228937,-0.972046,-44.006348,68.420410,85.632324,27.576172
4160,7.814674,5.875371,-0.737414,-69.091797,16.418457,20.599365,27.578125
4200,8.623915,5.760449,-0.828394,-49.072266,-3.265381,2.227783,27.556641
4240,9.763555,5.760449,-1.335965,12.634277,-23.193359,14.129639,27.582031
4280,11.003751,6.426037,-0.708684,16.326904,0.427246,4.852295,27.582031
4320,10.941502,6.737284,0.517148,40.771484,109.558105,24.139404,27.564453
4360,9.739613,5.592855,0.009577,15.106201,128.234863,137.268066,27.595703
4400,9.255983,1.197101,-2.149993,-84.594727,-113.708496,216.552734,27.580078
4440,9.160215,-3.371036,0.938527,-133.026123,81.207275,172.668457,27.587891
4480,11.295844,-0.541090,2.920926,-24.902344,44.616699,20.416260,27.597656
4520,10.132261,0.541090,1.929727,-11.199951,83.618164,-40.618896,27.621094
4560,6.210559,-0.742203,1.546654,-122.558594,250.610352,-100.982666,27.597656
4600,7.771579,-0.924162,-0.134075,-70.953369,72.448730,-31.158447,27.574219
4640,7.240066,0.244209,1.508347,-53.283691,32.928467,-115.020752,27.615234
4680,4.453215,0.134075,1.426944,189.605713,-165.283203,-162.841797,27.607422
4720,6.119579,0.277727,3.126827,292.816162,-377.288818,452.728271,27.619141
4760,9.064447,1.259350,8.987833,-1.403809,548.492432,736.328125,27.617188
4800,20.906170,-7.479486,2.346318,93.383789,-326.324463,-22.827148,27.607422
4840,18.296490,-10.802638,-1.762132,51.727295,16.052246,25.604248,27.613281
4880,8.973468,-9.236830,1.412579,36.224365,206.604004,71.594238,27.630859
4920,3.983952,-9.409213,3.227384,-79.101562,56.549072,194.183350,27.615234
4960,2.331953,-8.279149,2.657564,-34.454346,136.871338,436.706543,27.630859
5000,3.466804,-8.327033,1.015141,-42.297363,-32.714844,322.784424,27.634766
5040,2.954445,-8.054094,-0.153229,-97.900391,80.474854,210.235596,27.625000
5080,-0.450110,-6.507440,-1.134852,-139.312744,-1.434326,231.811523,27.640625
5120,-2.284068,-5.597643,-0.306458,-63.018799,-108.367920,123.962402,27.656250
5160,-2.686294,-6.919243,1.249773,-59.753418,-60.974121,5.432129,27.626953
5200,0.162806,-9.720459,1.244985,-25.115967,1.983643,8.941650,27.761719
5240,2.652776,-10.754754,0.033519,-52.276611,-118.652344,47.119141,27.763672
5280,1.537078,-11.511322,0.143652,-107.727051,-17.272949,103.729248,27.781250
5320,-1.010353,-12.741941,0.110133,-122.222900,72.265625,40.985107,27.769531
5360,-3.327940,-13.915100,0.320823,25.115967,34.912109,2.441406,27.773438
5400,-2.786851,-12.406754,5.501875,202.636719,-97.137451,-46.112061,27.785156
5440,-3.648763,-12.837709,1.719037,158.172607,214.965820,-43.731689,27.779297
5480,-6.191406,-13.378799,-4.194642,112.884521,-303.527832,21.636963,27.757812
5520,-3.974375,-11.142614,1.493982,28.320312,-232.635498,-124.359131,27.787109
5560,-1.762132,-7.939173,0.962469,98.083496,-37.139893,-71.746826,27.781250
5600,-2.394202,-6.234501,-0.248997,102.600098,59.112549,-53.253174,27.802734
5640,-1.833959,-4.491522,-0.718261,38.391113,65.490723,-90.606689,27.796875
5680,-0.746991,-2.964022,0.316035,-16.876221,58.990479,-36.865234,27.806641
5720,-1.580173,-2.403779,1.484405,-96.740723,53.741455,28.503418,27.787109
5760,-1.182736,-6.756437,4.381389,-80.810547,-10.223389,48.156738,27.818359
5800,3.888184,-19.120094,11.731588,24.383545,-44.708252,-146.545410,27.794922
5840,4.333505,-11.463438,8.528147,-68.389893,11.627197,3.875732,27.794922
5880,-1.254562,-9.356541,-3.916914,-70.434570,34.179688,131.317139,27.812500
5920,-4.922479,-11.913548,-1.364695,69.458008,-68.084717,175.170898,27.804688
5960,-5.583278,-7.019799,1.963245,-142.852783,250.549316,235.931396,27.826172
6000,-6.655881,-6.181829,-3.289633,-96.771240,110.260010,279.388428,27.796875
6040,-8.025364,-6.655881,-5.396531,57.891846,-76.049805,134.674072,27.828125
6080,-6.244078,-7.709330,1.134852,13.031006,117.095947,42.510986,27.814453
6120,-4.754885,-7.805098,1.450886,62.103271,150.512695,17.761230,27.818359
6160,-4.046201,-6.469133,-0.306458,-0.671387,77.026367,-5.950928,27.818359
6200,-4.414908,-5.932832,-0.895431,-51.574707,113.159180,5.096436,27.820312
6240,-5.386954,-6.162675,-0.253785,-77.331543,86.486816,26.428223,27.843750
6280,-5.444415,-7.522582,0.172383,-66.894531,1.708984,-1.495361,27.832031
6320,-5.870583,-10.500969,-0.263362,-37.750244,-56.945801,-8.850098,27.808594
6360,-7.019799,-11.492168,0.397437,-28.137207,-33.935547,-36.956787,27.845703
6400,-9.284714,-11.286267,2.159570,25.054932,-117.431641,-21.881104,27.820312
6440,-8.504205,-10.807426,1.848324,113.311768,-147.460938,3.204346,27.837891
6480,-7.948750,-9.528923,0.603339,179.046631,-92.590332,12.451172,27.833984
6520,-11.219229,-7.508216,-1.843535,86.975098,-191.253662,122.528076,27.830078
6560,-10.735600,-6.962338,0.928950,-46.325684,-222.869873,-18.554688,27.845703
6600,-6.291962,-7.345411,1.355118,25.604248,-144.531250,-53.710938,27.841797
6640,-4.472369,-5.166687,-0.368707,127.655029,11.901855,-49.621582,27.845703
6680,-3.754108,-3.524265,-0.392649,119.171143,37.200928,-62.408447,27.859375
6720,-4.074931,-2.691083,0.397437,59.661865,44.860840,-52.246094,27.875000
6760,-4.544195,-1.316811,1.455675,0.213623,74.035645,-21.789551,27.847656
6800,-4.458004,-1.594538,2.724602,-22.827148,123.535156,34.973145,27.865234
6840,-5.908890,-6.895301,9.093178,14.770508,26.245117,11.871338,27.867188
6880,-5.918467,-14.293385,13.268666,83.160400,11.260986,-50.201416,27.859375
6920,-4.266468,-9.380483,7.513005,75.195312,69.458008,-43.518066,27.898438
6960,-6.430826,-4.687847,2.810793,-234.436035,49.224854,-10.070801,27.867188
7000,-11.966220,-4.999093,-2.092532,139.648438,-128.021240,219.360352,27.875000
7040,-11.908759,0.148441,1.613692,-234.405518,151.580811,21.545410,27.882812
7080,-10.156203,-2.647987,-3.021482,-113.952637,61.035156,67.840576,27.884766
7120,-7.886500,-7.455544,-4.932055,-32.165527,-21.026611,52.307129,27.878906
7160,-7.105990,-9.797073,1.158794,82.916260,132.995605,35.705566,27.902344
7200,-6.742072,-7.149086,2.920926,127.777100,188.232422,23.223877,27.898438
7240,-5.583278,-4.826711,0.507571,56.030273,95.550537,-9.704590,27.886719
7280,-5.276821,-4.290410,-0.909797,-32.287598,114.715576,-16.265869,27.906250
7320,-7.196970,-3.849876,0.550666,-70.861816,114.837646,4.272461,27.906250
7360,-7.268796,-5.784391,2.260126,-59.173584,31.890869,10.864258,28.005859
7400,-6.986280,-8.657434,0.866701,12.786865,11.962891,-1.495361,28.011719
7440,-7.699753,-9.433155,-1.225831,-22.857666,16.510010,-25.085449,28.033203
7480,-10.730812,-8.734048,1.685518,-2.807617,-54.412842,-17.181396,28.005859
7520,-11.439496,-8.259995,2.643199,40.344238,-174.438477,11.535645,28.037109
7560,-8.633492,-9.097966,1.790863,123.016357,-179.809570,-8.270264,28.007812
7600,-9.260772,-9.050082,-2.906561,138.427734,-131.378174,-24.902344,28.033203
7640,-12.028469,-6.550536,-1.369483,-45.959473,-213.714600,-25.085449,27.998047
7680,-8.346188,-7.805098,1.632846,-17.242432,-85.449219,-74.127197,28.029297
7720,-5.506664,-7.738060,-0.636858,109.130859,-25.848389,-94.635010,28.023438
7760,-5.525817,-5.688623,-1.240196,189.117432,61.248779,-106.109619,28.019531
7800,-4.716578,-3.136404,-1.268927,120.574951,72.113037,-86.334229,28.037109
7840,-4.975151,-1.345541,-0.483629,76.324463,97.747803,-47.729492,28.019531
7880,-5.626374,0.900220,1.321599,-5.310059,98.266602,4.058838,28.023438
7920,-5.597643,-1.723825,3.323152,-37.322998,110.168457,37.475586,28.042969
7960,-8.662222,-12.105083,10.467450,178.710938,11.352539,-5.249023,28.041016
8000,-6.904878,-13.642161,10.654198,42.633057,63.354492,-88.439941,28.037109
8040,-4.357447,-6.335058,3.260903,-162.933350,85.144043,-12.054443,28.029297
8080,-11.133038,-4.946421,-2.906561,12.268066,-190.979004,75.378418,28.017578
8120,-11.544841,-1.498770,1.307234,-94.360352,167.358398,13.763428,28.046875
8160,-9.490616,-3.476381,-2.063802,0.976562,133.300781,41.229248,28.056641
8200,-8.829816,-5.918467,-3.155558,-0.335693,29.724121,41.473389,28.054688
8240,-8.116343,-6.794744,0.181959,31.890869,128.845215,39.581299,28.058594
8280,-7.699753,-6.971915,1.719037,129.699707,156.311035,26.336670,28.062500
8320,-6.387730,-5.137957,1.139640,92.254639,122.558594,-10.192871,28.056641
8360,-5.353435,-4.247314,0.167594,33.813477,62.866211,-17.120361,28.052734
8400,-6.660669,-3.988740,0.062249,-87.402344,52.398682,-15.472412,28.068359
8440,-7.642292,-4.687847,-0.239420,-75.378418,96.801758,-2.502441,28.072266
8480,-7.963115,-6.421249,0.335188,-87.890625,70.098877,-2.227783,28.078125
8520,-7.493851,-9.562442,1.278504,-37.017822,-59.967041,-11.810303,28.085938
8560,-8.236053,-9.136273,-0.019154,-0.671387,56.976318,-33.172607,28.076172
8600,-10.936713,-7.498640,2.207454,-1.098633,-90.759277,-12.298584,28.078125
8640,-10.204087,-7.800309,1.757344,56.030273,-147.064209,-3.875732,28.068359
8680,-7.948750,-8.983045,0.220267,182.952881,-109.100342,-19.165039,28.089844
8720,-11.856087,-6.579266,-1.618480,-5.798340,-232.330322,-7.843018,28.089844
8760,-12.785037,-4.448427,-0.177171,-24.658203,-157.196045,-11.657715,28.115234
8800,-7.881712,-8.556877,1.848324,-20.416260,-154.418945,-61.157227,28.113281
8840,-6.248867,-7.024588,-0.129287,130.859375,-28.961182,-70.617676,28.080078
8880,-5.865794,-4.630386,-0.474052,171.936035,16.143799,-81.909180,28.097656
8920,-3.988740,-1.498770,0.191536,109.466553,41.900635,-49.530029,28.076172
8960,-3.145981,-0.220267,1.240196,53.436279,65.795898,-18.737793,28.095703
9000,-3.529053,-0.574608,2.375048,5.096436,66.589355,11.566162,28.091797
9040,-3.629610,-2.935291,3.950433,-25.817871,133.270264,29.449463,28.093750
9080,-5.626374,-6.866570,6.162675,71.777344,72.662354,15.625000,28.101562
9120,-7.805098,-6.799533,8.054094,48.278809,80.078125,-18.890381,28.107422
9160,-7.192182,-3.667917,5.750873,-3.326416,51.757812,-21.636963,28.113281
9200,-5.588067,-3.466804,5.827487,-78.338623,59.722900,-14.739990,28.119141
9240,-12.545617,-8.293514,-3.514688,-118.591309,-13.854980,55.511475,28.117188
9280,-18.353951,-5.602432,-5.051765,-155.548096,-14.892578,30.883789,28.107422
9320,-9.524135,-5.286397,-4.912902,312.286377,198.669434,46.173096,28.236328
9360,-8.427590,-11.659762,-3.102885,-49.316406,133.117676,-23.468018,28.212891
9400,-11.300632,-6.478710,3.236961,53.100586,128.692627,-15.411377,28.222656
9440,-7.364564,-5.070919,0.909797,38.879395,97.320557,-52.093506,28.212891
9480,-4.611232,-2.049437,-0.627281,-201.324463,-34.515381,-42.449951,28.220703
9520,-6.282385,-1.723825,0.043096,-62.622070,106.781006,10.559082,28.222656
9560,-7.589619,-3.907337,1.771709,-51.849365,38.879395,41.961670,28.230469
9600,-7.939173,-7.048530,1.968034,-8.728027,38.391113,44.677734,28.240234
9640,-6.924031,-11.908759,0.972046,-62.072754,-33.721924,-11.505127,28.271484
9680,-8.619126,-12.880805,1.422156,65.155029,-4.272461,-27.160645,28.289062
9720,-12.243947,-10.079589,1.618480,75.408936,-140.655518,-26.550293,28.250000
9760,-10.946290,-7.354988,0.402226,119.110107,-172.973633,-26.397705,28.261719
9800,-12.526464,-4.548983,-1.340753,10.742188,-234.405518,2.838135,28.257812
9840,-11.918336,-4.046201,-0.871489,-119.018555,-213.989258,-17.761230,28.275391
9880,-7.115568,-10.601525,-0.028730,35.522461,-101.593018,-76.507568,28.255859
9920,-5.104438,-8.384495,-0.727837,136.932373,-11.322021,-105.041504,28.261719
9960,-5.367800,-3.969586,-1.412579,179.016113,29.571533,-78.948975,28.296875
10000,-5.080496,-1.412579,-0.814029,110.778809,32.958984,-71.716309,28.287109
10040,-4.529830,-0.071826,0.416591,41.778564,64.544678,-44.769287,28.279297
10080,-4.199430,0.603339,2.020706,-10.620117,96.008301,18.249512,28.298828
10120,-5.477933,-4.783615,5.540183,-10.650635,81.512451,37.719727,28.291016
10160,-9.078813,-15.801731,13.397953,131.011963,-12.573242,-36.773682,28.277344
10200,-5.889736,-8.820239,9.050082,16.113281,77.911377,-70.648193,28.292969
10240,-7.005434,-6.713342,-0.459687,-220.031738,39.855957,9.979248,28.289062
10280,-10.850522,-4.429273,-2.288857,-11.260986,-161.804199,94.207764,28.273438
10320,-11.324574,1.465251,1.786075,-185.943604,228.546143,28.076172,28.308594
10360,-10.989386,-1.867477,-2.777274,-21.697998,51.422119,91.217041,28.298828
10400,-8.863335,-5.985504,-3.706224,99.365234,40.496826,80.749512,28.304688
10440,-7.105990,-8.734048,0.775721,-0.518799,127.777100,31.890869,28.283203
10480,-6.172252,-7.144298,3.102885,140.533447,164.459229,3.662109,28.345703
10520,-5.573701,-4.831499,0.588974,53.161621,36.346436,-6.958008,28.316406
10560,-5.856217,-4.022259,0.282516,-23.101807,72.326660,-9.094238,28.310547
10600,-7.383718,-4.079720,0.081403,-112.518311,58.288574,-0.488281,28.308594
10640,-7.589619,-5.233725,-0.105345,-92.559814,68.145752,12.115479,28.314453
10680,-7.752425,-8.882488,0.191536,-62.988281,56.304932,-10.314941,28.328125
10720,-8.887277,-10.108319,0.684742,-32.623291,1.464844,-30.334473,28.318359
10760,-11.789049,-8.327033,1.948880,22.125244,-57.037354,-23.590088,28.312500
10800,-11.396400,-7.838616,1.881842,30.364990,-162.567139,-23.712158,28.328125
10840,-9.198523,-7.762002,0.632069,136.993408,-148.010254,-29.296875,28.324219
10880,-12.521675,-5.066131,-1.738190,21.697998,-236.846924,-1.708984,28.324219
10920,-13.508086,-3.730166,0.440533,-94.604492,-211.639404,-22.155762,28.339844
10960,-8.537724,-8.547300,1.216254,-53.771973,-118.621826,-80.352783,28.322266
11000,-5.975927,-6.363788,-0.632069,96.954346,-22.796631,-91.308594,28.337891
11040,-4.649539,-3.639187,-1.374272,177.215576,23.712158,-66.375732,28.335938
11080,-3.950433,-1.431733,-1.335965,99.487305,24.993896,-58.776855,28.335938
11120,-3.696647,-0.646434,0.325611,30.334473,64.727783,-33.294678,28.320312
11160,-3.974375,0.167594,1.857901,-3.570557,90.667725,29.388428,28.337891
11200,-6.387730,-4.970363,6.325481,23.651123,95.550537,41.381836,28.351562
11240,-9.979033,-16.515203,13.651738,114.196777,-34.729004,-61.614990,28.347656
11280,-4.898537,-7.292738,8.604761,-0.915527,109.893799,-43.151855,28.339844
11320,-6.397307,-3.514688,-2.504335,-164.550781,58.074951,66.955566,28.363281
11360,-14.154520,-4.309563,-2.039860,-114.135742,-196.258545,70.190430,28.369141
11400,-10.338163,-0.239420,0.665588,-138.427734,175.506592,33.630371,28.355469
11440,-9.979033,-2.461239,-2.916138,-1.037598,59.692383,75.927734,28.361328
11480,-9.275137,-6.210559,-3.016694,75.439453,55.297852,63.842773,28.361328
11520,-8.106767,-7.465121,0.579397,18.280029,128.662109,33.325195,28.367188
11560,-6.976704,-5.372589,2.111686,159.027100,133.270264,13.824463,28.341797
11600,-6.066907,-4.098873,0.541090,63.415527,25.146484,-10.925293,28.376953
11640,-5.856217,-3.916914,0.368707,-66.101074,35.888672,-13.275146,28.460938
11680,-6.780379,-4.462792,0.196325,-112.609863,38.085938,1.373291,28.460938
11720,-7.302315,-5.224148,-0.129287,-95.062256,43.487549,15.899658,28.462891
11760,-7.987057,-8.116343,-0.608127,11.352539,72.814941,-0.122070,28.472656
11800,-9.327810,-9.481039,1.216254,-98.541260,16.754150,-43.884277,28.453125
11840,-12.176909,-8.561666,2.667141,3.784180,-83.129883,-32.928467,28.486328
11880,-11.712435,-8.207323,2.173935,49.224854,-155.609131,-23.773193,28.460938
11920,-10.036493,-7.709330,0.919373,153.656006,-154.998779,-25.268555,28.482422
11960,-13.599066,-4.242526,-1.268927,12.115479,-261.138916,13.824463,28.468750
12000,-12.990938,-3.940856,1.278504,-100.036621,-200.714111,-28.259277,28.507812
12040,-8.293514,-8.250419,1.158794,9.918213,-116.333008,-70.068359,28.501953
12080,-5.142745,-5.061342,-0.905008,145.477295,-26.336670,-65.185547,28.480469
12120,-4.659117,-2.638410,-1.278504,179.412842,5.706787,-57.586670,28.511719
12160,-3.744531,-1.278504,-0.507571,71.075439,22.216797,-60.974121,28.501953
12200,-3.323152,-0.507571,0.876278,21.759033,57.983398,-35.644531,28.480469
12240,-3.667917,-0.579397,2.997540,6.591797,126.220703,17.669678,28.494141
12280,-7.776367,-8.882488,11.496957,19.470215,51.086426,10.742188,28.511719
12320,-9.040505,-13.235147,13.081918,91.705322,5.859375,-40.435791,28.509766
12360,-4.941632,-3.610456,6.799533,-31.341553,114.959717,-45.410156,28.492188
12400,-9.864111,-2.293645,-4.831499,-192.108154,-55.633545,88.531494,28.501953
12440,-14.231135,-2.715025,-0.972046,-272.216797,10.864258,15.350342,28.517578
12480,-10.213664,-0.794875,-0.957681,-104.064941,156.616211,74.615479,28.503906
12520,-9.409213,-2.858677,-3.313575,-61.706543,24.322510,104.522705,28.513672
12560,-9.437943,-6.224925,-4.443638,119.995117,97.503662,75.958252,28.521484
12600,-8.034941,-7.757214,2.557007,57.159424,129.669189,38.269043,28.527344
12640,-6.253655,-6.411672,2.461239,103.759766,133.209229,-0.152588,28.521484
12680,-5.228937,-4.826711,-0.512359,39.184570,17.486572,-4.394531,28.533203
12720,-6.670246,-3.423708,-0.244209,-110.534668,46.295166,-12.512207,28.523438
12760,-7.867347,-3.892972,-0.043096,-96.069336,105.957031,4.852295,28.535156
12800,-8.461109,-6.210559,-0.526724,-59.906006,81.268311,3.387451,28.513672
12840,-9.323022,-8.939949,1.757344,-167.907715,-77.728271,-26.977539,28.523438
12880,-10.414778,-7.967903,0.359130,57.891846,51.513672,-9.796143,28.531250
12920,-11.832145,-7.833828,1.699883,-4.669189,-102.996826,-18.249512,28.546875
12960,-10.050858,-7.900866,0.670376,83.221436,-131.805420,-36.437988,28.505859
13000,-10.726024,-6.866570,0.043096,72.052002,-193.084717,-34.118652,28.513672
13040,-14.202404,-2.667141,-1.225831,-33.081055,-239.318848,-0.793457,28.521484
13080,-12.186486,-3.193865,0.426168,-111.572266,-168.395996,-23.376465,28.539062
13120,-7.685388,-8.523358,0.316035,-64.208984,-128.662109,-102.508545,28.533203
13160,-6.200983,-6.684611,-1.154005,114.288330,-24.261475,-114.685059,28.548828
13200,-5.439626,-2.633622,-1.580173,149.719238,7.446289,-88.073730,28.560547
13240,-4.328717,-1.201889,-0.502782,112.060547,31.951904,-64.605713,28.542969
13280,-3.950433,0.119710,0.708684,46.569824,59.204102,-14.221191,28.552734
13320,-3.916914,0.239420,2.212242,16.448975,80.474854,33.203125,28.550781
13360,-5.908890,-5.913678,6.090849,108.795166,97.656250,83.862305,28.541016
13400,-10.960655,-15.959748,13.728353,90.545654,-22.827148,-54.290771,28.552734
13440,-5.961562,-7.785944,7.666234,15.258789,61.492920,-33.874512,28.566406
13480,-7.383718,-2.758120,-1.120486,-231.079102,76.721191,45.379639,28.552734
13520,-13.273455,-2.743755,-0.316035,-97.717285,-126.251221,48.217773,28.546875
13560,-9.686940,0.986411,0.833182,-164.184570,143.218994,53.039551,28.544922
13600,-10.500969,-1.422156,-2.585738,24.139404,102.539062,94.512939,28.675781
13640,-9.696517,-4.754885,-3.596091,10.803223,-22.979736,74.127197,28.660156
13680,-8.805874,-8.121132,-0.885855,-89.874268,81.207275,44.097900,28.669922
13720,-7.072472,-6.315904,3.280056,181.976318,141.143799,22.766113,28.693359
13760,-6.143522,-3.926491,1.292869,93.536377,52.795410,-7.354736,28.673828
13800,-6.076484,-4.022259,-0.153229,-51.422119,27.282715,-11.016846,28.683594
13840,-7.402872,-3.677494,0.009577,-109.191895,49.957275,7.324219,28.677734
13880,-7.340622,-4.726154,-0.057461,-19.744873,82.946777,17.852783,28.683594
13920,-7.762002,-7.661446,-1.278504,-97.106934,9.002686,-14.373779,28.687500
13960,-9.232041,-8.499416,-0.703895,-38.726807,78.857422,-34.912109,28.683594
14000,-12.660539,-6.880936,2.595315,-27.862549,-54.687500,-29.052734,28.679688
14040,-12.828133,-6.967127,2.298434,-4.150391,-140.625000,-16.082764,28.689453
14080,-9.773131,-8.039729,1.680730,113.281250,-177.825928,-36.163330,28.693359
14120,-11.410766,-5.209783,-1.144428,73.150635,-215.667725,-17.791748,28.693359
14160,-14.480132,-2.633622,-0.038307,-84.625244,-251.190186,-0.823975,28.701172
14200,-11.046846,-6.622362,2.015918,-123.718262,-140.655518,-68.572998,28.691406
14240,-7.560889,-6.914454,-0.430956,60.546875,-53.039551,-109.375000,28.705078
14280,-5.085284,-3.696647,-1.862689,168.426514,-20.568848,-80.078125,28.730469
14320,-3.682282,-0.938527,-1.637634,151.397705,17.639160,-65.948486,28.720703
14360,-3.169923,-0.201113,-0.071826,51.269531,56.274414,-49.591064,28.708984
14400,-3.016694,1.039083,1.685518,-7.934570,95.611572,16.876221,28.724609
14440,-4.999093,-3.184288,5.281609,-12.481689,157.836914,75.561523,28.716797
14480,-12.253524,-16.021997,13.910312,130.737305,-40.618896,-41.656494,28.714844
14520,-7.101202,-9.097966,9.318233,30.731201,53.405762,-31.555176,28.708984
14560,-9.179369,-4.362236,0.474052,-214.660645,90.423584,28.411865,28.714844
14600,-12.152967,-2.322376,-1.580173,-103.302002,-184.051514,44.067383,28.734375
14640,-9.892841,2.638410,1.853112,-135.375977,207.855225,60.455322,28.720703
14680,-11.511322,-0.555455,-2.212242,-5.187988,83.709717,95.306396,28.724609
14720,-9.528923,-4.271256,-3.782839,-38.970947,-13.916016,84.930420,28.734375
14760,-8.834604,-7.388506,-2.121263,-67.382812,62.713623,56.793213,28.730469
14800,-7.149086,-7.019799,3.912126,205.047607,141.448975,26.977539,28.734375
14840,-6.153099,-4.596867,1.249773,73.791504,81.207275,0.671387,28.726562
14880,-5.861006,-4.050989,-0.660800,-12.268066,43.121338,-1.922607,28.744141
14920,-7.479486,-3.418920,-0.057461,-87.158203,73.364258,9.948730,28.728516
14960,-8.049306,-4.276044,0.933739,-50.964355,98.785400,24.871826,28.730469
15000,-8.149862,-8.418014,0.330400,35.034180,8.178711,-8.880615,28.748047
15040,-8.556877,-9.825804,-1.307234,-78.491211,38.238525,-62.438965,28.726562
15080,-13.508086,-6.162675,2.398990,-57.342529,-94.024658,-36.346436,28.736328
15120,-13.153744,-5.094861,2.202666,74.829102,-117.584229,-17.333984,28.730469
15160,-9.442732,-6.766014,1.398214,79.833984,-208.312988,-33.569336,28.744141
15200,-12.334928,-4.189853,-1.393425,31.433105,-217.987061,-0.762939,28.763672
15240,-14.882358,-3.524265,1.187524,-95.214844,-194.061279,-18.859863,28.775391
15280,-10.084377,-5.094861,2.197877,-117.858887,-128.173828,-56.549072,28.757812
15320,-6.019023,-5.961562,-1.379060,73.120117,-62.438965,-80.780029,28.757812
15360,-4.979939,-3.313575,-1.474828,138.092041,-7.293701,-83.770752,28.779297
15400,-3.773262,-1.063026,-1.412579,122.009277,43.457031,-70.220947,28.759766
15440,-3.145981,0.019154,0.000000,22.674561,66.986084,-25.238037,28.769531
15480,-3.639187,0.732626,1.762132,-12.725830,98.083496,44.647217,28.791016
15520,-7.991845,-5.932832,7.211336,74.249268,79.437256,79.650879,28.775391
15560,-12.167333,-15.509639,14.130578,112.518311,-48.645020,-62.133789,28.783203
15600,-6.885724,-6.282385,8.374918,-24.078369,119.232178,-2.532959,28.865234
15640,-11.382035,-2.303222,-3.481169,-165.832520,-6.561279,66.894531,28.861328
15680,-11.401189,1.312023,-0.392649,-128.051758,24.353027,33.172607,28.863281
15720,-11.645397,0.909797,-0.569820,-30.914307,220.336914,89.447021,28.863281
15760,-10.256760,-0.890643,-3.663129,-152.343750,-6.378174,84.564209,28.857422
15800,-9.840169,-4.831499,-4.165911,-14.862061,23.925781,54.809570,28.876953
15840,-7.771579,-8.671799,2.379837,63.018799,126.220703,31.860352,28.886719
15880,-6.454768,-5.123591,2.020706,189.300537,118.988037,20.782471,28.882812
15920,-5.391742,-3.811569,-0.694318,14.038086,85.540771,-1.586914,28.884766
15960,-6.775591,-4.017470,-0.478840,-80.474854,71.563721,2.960205,28.878906
16000,-8.298303,-3.648763,0.943315,-57.159424,61.187744,18.920898,28.884766
16040,-8.738836,-5.846641,0.871489,40.008545,68.450928,4.669189,28.914062
16080,-8.499416,-8.738836,-1.872266,-84.045410,-56.701660,-50.872803,28.910156
16120,-11.932701,-6.598420,1.134852,-75.347900,-72.845459,-53.253174,28.888672
16160,-13.895947,-5.698200,2.863465,3.234863,-158.996582,-35.888672,28.892578
16200,-11.300632,-5.679047,2.236184,133.789062,-182.739258,-39.428711,28.894531
16240,-12.741941,-3.337517,-0.373495,3.173828,-221.649170,-1.251221,28.910156
16280,-15.605407,-3.184288,0.411803,-110.015869,-196.014404,0.396729,28.892578
16320,-10.658986,-5.683835,2.178724,-71.990967,-134.582520,-49.591064,28.898438
16360,-6.914454,-5.085284,-0.603339,66.650391,-69.091797,-85.021973,28.884766
16400,-4.807557,-2.940080,-1.326388,130.432129,-24.780273,-71.777344,28.908203
16440,-3.380613,-0.742203,-1.345541,86.944580,35.675049,-61.126709,28.904297
16480,-2.992752,0.450110,-0.143652,19.622803,53.955078,-36.285400,28.904297
16520,-3.270479,1.048660,1.647211,8.911133,84.655762,19.714355,28.923828
16560,-6.349423,-3.557784,6.521805,63.568115,105.438232,76.568604,28.923828
16600,-12.129025,-14.930242,14.767436,105.102539,-42.419434,-37.750244,28.919922
16640,-8.992621,-7.240066,9.768343,21.423340,83.557129,-14.190674,28.917969
16680,-13.546393,-3.725378,-0.521936,-197.174072,-16.052246,20.629883,28.914062
16720,-9.035717,2.422932,-1.805228,-89.782715,-24.322510,23.376465,28.904297
16760,-11.525687,3.021482,-1.618480,-92.681885,244.689941,99.975586,28.937500
16800,-10.534488,-1.498770,-4.017470,-147.094727,8.758545,84.014893,28.916016
16840,-11.008539,-5.075707,-2.652776,-96.160889,-4.821777,66.528320,28.919922
16880,-8.978256,-8.269572,1.661576,72.601318,132.598877,56.579590,28.931641
16920,-6.493075,-5.075707,0.727837,138.244629,118.469238,29.022217,28.916016
16960,-5.195418,-3.342306,-0.512359,53.466797,98.907471,13.336182,28.925781
17000,-6.430826,-3.303998,-0.316035,-33.996582,96.527100,9.185791,28.919922
17040,-8.034941,-3.265691,0.483629,-25.756836,77.362061,21.148682,28.953125
17080,-9.203311,-6.114791,0.148441,-48.126221,20.904541,-4.608154,28.931641
17120,-9.940725,-8.772355,0.143652,-98.114014,-31.524658,-48.919678,28.943359
17160,-12.162544,-6.258443,2.068590,9.155273,-52.856445,-32.501221,28.945312
17200,-12.813767,-5.655105,2.427721,1.434326,-177.093506,-42.541504,28.939453
17240,-12.014104,-5.453991,0.646434,94.909668,-181.671143,-41.900635,28.953125
17280,-15.686810,-2.518700,-1.125275,-18.035889,-228.424072,-17.089844,28.937500
17320,-15.207970,-0.392649,1.474828,-121.032715,-156.829834,-22.979736,28.947266
17360,-8.868123,-5.272032,0.718261,-40.924072,-99.914551,-59.356689,28.939453
17400,-6.660669,-5.679047,-0.215478,64.575195,-57.739258,-78.063965,28.968750
17440,-5.530606,-2.604892,-1.474828,141.784668,-11.016846,-63.537598,28.951172
17480,-3.892972,-0.210690,-1.642422,82.794189,39.703369,-66.925049,28.957031
17520,-2.887407,1.364695,-0.363919,57.220459,63.507080,-33.966064,28.968750
17600,-9.567230,-7.144298,9.351752,32.867432,47.302246,43.853760,29.062500
17640,-12.670115,-13.498509,14.518439,23.376465,-41.015625,-59.173584,29.060547
17680,-7.599196,-4.386178,5.975927,-19.226074,108.917236,-4.119873,29.070312
17720,-13.067553,-1.929727,-4.017470,-207.397461,-157.318115,48.675537,29.056641
17760,-10.745177,2.667141,0.632069,-210.632324,139.068604,34.759521,29.062500
17800,-11.712435,1.819593,-1.972822,83.221436,182.098389,122.192383,29.070312
17840,-10.769119,-2.212242,-4.285621,-82.092285,-7.598877,77.209473,29.074219
17880,-10.290278,-5.281609,-3.825934,-22.155762,79.650879,61.523438,29.076172
17920,-8.173804,-5.837064,3.342306,158.294678,131.439209,46.203613,29.087891
17960,-6.588843,-3.983952,1.843535,192.138672,95.977783,16.601562,29.087891
18000,-5.415684,-2.959233,-1.814805,-26.580811,98.358154,-6.988525,29.066406
18040,-7.062895,-3.423708,-0.976834,-72.601318,104.827881,0.823975,29.095703
18080,-9.155427,-3.620033,1.915361,-94.238281,19.378662,12.786865,29.076172
18120,-10.199299,-6.402095,1.034295,109.436035,63.110352,10.620117,29.076172
18160,-9.964667,-8.738836,-1.034295,-93.322754,-68.572998,-63.934326,29.097656
18200,-13.383588,-4.371812,3.007117,8.483887,-115.692139,-35.064697,29.080078
18240,-13.038822,-3.495534,3.098097,-82.183838,-273.773193,-44.647217,29.085938
18280,-12.287044,-4.371812,-0.785298,94.909668,-195.587158,-40.771484,29.107422
18320,-16.093824,-3.155558,-1.632846,-131.866455,-220.947266,-36.407471,29.087891
18360,-13.129802,-3.778050,2.676718,-146.881104,-107.666016,-75.347900,29.091797
18400,-7.809886,-5.669470,-0.205901,55.847168,-90.881348,-74.005127,29.082031
18440,-5.626374,-3.428497,-1.379060,155.242920,-34.515381,-44.128418,29.099609
18480,-4.510676,-0.761356,-1.900996,131.774902,55.541992,-73.547363,29.119141
18520,-2.839523,0.651223,-0.909797,37.078857,56.793213,-49.377441,29.103516
18560,-2.686294,1.833959,0.818817,-20.721436,100.646973,18.310547,29.083984
18600,-6.306327,-0.402226,3.040636,22.735596,139.648438,95.886230,29.113281
18640,-14.786590,-13.144167,13.038822,95.611572,-39.825439,-28.228760,29.107422
18680,-8.398860,-11.152191,10.184934,-49.041748,73.455811,10.223389,29.115234
18720,-13.259089,-3.356671,-2.944868,-119.201660,37.506104,71.990967,29.103516
18760,-11.808203,2.715025,-2.533065,-191.741943,-193.969727,14.587402,29.111328
18800,-9.021352,2.729390,0.531513,63.568115,307.769775,97.229004,29.089844
18840,-11.228806,-1.278504,-4.012682,68.695068,-23.345947,85.937500,29.121094
18880,-10.271125,-6.162675,-2.753332,-38.909912,33.660889,36.865234,29.123047
18920,-9.811439,-6.435614,4.185065,211.395264,115.844727,3.356934,29.134766
18960,-6.464345,-4.161122,1.527501,90.820312,86.914062,-21.118164,29.140625
19000,-5.540183,-1.920150,-0.282516,-48.187256,8.270264,-0.274658,29.119141
19040,-7.364564,-0.780510,0.229843,-77.545166,129.425049,-4.180908,29.126953
19080,-8.695741,-2.360683,1.489193,-25.238037,102.905273,22.003174,29.128906
19120,-9.255983,-3.773262,0.761356,-53.680420,13.122559,27.313232,29.126953
19160,-9.385271,-4.036624,-0.924162,-55.847168,13.427734,18.493652,29.146484
19200,-10.754754,-5.449203,-0.368707,-48.736572,-8.026123,22.369385,29.142578
19240,-10.544065,-8.101978,1.618480,11.596680,-66.467285,13.946533,29.123047
19280,-10.400413,-8.705317,2.207454,76.812744,-186.523438,-32.104492,29.169922
19320,-13.177686,-6.181829,1.991976,119.659424,-230.804443,-64.056396,29.148438
19360,-19.507956,0.363919,1.278504,-29.205322,-194.824219,-25.909424,29.126953
19400,-15.303738,2.269703,0.823605,-166.168213,-143.157959,-38.787842,29.142578
19440,-8.073248,-4.678270,0.019154,-23.193359,-96.160889,-112.060547,29.136719
19480,-6.339846,-5.391742,0.675165,177.185059,-100.555420,-73.852539,29.138672
19520,-6.062119,-1.814805,0.732626,153.350830,-48.278809,-61.126709,29.144531
19560,-5.712565,-1.058237,-0.100556,89.721680,-13.610840,-81.573486,29.240234
19600,-4.280833,0.459687,0.009577,15.472412,16.632080,-58.959961,29.228516
19640,-3.964798,1.412579,0.890643,-65.795898,96.557617,-32.623291,29.240234
19680,-3.351882,1.479617,2.173935,-110.595703,169.464111,36.865234,29.244141
19720,-6.914454,-5.367800,5.923255,20.477295,114.898682,92.803955,29.244141
19760,-15.255854,-15.073894,13.761871,49.285889,11.657715,-46.630859,29.263672
19800,-17.683575,-7.728483,9.945514,-78.277588,-23.101807,-3.051758,29.267578
19840,-10.031705,1.364695,-1.924938,-137.115479,-116.699219,11.657715,29.242188
19880,-6.335058,6.186617,-3.179500,-164.978027,201.690674,131.347656,29.253906
19920,-12.933477,2.518700,-5.209783,-113.494873,134.552002,125.030518,29.248047
19960,-11.257536,-2.533065,-4.692636,-23.712158,38.330078,115.936279,29.244141
20000,-11.128249,-8.111555,-0.569820,-118.713379,-2.075195,52.795410,29.279297
20040,-7.489063,-7.206547,2.279280,220.062256,117.584229,31.311035,29.259766
20080,-5.861006,-3.150769,-0.344765,78.857422,70.159912,-0.701904,29.267578
20120,-6.646304,-1.364695,-1.154005,1.525879,109.191895,7.598877,29.273438
20160,-8.920795,-1.302446,0.746991,16.845703,95.520020,27.069092,29.267578
20200,-9.088389,-2.935291,0.502782,-63.018799,38.024902,22.125244,29.281250
20240,-9.643845,-7.450756,-0.751779,-19.104004,-5.828857,-9.094238,29.277344
20280,-10.524911,-7.105990,-0.713472,-8.453369,8.300781,-44.891357,29.269531
20320,-13.977349,-4.031836,1.719037,7.385254,-77.026367,-30.914307,29.292969
20360,-13.460202,-3.720589,1.896208,-41.076660,-210.052490,-45.074463,29.267578
20400,-12.636597,-3.227384,0.292093,62.194824,-216.064453,-45.898438,29.283203
20440,-15.466543,0.129287,-1.187524,-41.229248,-182.739258,-17.608643,29.292969
20480,-13.910312,-0.900220,2.049437,-188.232422,-155.273438,-51.910400,29.287109
20520,-9.145850,-3.509900,0.670376,-82.855225,-104.888916,-70.953369,29.292969
20560,-6.411672,-4.180276,-1.565808,119.262695,-74.676514,-74.218750,29.292969
20600,-4.812346,-1.642422,-1.498770,102.233887,-5.340576,-77.117920,29.289062
20640,-2.896984,0.512359,-1.537078,56.060791,32.379150,-67.626953,29.292969
20680,-2.049437,1.225831,0.306458,22.888184,82.794189,-10.681152,29.308594
20720,-4.151546,0.531513,2.106898,56.335449,120.574951,77.087402,29.294922
20760,-14.058752,-10.860099,12.220005,158.874512,-33.020020,2.014160,29.292969
20800,-10.630256,-10.491392,12.550406,10.009766,24.047852,-44.097900,29.296875
20840,-7.422025,-2.178724,2.657564,-155.639648,169.464111,59.967041,29.306641
20880,-16.275784,-0.335188,-4.424485,-266.265869,-185.943604,68.878174,29.324219
20920,-9.548077,4.319140,-0.277727,-156.677246,231.719971,74.340820,29.326172
20960,-11.463438,3.232172,-2.193089,58.593750,95.397949,123.229980,29.318359
21000,-11.386824,-0.359130,-4.477157,-43.304443,-23.010254,61.035156,29.308594
21040,-10.505757,-5.631162,-2.011129,-87.646484,41.870117,61.004639,29.314453
21080,-7.513005,-5.310339,3.189077,223.205566,103.668213,24.414062,29.322266
21120,-5.837064,-3.021482,0.138864,108.337402,52.825928,1.007080,29.314453
21160,-6.004658,-2.504335,-1.977611,-60.913086,106.567383,2.532959,29.328125
21200,-8.293514,-2.355895,0.933739,-64.483643,61.065674,18.646240,29.316406
21240,-9.346964,-3.035848,0.565032,6.134033,60.760498,30.822754,29.312500
21280,-10.395624,-6.900089,-1.345541,4.364014,25.878906,-11.291504,29.333984
21320,-11.592725,-6.512228,0.248997,14.343262,-1.220703,-42.053223,29.304688
21360,-13.455414,-2.896984,3.059790,-5.523682,-112.670898,-19.134521,29.318359
21400,-12.713211,-2.542642,2.710236,-51.635742,-239.746094,-46.112061,29.326172
21440,-12.373235,-3.270479,-1.666364,78.979492,-213.989258,-40.527344,29.326172
21480,-17.041927,-1.723825,-1.450886,-162.261963,-166.168213,-28.228760,29.341797
21520,-15.423448,-0.723049,3.126827,-162.445068,-101.409912,-54.412842,29.333984
21560,-8.044518,-3.318364,-0.282516,-49.621582,-108.276367,-73.120117,29.427734
21600,-6.478710,-3.265691,-1.513135,103.515625,-23.956299,-79.132080,29.410156
21640,-4.089296,-0.818817,-2.825158,152.404785,11.047363,-75.927734,29.417969
21680,-2.705448,0.708684,-1.738190,92.132568,28.198242,-50.506592,29.412109
21720,-1.910573,2.470816,0.435745,32.562256,86.303711,16.265869,29.435547
21760,-5.626374,0.239420,2.671929,89.477539,117.279053,91.125488,29.429688
21800,-16.764200,-13.158532,14.657303,93.170166,-48.889160,-55.175781,29.439453
21840,-10.793061,-9.725247,11.338940,2.105713,72.296143,-10.009766,29.441406
21880,-14.312538,-4.299986,-1.335965,-185.302734,-51.300049,30.364990,29.433594
21920,-8.140285,5.171476,-2.494758,-41.748047,-33.660889,54.748535,29.427734
21960,-10.275913,7.196970,-1.345541,-76.568604,325.653076,111.602783,29.437500
22000,-10.960655,2.154782,-3.792415,-109.313965,-12.756348,127.075195,29.453125
22040,-11.549629,-3.557784,-4.146757,50.933838,46.569824,68.756104,29.457031
22080,-9.878476,-7.618350,1.158794,21.057129,74.401855,45.471191,29.431641
22120,-7.699753,-4.544195,2.528277,231.201172,97.167969,17.242432,29.427734
22160,-5.477933,-2.173935,-0.679953,133.544922,88.165283,4.760742,29.419922
22200,-6.636727,-1.594538,-0.636858,-63.293457,104.919434,-1.678467,29.433594
22240,-8.949526,-0.943315,1.149217,-18.310547,84.045410,13.031006,29.458984
22280,-11.358093,-3.998317,0.881066,-4.669189,23.651123,6.439209,29.462891
22320,-11.449073,-7.359776,0.100556,-39.031982,7.202148,-36.437988,29.476562
22360,-12.933477,-4.735731,2.317587,-5.584717,-85.754395,-35.278320,29.458984
22400,-13.316550,-2.533065,2.791639,-43.518066,-208.312988,-48.919678,29.453125
22440,-12.947843,-2.542642,-0.033519,-5.310059,-227.416992,-44.372559,29.453125
22480,-17.161638,0.909797,-1.819593,-10.101318,-151.977539,-20.050049,29.468750
22520,-15.480908,0.569820,2.892196,-129.882812,-121.246338,-45.288086,29.437500
22560,-8.887277,-2.231396,0.569820,-78.918457,-78.643799,-63.140869,29.453125
22600,-6.593631,-2.930503,-1.235408,32.714844,-52.520752,-80.474854,29.460938
22640,-5.334281,-1.584962,-1.948880,127.014160,-6.866455,-81.848145,29.480469
22680,-3.107674,0.129287,-1.479617,97.473145,28.503418,-58.044434,29.455078
22720,-1.953669,1.877054,-0.421380,64.788818,61.096191,-6.713867,29.457031
22760,-4.036624,1.910573,1.091756,95.916748,100.372314,61.065674,29.472656
22800,-13.939042,-8.566454,11.659762,92.803955,-11.718750,-4.821777,29.470703
22840,-12.660539,-10.491392,13.527240,-15.686035,-14.282227,-48.736572,29.464844
22880,-9.552865,-2.111686,4.462792,-86.975098,133.178711,14.251709,29.486328
22920,-12.502522,0.689530,-3.749320,-159.027100,-218.078613,101.623535,29.466797
22960,-9.830592,5.626374,0.545878,-180.267334,267.913818,80.139160,29.468750
23000,-11.726800,4.654328,-3.107674,-54.748535,113.311768,106.964111,29.484375
23040,-10.702082,0.919373,-4.611232,-11.077881,-79.803467,84.136963,29.447266
23080,-11.702858,-3.773262,-1.977611,25.177002,65.002441,66.619873,29.490234
23120,-8.475474,-5.425261,2.896984,114.715576,107.788086,30.670166,29.476562
23160,-6.636727,-2.930503,1.163582,159.790039,27.648926,3.265381,29.484375
23200,-6.440403,-1.714248,-1.829170,-21.789551,98.632812,2.441406,29.500000
23240,-8.408437,-1.900996,0.378284,-107.238770,109.222412,14.373779,29.482422
23280,-9.538500,-2.738967,2.063802,12.847900,43.334961,26.794434,29.476562
23320,-10.539276,-6.148310,-0.445322,-57.556152,13.824463,-20.385742,29.500000
23360,-11.870452,-5.961562,0.158017,-30.670166,-9.002686,-61.218262,29.490234
23400,-14.154520,-1.690306,2.312799,-60.119629,-98.052979,-39.825439,29.490234
23440,-13.340492,-1.728614,2.552219,12.573242,-178.497314,-47.637939,29.490234
23480,-12.627020,-1.403002,-0.028730,93.719482,-180.267334,-27.954102,29.494141
23520,-16.223110,2.217031,-0.766145,-181.274414,-210.052490,-0.061035,29.578125
23560,-14.666880,0.809240,1.910573,-204.864502,-91.674805,-37.292480,29.583984
23600,-9.351752,-4.118027,-0.493206,-69.915771,-86.608887,-66.009521,29.591797
23640,-6.478710,-2.647987,-1.422156,119.537354,-88.928223,-63.446045,29.578125
23680,-4.841076,-0.043096,-1.982399,177.276611,-27.618408,-66.680908,29.601562
23720,-2.801216,1.254562,-1.455675,57.159424,34.912109,-55.267334,29.601562
23760,-2.255338,1.910573,0.545878,25.787354,62.011719,13.275146,29.599609
23800,-5.056554,1.144428,2.202666,133.544922,78.369141,84.228516,29.582031
23840,-16.400282,-9.236830,13.852851,61.401367,-16.906738,-5.889893,29.587891
23880,-11.133038,-7.287950,11.587936,15.594482,39.367676,-21.942139,29.595703
23920,-8.269572,-0.292093,-0.196325,-88.348389,96.862793,79.772949,29.603516
23960,-12.909535,3.596091,-2.609680,-238.586426,-113.708496,63.049316,29.593750
24000,-10.443508,5.415684,0.407014,-77.911377,252.655029,59.417725,29.611328
24040,-11.137826,3.131616,-3.337517,52.673340,59.814453,89.416504,29.601562
24080,-11.358093,-0.004788,-4.338294,-5.676270,-16.143799,51.177979,29.609375
24120,-11.765107,-3.074155,-1.201889,-8.850098,12.054443,53.375244,29.591797
24160,-7.872135,-2.518700,2.873042,194.824219,92.712402,20.812988,29.617188
24200,-5.588067,-1.393425,0.694318,112.213135,33.782959,-0.885010,29.607422
24240,-6.555324,-0.890643,-1.728614,-72.692871,113.159180,-2.563477,29.619141
24280,-8.748413,-1.259350,0.478840,-139.801025,83.587646,12.298584,29.615234
24320,-9.931149,-2.135628,2.140416,4.394531,60.577393,27.496338,29.626953
24360,-11.348516,-5.339070,-1.460463,32.714844,-0.366211,-12.908936,29.617188
24400,-12.713211,-4.582502,0.847547,-101.135254,-15.808105,-65.704346,29.623047
24440,-14.087482,-0.383072,2.992752,-66.528320,-102.020264,-36.773682,29.603516
24480,-12.990938,-0.881066,2.504335,-18.341064,-205.017090,-49.163818,29.630859
24520,-12.411542,-0.684742,-1.010353,41.442871,-173.889160,-33.386230,29.626953
24560,-16.405069,2.949656,-0.531513,-135.192871,-179.260254,15.838623,29.623047
24600,-14.130578,0.766145,2.288857,-196.380615,-42.205811,-32.196045,29.607422
24640,-9.466674,-3.294421,-0.837971,-42.266846,-48.828125,-78.704834,29.619141
24680,-6.579266,-1.991976,-1.728614,129.730225,-30.395508,-61.492920,29.626953
24720,-4.668694,0.086191,-2.245761,176.544189,-42.755127,-50.415039,29.644531
24760,-2.743755,1.963245,-1.671153,75.592041,23.101807,-50.842285,29.617188
24800,-1.963245,2.815581,0.488417,57.891846,72.723389,11.230469,29.640625
24840,-5.650316,1.168370,2.820370,126.251221,58.227539,82.824707,29.640625
24880,-18.636467,-9.519346,12.966996,51.757812,-55.145264,-10.498047,29.646484
24920,-10.658986,-4.989516,9.629479,41.687012,58.349609,-3.112793,29.638672
24960,-11.875240,1.120486,-1.096544,-114.532471,39.764404,72.631836,29.646484
25000,-11.894394,5.228937,-1.623269,-237.030029,13.000488,45.959473,29.617188
25040,-8.331821,7.450756,-1.613692,67.749023,185.852051,131.439209,29.675781
25080,-10.596737,5.544971,-3.505111,46.478271,24.108887,101.287842,29.669922
25120,-11.880029,1.417367,-3.256114,63.751221,23.254395,46.875000,29.662109
25160,-11.056423,-1.618480,0.435745,70.159912,52.368164,35.491943,29.646484
25200,-7.718906,-1.719037,2.561796,165.008545,66.070557,8.270264,29.648438
25240,-5.683835,-0.579397,-0.521936,50.109863,66.131592,-5.310059,29.662109
25280,-7.436390,0.191536,0.603339,-90.881348,130.249023,-3.509521,29.671875
25320,-9.380483,0.531513,1.522712,-61.981201,79.345703,16.693115,29.658203
25360,-10.874464,-0.608127,0.857124,39.276123,4.760742,41.931152,29.669922
25400,-12.473791,-4.721366,-1.211466,-71.929932,36.529541,-30.212402,29.654297
25440,-13.713987,-1.264138,1.857901,-98.297119,-3.082275,-59.997559,29.660156
25480,-14.293385,2.169147,3.074155,-53.131104,-146.850586,-34.667969,29.669922
25520,-12.650962,0.770933,2.250550,-20.935059,-186.309814,-44.189453,29.748047
25560,-14.293385,3.825934,-1.546654,-40.588379,-189.605713,14.892578,29.763672
25600,-14.671668,6.675035,0.598550,-251.647949,-68.389893,-4.180908,29.734375
25640,-11.822568,0.052672,0.378284,-138.824463,-21.453857,-72.021484,29.763672
25680,-9.107543,-2.801216,-1.508347,31.097412,-55.877686,-82.397461,29.753906
25720,-6.162675,-0.248997,-2.212242,169.128418,-64.453125,-47.271729,29.750000
25760,-3.624821,1.862689,-2.106898,97.167969,-30.395508,-62.347412,29.757812
25800,-2.293645,2.681506,-0.636858,70.617676,43.792725,-41.992188,29.761719
25840,-1.953669,3.457227,0.933739,72.357178,73.059082,33.905029,29.761719
25880,-8.829816,0.488417,5.185841,134.643555,11.810303,107.269287,29.769531
25920,-20.235792,-6.296751,12.746730,29.296875,-76.629639,-52.581787,29.763672
25960,-10.208876,-2.068590,7.120356,27.709961,85.235596,14.709473,29.753906
26000,-12.320562,4.955997,-2.772485,-165.679932,-46.539307,52.612305,29.746094
26040,-8.877700,7.278373,-0.287304,-170.135498,147.552490,29.418945,29.763672
26080,-7.996634,7.934384,-1.680730,142.822266,170.104980,86.486816,29.763672
26120,-9.466674,5.722142,-2.906561,13.549805,-20.263672,104.675293,29.757812
26160,-11.405977,1.762132,-2.877831,122.863770,23.925781,37.292480,29.787109
26200,-10.635044,-1.139640,-1.063026,78.948975,99.975586,19.165039,29.777344
26240,-8.164227,0.004788,2.466028,74.218750,39.825439,-10.223389,29.787109
26280,-6.392519,0.043096,1.403002,195.312500,42.327881,-1.098633,29.783203
26320,-7.268796,1.019930,0.526724,-4.241943,79.040527,-5.859375,29.767578
26360,-8.868123,1.465251,-0.138864,-95.367432,111.206055,-7.049561,29.761719
26400,-11.233594,1.374272,0.047884,-42.510986,79.223633,10.681152,29.777344
26440,-13.508086,-2.710236,0.976834,-95.611572,41.198730,-40.039062,29.783203
26480,-13.479356,-0.105345,2.786851,-75.347900,-47.576904,-47.698975,29.779297
26520,-13.225570,3.433285,3.955221,-96.038818,-183.197021,-28.747559,29.783203
26560,-12.014104,2.710236,0.086191,14.099121,-145.172119,-16.113281,29.781250
26600,-15.375564,3.136404,-2.609680,-160.522461,-160.980225,-1.464844,29.792969
26640,-15.423448,7.254431,2.293645,-238.769531,-14.801025,-42.572021,29.783203
26680,-10.275913,2.944868,0.210690,-84.411621,-47.729492,-53.924561,29.792969
26720,-9.054871,-0.411803,-1.340753,-11.749268,-61.920166,-69.854736,29.820312
26760,-5.971139,0.938527,-2.758120,106.323242,-69.000244,-68.023682,29.792969
26800,-2.231396,2.097321,-2.413355,111.877441,-36.254883,-59.082031,29.802734
26840,-0.411803,2.461239,-0.670376,84.838867,35.522461,-6.988525,29.783203
26880,-1.685518,3.213019,1.048660,131.469727,57.373047,67.779541,29.822266
26920,-16.721106,-1.441309,10.658986,89.141846,-52.551270,-17.730713,29.791016
26960,-17.276560,-5.535394,11.817780,4.852295,-56.518555,-60.760498,29.810547
27000,-6.497863,0.632069,3.236961,-75.195312,147.827148,58.715820,29.833984
27040,-13.972561,8.259995,-3.500323,-254.394531,-35.797119,39.550781,29.802734
27080,-8.619126,8.576031,-1.996764,-69.000244,220.886230,31.829834,29.802734
27120,-8.935161,7.158663,-2.973598,108.764648,89.172363,104.034424,29.822266
27160,-10.807426,4.151546,-3.265691,16.815186,-96.466064,73.333740,29.781250
27200,-11.774684,1.005565,-2.293645,272.888184,20.965576,34.271240,29.800781
27240,-9.074024,-0.387861,1.680730,135.253906,61.279297,2.288818,29.806641
27280,-6.196194,-0.359130,1.383849,98.144531,62.774658,-25.390625,29.820312
27320,-6.517017,0.976834,0.282516,-69.549561,94.543457,-21.759033,29.802734
27360,-8.317456,1.637634,-0.277727,-80.261230,130.859375,-4.821777,29.835938
27400,-10.089166,1.733402,0.148441,20.843506,62.622070,31.341553,29.837891
27440,-13.350069,-0.708684,1.283292,-78.796387,-15.075684,-3.326416,29.830078
27480,-13.469779,-2.169147,0.541090,-55.786133,24.078369,-47.454834,29.830078
27520,-13.445837,2.336741,3.773262,-52.093506,-81.268311,-27.130127,29.925781
27560,-12.224793,3.117251,2.896984,-118.927002,-163.421631,-30.242920,29.896484
27600,-11.822568,1.862689,-1.154005,7.812500,-171.447754,-20.721436,29.914062
27640,-15.298949,5.884948,-1.541866,-187.927246,-128.723145,-6.530762,29.898438
27680,-13.891158,5.841852,2.164358,-226.715088,9.552002,-40.405273,29.902344
27720,-10.611102,-0.043096,-0.603339,-91.796875,-25.634766,-87.738037,29.908203
27760,-7.067683,0.478840,-2.149993,62.957764,-74.493408,-72.601318,29.914062
27800,-4.118027,1.345541,-3.021482,140.716553,-93.536377,-60.546875,29.916016
27840,-1.968034,2.140416,-1.656788,114.379883,-19.958496,-41.534424,29.921875
27880,-1.747767,2.920926,-0.028730,72.723389,20.507812,12.847900,29.931641
27920,-4.453215,3.519476,1.853112,179.656982,40.863037,67.626953,29.941406
27960,-19.412188,-3.294421,13.211205,15.472412,-39.672852,-56.213379,29.916016
28000,-13.268666,-4.592079,10.362105,40.527344,1.403809,-19.378662,29.933594
28040,-8.226477,2.351106,0.818817,-51.788330,124.969482,58.319092,29.921875
28080,-13.618219,7.977480,-2.264915,-300.750732,10.375977,25.238037,29.931641
28120,-7.244854,8.078036,-1.910573,-28.747559,260.314941,41.564941,29.941406
28160,-8.973468,7.642292,-3.481169,93.139648,35.614014,110.260010,29.910156
28200,-10.386047,4.290410,-2.954445,40.588379,-111.480713,67.840576,29.931641
28240,-11.291056,0.277727,-1.273715,237.487793,66.009521,30.456543,29.941406
28280,-8.801085,-1.513135,2.403779,147.583008,57.800293,11.627197,29.951172
28320,-6.335058,-0.086191,0.632069,107.971191,12.634277,-17.761230,29.931641
28360,-6.756437,1.182736,-0.497994,-96.801758,124.511719,-12.481689,29.927734
28400,-8.757990,1.355118,-0.095768,13.671875,135.314941,7.751465,29.945312
28440,-10.625467,1.312023,2.533065,-31.677246,19.592285,26.550293,29.931641
28480,-13.034034,-1.886631,0.196325,-51.391602,37.536621,-16.723633,29.927734
28520,-13.943830,-0.991199,0.924162,-107.330322,20.904541,-60.913086,29.949219
28560,-14.762648,2.054225,2.145205,-32.165527,-128.967285,-51.361084,29.937500
28600,-13.211205,2.437297,2.686294,-48.583984,-177.215576,-49.468994,29.957031
28640,-13.675680,7.072472,-0.895431,-92.193604,-167.297363,-4.119873,29.953125
28680,-12.679692,7.924808,-0.641646,-232.116699,-62.835693,-2.075195,29.957031
28720,-12.411542,-0.177171,0.488417,-152.587891,-57.342529,-64.178467,29.937500
28760,-10.352529,-1.115698,-1.417367,35.614014,-58.166504,-88.592529,29.939453
28800,-5.688623,1.043872,-2.509123,134.216309,-119.720459,-49.926758,29.957031
28840,-3.758897,2.293645,-2.269703,110.290527,-58.593750,-76.385498,29.970703
28880,-2.370260,2.580950,-0.545878,80.932617,22.460938,-42.572021,29.970703
28920,-1.810017,3.155558,1.048660,87.188721,50.689697,15.716553,29.994141
28960,-7.125144,1.235408,5.224148,143.951416,63.659668,40.069580,29.964844
29000,-19.771318,-4.572925,13.953407,24.017334,-39.489746,-40.863037,29.974609
29040,-12.071565,-0.670376,8.039729,40.466309,37.933350,-2.929688,29.957031
29080,-13.072341,4.204218,-1.671153,-207.672119,40.771484,4.547119,29.968750
29120,-7.292738,6.967127,-1.264138,-126.281738,91.674805,34.179688,29.951172
29160,-7.359776,9.533711,-2.059013,16.052246,209.777832,81.573486,29.986328
29200,-8.762778,6.200983,-3.299210,-20.782471,-21.575928,125.518799,29.933594
29240,-11.903971,2.341529,-4.750096,168.457031,-11.993408,63.568115,29.974609
29280,-11.812991,-1.604115,0.632069,-28.625488,95.031738,20.904541,29.988281
29320,-8.753201,-1.158794,3.552995,231.658936,-7.232666,2.899170,29.966797
29360,-6.761226,-0.306458,0.737414,125.549316,22.003174,-7.965088,29.978516
29400,-7.268796,1.091756,0.000000,-9.765625,106.597900,-10.009766,29.972656
29440,-8.422802,1.862689,-0.138864,3.417969,91.766357,3.875732,29.970703
29480,-11.903971,0.584185,-0.277727,-34.240723,61.676025,-3.204346,30.070312
29520,-13.685257,-1.115698,1.877054,-176.940918,54.168701,-44.250488,30.056641
29560,-13.666103,0.938527,2.274492,28.228760,-45.074463,-17.395020,30.078125
29600,-13.077129,2.542642,2.992752,-110.778809,-137.054443,-25.054932,30.062500
29640,-12.081141,1.690306,1.177947,-46.997070,-164.642334,-32.043457,30.064453
29680,-13.718776,5.506664,-1.805228,-86.822510,-144.958496,-5.401611,30.082031
29720,-13.747506,9.169792,0.359130,-263.214111,-56.671143,-5.615234,30.074219
29760,-10.740389,1.900996,0.411803,-196.472168,13.214111,-51.818848,30.062500
29800,-8.427590,-1.163582,-1.666364,-9.643555,-59.844971,-81.390381,30.068359
29840,-6.066907,0.196325,-2.025495,138.549805,-84.716797,-63.964844,30.068359
29880,-4.309563,1.958457,-1.814805,99.304199,-49.407959,-59.875488,30.074219
29920,-2.470816,2.609680,-0.124498,80.505371,29.541016,-32.104492,30.070312
29960,-2.173935,3.208230,1.575385,79.406738,67.657471,38.665771,30.085938
30000,-9.988609,1.369483,6.387730,104.644775,9.948730,20.721436,30.072266
30040,-20.231005,-6.526594,12.670115,1.983643,-68.969727,-62.957764,30.074219
30080,-8.839393,-2.523489,6.282385,44.067383,55.206299,-6.256104,30.099609
30120,-8.030152,4.347870,-4.304775,-33.630371,75.286865,90.118408,30.080078
30160,-12.344504,8.427590,-0.598550,-265.502930,97.381592,30.914307,30.091797
30200,-8.331821,7.920019,-0.799663,95.855713,215.850830,61.370850,30.074219
30240,-8.590396,6.282385,-3.251326,63.690186,-24.719238,101.867676,30.080078
30280,-10.500969,3.327940,-2.829947,56.427002,-70.526123,47.607422,30.091797
30320,-11.123461,-0.770933,-0.502782,101.684570,116.027832,21.911621,30.093750
30360,-8.408437,-0.756568,2.011129,112.640381,-4.516602,-0.457764,30.080078
30400,-6.775591,0.105345,1.565808,173.614502,37.170410,-11.322021,30.083984
30440,-7.163452,1.613692,0.354342,-20.690918,74.890137,-4.180908,30.095703
30480,-8.446744,1.474828,-0.244209,-65.673828,101.196289,-1.373291,30.095703
30520,-10.697293,0.756568,-0.924162,-46.356201,69.030762,4.425049,30.111328
30560,-13.062764,-0.818817,0.684742,-38.757324,88.562012,-27.801514,30.101562
30600,-14.058752,0.181959,2.758120,-84.960938,-4.852295,-46.844482,30.068359
30640,-14.116213,2.499547,2.959233,-90.362549,-129.638672,-35.766602,30.097656
30680,-12.794614,2.149993,2.030283,-60.180664,-202.270508,-47.454834,30.097656
30720,-13.259089,6.703765,-0.895431,-89.416504,-152.648926,-12.176514,30.078125
30760,-13.330915,8.767567,0.181959,-240.417480,-77.789307,9.460449,30.105469
30800,-12.085930,1.216254,0.339977,-211.761475,-39.428711,-48.217773,30.105469
30840,-9.782708,-1.063026,-0.823605,57.952881,-67.291260,-86.669922,30.082031
30880,-5.712565,0.818817,-2.217031,91.979980,-105.743408,-55.816650,30.091797
30920,-3.552995,2.489970,-1.905785,102.752686,-50.628662,-73.638916,30.101562
30960,-1.929727,2.097321,-0.196325,47.119141,39.733887,-32.928467,30.117188
31000,-1.436521,2.413355,1.010353,49.652100,83.160400,26.428223,30.128906
31040,-6.224925,2.092532,3.912126,155.822754,66.314697,63.293457,30.125000
31080,-21.073763,-4.649539,14.274231,-14.282227,-52.307129,-53.039551,30.107422
31120,-12.828133,-2.753332,8.690952,54.321289,24.810791,-19.348145,30.119141
31160,-11.109096,3.739743,-1.182736,-122.344971,45.867920,32.958984,30.107422
31200,-10.103531,7.642292,-0.708684,-177.032471,71.777344,22.033691,30.123047
31240,-7.062895,9.423578,-2.102109,52.337646,189.758301,63.415527,30.105469
31280,-8.705317,7.359776,-3.251326,-15.106201,102.111816,100.341797,30.099609
31320,-10.395624,4.022259,-1.958457,-65.277100,-31.097412,75.744629,30.125000
31360,-12.210428,-0.703895,-1.024718,96.740723,123.992920,22.369385,30.105469
31400,-9.026140,-1.810017,-0.272939,19.134521,49.743652,14.495850,30.128906
31440,-7.704541,-0.699107,1.513135,65.917969,28.900146,-0.518799,30.117188
31480,-7.556100,-0.277727,1.278504,104.797363,51.910400,1.220703,30.208984
31520,-7.800309,1.106121,0.296881,-34.210205,63.812256,8.941650,30.208984
31560,-9.437943,0.493206,-0.454898,-43.518066,45.104980,9.887695,30.224609
31600,-12.593501,-1.101333,-1.168370,-95.306396,34.576416,-27.099609,30.222656
31640,-13.072341,0.138864,1.561020,-63.507080,44.128418,-53.070068,30.205078
31680,-14.393941,3.222595,4.213795,-130.523682,-112.457275,-55.877686,30.222656
31720,-14.274231,3.423708,2.796427,-65.917969,-196.014404,-54.687500,30.197266
31760,-15.495274,7.862558,-0.809240,-85.296631,-191.589355,-8.758545,30.238281
31800,-14.101848,10.405201,-0.306458,-261.230469,-77.514648,13.854980,30.230469
31840,-11.827356,2.748544,0.694318,-291.717529,-47.515869,-56.640625,30.222656
31880,-8.738836,0.033519,-1.805228,120.025635,-77.301025,-79.589844,30.193359
31920,-5.626374,0.383072,-2.346318,67.199707,-96.984863,-74.737549,30.222656
31960,-2.954445,1.465251,-1.374272,48.156738,-50.872803,-62.866211,30.246094
32000,-1.000776,2.135628,-0.421380,25.695801,43.701172,-22.583008,30.232422
32040,-0.215478,2.935291,1.254562,59.539795,104.278564,63.720703,30.195312
32080,-10.467450,0.368707,8.001422,79.162598,32.043457,57.495117,30.214844
32120,-20.566193,-6.325481,14.987702,-87.463379,-24.291992,-50.872803,30.232422
32160,-8.858546,-1.441309,5.109226,-1.556396,83.465576,13.214111,30.253906
32200,-8.480263,5.425261,-4.266468,-30.395508,60.943604,114.196777,30.234375
32240,-13.110648,8.853758,-0.986411,-261.444092,199.676514,16.418457,30.234375
32280,-7.541735,6.622362,-2.303222,141.052246,156.799316,87.860107,30.238281
32320,-8.757990,5.477933,-2.633622,66.833496,-6.195068,106.750488,30.236328
32360,-11.846510,2.398990,-1.719037,156.555176,-50.567627,48.370361,30.238281
32400,-9.916783,-0.723049,-0.407014,33.386230,134.613037,-8.514404,30.271484
32440,-7.412448,-0.339977,-0.071826,54.077148,42.877197,-12.664795,30.236328
32480,-6.962338,1.608904,-0.052672,-10.772705,66.802979,-22.979736,30.244141
32520,-8.034941,2.097321,-0.421380,-115.203857,98.937988,-12.207031,30.244141
32560,-9.461885,1.158794,-0.986411,-28.869629,86.059570,10.620117,30.248047
32600,-10.840945,-0.651223,-0.742203,36.560059,43.701172,10.833740,30.218750
32640,-13.364434,-2.059013,0.536301,-169.464111,48.400879,-49.499512,30.236328
32680,-13.455414,2.236184,2.446874,-91.552734,-28.045654,-51.208496,30.246094
32720,-13.206416,4.003105,3.299210,-177.795410,-115.783691,-40.863037,30.234375
32760,-12.670115,2.676718,2.384625,-92.559814,-202.087402,-44.250488,30.251953
32800,-13.872005,4.228160,-1.920150,-56.335449,-214.630127,-5.584717,30.234375
32840,-15.203181,6.804321,0.081403,-233.154297,-85.266113,2.105713,30.232422
32880,-11.061212,4.448427,1.163582,-143.707275,-52.703857,-36.804199,30.267578
32920,-8.485051,0.957681,-0.703895,35.614014,-65.338135,-61.218262,30.255859
32960,-6.536170,0.560243,-1.838747,112.396240,-71.289062,-71.258545,30.259766
33000,-3.069367,1.292869,-2.293645,32.318115,-48.339844,-69.732666,30.238281
33040,-0.914585,2.025495,-0.521936,26.977539,44.555664,-38.970947,30.267578
33080,-1.154005,2.365471,1.034295,76.080322,85.266113,62.133789,30.271484
33120,-12.727576,-1.125275,7.838616,80.017090,14.099121,15.380859,30.277344
33160,-19.273323,-6.191406,12.646173,-54.504395,-37.841797,-51.177979,30.255859
33200,-10.079589,0.047884,5.291186,14.404297,97.869873,20.751953,30.255859
33240,-12.363658,4.577713,-2.786851,-157.348633,-75.714111,51.330566,30.271484
33280,-7.235278,6.354211,0.976834,-131.072998,201.538086,56.549072,30.271484
33320,-7.010222,8.729259,-1.910573,158.721924,142.761230,89.263916,30.267578
33360,-9.184157,6.081272,-2.322376,13.305664,-65.673828,109.924316,30.277344
33400,-12.871228,1.364695,-0.105345,191.192627,-28.869629,26.000977,30.267578
33440,-10.654198,-2.633622,1.177947,11.596680,99.090576,-5.004883,30.359375
33480,-7.163452,-0.962469,0.617704,84.503174,44.128418,-4.058838,30.339844
33520,-6.698977,0.574608,1.144428,47.851562,69.824219,-13.061523,30.335938
33560,-7.795521,2.226608,0.205901,-52.642822,105.072021,-1.678467,30.357422
33600,-8.422802,2.068590,-0.464475,-19.622803,76.660156,25.939941,30.373047
33640,-10.764331,0.339977,-0.986411,40.069580,14.587402,19.165039,30.359375
33680,-13.139379,-1.522712,-0.114922,-99.121094,93.658447,-38.391113,30.361328
33720,-14.049175,1.628057,2.748544,-56.030273,-15.350342,-36.224365,30.367188
33760,-14.116213,3.088520,3.217807,-138.671875,-119.110107,-29.846191,30.367188
33800,-12.717999,1.493982,2.068590,-102.844238,-198.852539,-39.520264,30.365234
33840,-13.249513,3.227384,-1.249773,-35.369873,-208.068848,-22.521973,30.371094
33880,-13.881581,6.746861,0.043096,-250.183105,-62.011719,4.852295,30.373047
33920,-11.094730,3.940856,0.588974,-87.341309,-17.181396,-53.466797,30.373047
33960,-9.672575,-0.991199,-0.612916,38.665771,-78.582764,-98.144531,30.359375
34000,-7.383718,0.067038,-1.580173,140.594482,-85.754395,-82.336426,30.359375
34040,-3.098097,2.145205,-2.489970,65.643311,-63.232422,-76.202393,30.376953
34080,-1.498770,2.437297,-0.229843,53.009033,48.431396,-35.797119,30.386719
34120,-1.881842,2.695871,1.374272,62.988281,95.977783,37.353516,30.375000
34160,-9.337387,0.603339,5.516241,127.136230,18.707275,24.078369,30.371094
34200,-20.705057,-6.344635,13.019669,9.155273,-66.528320,-69.702148,30.390625
34240,-9.141062,-2.561796,6.861782,-6.408691,72.631836,6.286621,30.382812
34280,-8.317456,4.127604,-4.165911,-36.865234,66.192627,108.154297,30.398438
34320,-12.392388,7.417237,-0.335188,-250.732422,153.411865,25.756836,30.382812
34360,-6.641516,7.704541,-0.976834,86.486816,177.093506,62.500000,30.380859
34400,-8.858546,6.823475,-1.431733,61.828613,-5.249023,109.741211,30.386719
34440,-11.860875,2.810793,-1.642422,136.077881,-136.413574,56.060791,30.388672
34480,-11.631032,-1.197101,0.593762,131.469727,143.493652,-1.525879,30.394531
34520,-7.766790,-1.101333,0.493206,32.836914,48.095703,-10.559082,30.375000
34560,-6.780379,0.675165,0.828394,103.576660,50.170898,-19.409180,30.388672
34600,-7.249643,2.054225,0.320823,1.739502,84.045410,-6.805420,30.371094
34640,-8.288726,2.169147,-0.325611,-77.575684,104.064941,10.009766,30.382812
34680,-10.232818,0.737414,-1.063026,-27.069092,48.034668,21.484375,30.392578
34720,-13.211205,-1.283292,0.258574,-34.790039,97.900391,-24.444580,30.376953
34760,-14.326903,0.359130,1.843535,-28.900146,2.258301,-40.008545,30.402344
34800,-14.144943,2.499547,2.595315,-116.271973,-87.585449,-35.552979,30.410156
34840,-12.847286,1.905785,2.422932,-111.846924,-169.494629,-41.564941,30.408203
34880,-12.966996,2.758120,-0.665588,-27.893066,-223.266602,-28.503418,30.392578
34920,-13.579912,7.144298,-1.125275,-212.585449,-112.976074,11.199951,30.396484
34960,-12.248735,5.712565,1.240196,-191.436768,-42.724609,-34.484863,30.396484
35000,-9.433155,0.699107,-0.833182,40.069580,-84.716797,-77.392578,30.392578
35040,-7.896077,-0.076614,-1.029507,76.232910,-92.102051,-91.491699,30.398438
35080,-4.534618,1.450886,-2.097321,68.389893,-66.680908,-78.155518,30.400391
35120,-1.651999,2.025495,-0.881066,45.837402,5.035400,-37.292480,30.398438
35160,-1.273715,2.485181,0.842759,43.395996,70.190430,19.317627,30.396484
35200,-5.904101,1.651999,4.036624,104.125977,67.871094,35.339355,30.408203
35240,-20.695480,-5.554548,13.048399,19.653320,-60.058594,-57.556152,30.398438
35280,-11.712435,-4.146757,8.571242,54.962158,11.566162,-5.493164,30.417969
35320,-6.842628,2.217031,-0.517148,-83.099365,141.723633,68.237305,30.398438
35360,-12.536040,7.158663,-1.417367,-235.260010,-49.835205,80.657959,30.396484
35400,-7.829040,7.570466,-0.316035,-60.607910,201.354980,38.574219,30.408203
35440,-8.475474,7.043741,-2.370260,171.875000,28.381348,115.173340,30.476562
35480,-10.285490,4.060566,-2.494758,86.273193,-129.211426,79.772949,30.474609
35520,-12.052411,-0.976834,0.134075,123.809814,117.736816,10.162354,30.492188
35560,-8.762778,-1.915361,1.642422,13.488770,59.448242,1.770020,30.462891
35600,-7.426814,0.579397,1.690306,132.598877,6.805420,-11.718750,30.480469
35640,-7.369353,1.532289,0.598550,100.402832,59.783936,-0.213623,30.478516
35680,-7.723695,2.671929,-0.277727,-64.605713,105.865479,-3.479004,30.488281
35720,-8.590396,1.939303,-0.952892,-128.967285,99.395752,13.336182,30.496094
35760,-11.511322,0.593762,-1.900996,44.555664,23.162842,16.601562,30.482422
35800,-13.742718,-0.900220,0.900220,12.573242,67.596436,-32.531738,30.519531
35840,-15.303738,0.435745,2.719813,-43.945312,-50.231934,-45.959473,30.500000
35880,-14.350845,1.551443,2.873042,-61.828613,-148.162842,-40.222168,30.498047
35920,-13.062764,2.533065,1.460463,-42.083740,-210.083008,-39.306641,30.513672
35960,-12.622231,7.163452,-1.268927,-190.338135,-151.428223,11.840820,30.531250
36000,-12.392388,6.598420,0.205901,-201.171875,-50.201416,-19.989014,30.517578
36040,-10.864887,1.063026,-0.689530,-63.690186,-93.536377,-60.974121,30.525391
36080,-8.547300,-0.986411,-1.326388,53.771973,-70.159912,-101.959229,30.507812
36120,-6.368577,0.617704,-1.709460,131.866455,-85.815430,-84.716797,30.515625
36160,-2.494758,2.384625,-1.795651,53.955078,-22.521973,-66.802979,30.517578
36200,-1.278504,2.896984,0.134075,54.687500,47.943115,-18.890381,30.511719
36240,-2.887407,2.925714,2.078167,109.466553,82.489014,51.452637,30.507812
36280,-16.194380,-2.671929,10.658986,67.932129,-31.250000,-23.712158,30.517578
36320,-17.448942,-5.813122,10.630256,41.168213,-61.920166,-38.940430,30.507812
36360,-7.489063,0.608127,4.041412,-76.293945,135.986328,4.364014,30.511719
36400,-9.083601,6.129156,-2.480393,-106.231689,-59.112549,115.570068,30.519531
36440,-9.375694,8.125920,-1.168370,-146.514893,171.356201,41.900635,30.511719
36480,-8.710106,7.235278,-2.432509,123.321533,130.828857,102.447510,30.507812
36520,-9.279925,5.315128,-2.925714,13.366699,38.116455,98.144531,30.519531
36560,-11.760319,1.403002,-2.240973,164.611816,-22.369385,52.032471,30.517578
36600,-10.984597,-1.580173,0.967257,-34.149170,100.311279,-1.800537,30.509766
36640,-7.508216,0.387861,1.019930,22.674561,29.998779,-2.044678,30.517578
36680,-7.541735,0.636858,1.455675,61.370850,50.476074,-17.028809,30.527344
36720,-8.331821,1.316811,0.239420,51.818848,64.575195,2.288818,30.529297
36760,-8.537724,1.771709,-0.435745,-12.786865,75.836182,14.953613,30.523438
36800,-9.605537,0.493206,-0.914585,-51.391602,56.579590,11.505127,30.521484
36840,-12.229582,-1.302446,-1.704672,-89.660645,68.267822,-26.977539,30.517578
36880,-13.613431,0.972046,1.551443,61.889648,2.227783,-33.721924,30.539062
36920,-14.226347,2.691083,3.150769,-86.273193,-62.835693,-27.679443,30.595703
36960,-13.407530,1.532289,2.767697,-73.394775,-163.818359,-37.963867,30.572266
37000,-12.813767,1.810017,0.713472,-51.605225,-219.970703,-32.196045,30.589844
37040,-12.679692,6.100426,-1.666364,-146.881104,-140.228271,21.118164,30.601562
37080,-13.345281,5.228937,0.928950,-209.777832,-39.611816,-11.077881,30.595703
37120,-11.324574,1.010353,-0.296881,-53.680420,-77.880859,-67.901611,30.599609
37160,-7.891289,0.047884,-1.671153,71.624756,-92.163086,-99.121094,30.609375
37200,-5.612009,0.541090,-1.824382,124.542236,-71.289062,-72.204590,30.585938
37240,-2.221819,2.059013,-1.805228,67.810059,-31.463623,-54.870605,30.601562
37280,-1.288081,2.968810,0.296881,55.084229,44.769287,-12.786865,30.619141
37320,-3.361459,2.547431,3.098097,102.111816,82.031250,40.893555,30.591797
37360,-17.290924,-3.883395,11.468226,40.679932,-25.665283,-36.956787,30.623047
37400,-15.207970,-4.774038,9.461885,59.722900,-30.944824,-25.177002,30.599609
37440,-6.607996,0.019154,3.447650,-87.036133,136.260986,18.585205,30.619141
37480,-10.141838,5.827487,-3.979163,-101.501465,-21.209717,132.476807,30.595703
37520,-10.860099,8.561666,0.258574,-146.148682,218.597412,19.348145,30.599609
37560,-7.824251,7.244854,-1.939303,159.973145,77.850342,90.515137,30.595703
37600,-9.763555,5.430049,-2.643199,75.775146,-57.739258,95.642090,30.615234
37640,-12.301409,0.991199,-1.422156,169.708252,44.525146,22.583008,30.615234
37680,-9.624691,-1.613692,1.484405,-55.633545,85.296631,0.122070,30.605469
37720,-7.230489,0.071826,1.570596,90.545654,30.578613,-9.216309,30.599609
37760,-7.144298,0.957681,0.967257,106.781006,46.997070,-9.887695,30.613281
37800,-7.876924,2.475605,-0.038307,1.403809,92.041016,1.861572,30.605469
37840,-8.585608,2.140416,-0.598550,-61.889648,85.937500,17.120361,30.615234
37880,-10.869676,-0.009577,-1.216254,-16.296387,43.914795,9.216309,30.619141
37920,-12.818556,-1.359907,0.531513,-29.052734,89.447021,-31.097412,30.601562
37960,-14.164097,0.694318,1.699883,-19.134521,-6.103516,-41.595459,30.603516
38000,-14.389153,2.255338,2.169147,-69.671631,-106.781006,-32.104492,30.601562
38040,-13.105860,0.727837,2.293645,-37.139893,-188.262939,-44.525146,30.611328
38080,-12.722788,4.146757,-0.751779,-81.512451,-183.288574,-10.803223,30.621094
38120,-12.459426,7.010222,-0.440533,-201.446533,-95.306396,4.852295,30.626953
38160,-12.157756,3.241749,0.196325,-140.289307,-46.875000,-36.499023,30.605469
38200,-10.079589,0.028730,-0.502782,27.862549,-78.277588,-81.573486,30.611328
38240,-7.264008,0.550666,-1.527501,106.323242,-94.970703,-100.036621,30.625000
38280,-4.711789,1.426944,-2.092532,90.393066,-60.028076,-78.430176,30.625000
38320,-1.991976,2.595315,-1.264138,58.990479,2.502441,-46.051025,30.613281
38360,-1.604115,3.112462,0.708684,62.103271,54.016113,7.690430,30.632812
38400,-5.851429,1.723825,4.113238,97.290039,75.653076,31.829834,30.636719
38440,-20.839132,-5.951985,12.502522,58.441162,-50.048828,-39.001465,30.625000
38480,-11.956643,-1.857901,7.982268,45.166016,24.841309,-9.185791,30.628906
38520,-8.231265,3.672705,-0.718261,-157.440186,116.149902,81.420898,30.644531
38560,-10.563218,7.402872,-0.675165,-178.192139,87.951660,58.929443,30.640625
38600,-8.513782,7.666234,-1.005565,59.875488,135.711670,73.120117,30.630859
38640,-9.232041,6.224925,-2.777274,144.195557,-26.794434,121.368408,30.644531
38680,-10.793061,2.547431,-2.619257,140.838623,-56.182861,41.595459,30.638672
38720,-10.754754,-1.460463,1.029507,-30.303955,105.743408,4.028320,30.654297
38760,-8.413225,-1.168370,2.418144,107.666016,29.144287,-9.460449,30.650391
38800,-7.431602,0.517148,1.283292,135.864258,22.735596,-11.688232,30.646484
38840,-7.738060,2.293645,0.009577,-11.047363,88.989258,-5.432129,30.648438
38880,-8.236053,2.178724,-0.617704,-90.911865,119.964600,0.915527,30.705078
38920,-9.840169,1.101333,-1.297657,-39.123535,73.059082,15.625000,30.730469
38960,-12.775460,-0.373495,0.708684,23.864746,54.504395,-12.634277,30.714844
39000,-14.106636,-0.076614,1.316811,-3.967285,-0.335693,-34.667969,30.738281
39040,-14.628572,1.719037,2.652776,-70.678711,-93.109131,-29.693604,30.734375
39080,-12.962208,0.713472,2.480393,-66.497803,-168.273926,-46.234131,30.726562
39120,-12.473791,2.360683,0.306458,-48.828125,-204.040527,-29.052734,30.742188
39160,-13.077129,7.163452,-1.192312,-220.825195,-116.119385,8.819580,30.738281
39200,-12.694057,4.912902,0.349553,-170.959473,-31.005859,-30.761719,30.718750
39240,-10.194510,-0.407014,-0.938527,13.488770,-70.220947,-74.798584,30.732422
39280,-8.418014,-1.082179,-1.230620,89.447021,-72.662354,-105.560303,30.732422
39320,-6.172252,1.192312,-1.939303,136.016846,-78.247070,-97.290039,30.728516
39360,-2.063802,2.710236,-1.517924,81.451416,-25.878906,-57.861328,30.736328
39400,-1.235408,3.385401,0.445322,65.521240,44.677734,-10.070801,30.734375
39440,-3.500323,2.590526,3.241749,102.630615,95.092773,38.604736,30.728516
39480,-17.061081,-3.916914,11.214440,61.004639,-29.632568,-11.718750,30.726562
39520,-16.596605,-5.023035,9.653421,51.971436,-28.961182,-18.035889,30.751953
39560,-13.948619,0.924162,3.658340,-176.910400,87.768555,-10.955811,30.761719
39600,-7.177817,4.812346,-2.758120,-40.252686,-118.286133,106.811523,30.748047
39640,-2.973598,10.984597,-0.057461,-71.563721,272.949219,36.682129,30.744141
39680,-9.768343,9.117120,-2.638410,26.794434,129.455566,124.298096,30.748047
39720,-11.549629,3.639187,-2.834735,33.050537,-130.554199,103.149414,30.761719
39760,-13.086706,-2.169147,0.191536,67.321777,122.283936,29.693604,30.759766
39800,-9.854534,-3.816358,1.498770,131.622314,13.122559,12.908936,30.742188
39840,-7.441179,-0.684742,1.474828,177.459717,-24.139404,-16.601562,30.740234
39880,-6.900089,1.297657,0.584185,84.503174,92.315674,-10.803223,30.755859
39920,-7.441179,3.093309,-0.172383,-120.635986,134.979248,-10.437012,30.755859
39960,-8.599973,2.815581,-1.072602,-138.305664,80.291748,18.280029,30.742188
40000,-12.296620,-0.330400,-1.460463,56.396484,71.807861,1.800537,30.742188
40040,-14.250289,-1.225831,1.484405,105.865479,-4.028320,-13.763428,30.751953
40080,-14.638149,0.924162,3.189077,-88.378906,-68.969727,-43.365479,30.763672
40120,-13.211205,1.958457,2.815581,-96.466064,-147.247314,-48.461914,30.777344
40160,-12.306197,2.978387,0.105345,-58.624268,-185.058594,-39.245605,30.755859
40200,-13.125013,6.933608,-1.312023,-145.843506,-128.234863,2.807617,30.763672
40240,-13.129802,6.464345,1.594538,-213.378906,-43.823242,-21.545410,30.753906
40280,-10.644621,0.512359,-0.220267,-134.948730,-62.805176,-67.504883,30.759766
40320,-7.268796,-0.148441,-1.561020,87.463379,-66.284180,-90.881348,30.775391
40360,-5.793968,0.713472,-1.824382,121.520996,-63.690186,-82.244873,30.765625
40400,-2.849100,2.322376,-1.379060,66.894531,-13.946533,-66.314697,30.767578
40440,-1.522712,2.863465,0.373495,68.328857,50.811768,-12.145996,30.771484
40480,-3.557784,2.705448,2.461239,144.317627,85.723877,63.110352,30.773438
40520,-18.066647,-4.458004,11.563994,43.640137,-40.069580,-27.343750,30.769531
40560,-16.007633,-5.640739,9.677363,45.349121,-42.633057,-28.228760,30.779297
40600,-9.145850,1.857901,1.838747,-102.111816,129.364014,12.481689,30.763672
40640,-9.255983,6.880936,-2.667141,-109.466553,-87.463379,103.271484,30.787109
40680,-7.977480,9.519346,-0.162806,-73.883057,223.266602,58.288574,30.748047
40720,-9.078813,8.255207,-3.045424,132.507324,92.437744,118.835449,30.779297
40760,-9.844957,4.429273,-3.069367,-54.260254,-25.177002,75.744629,30.781250
40800,-12.358870,-0.665588,-0.100556,68.206787,66.528320,21.087646,30.785156
40840,-9.457097,-2.638410,1.254562,46.600342,49.835205,16.052246,30.769531
40880,-7.584831,-0.440533,1.604115,145.599365,-20.690918,-6.683350,30.851562
40920,-7.278373,0.584185,0.928950,92.559814,36.163330,-4.028320,30.847656
40960,-8.135497,1.651999,0.239420,-16.632080,87.158203,2.532959,30.837891
41000,-8.489840,1.752556,-0.363919,-81.481934,71.258545,18.310547,30.845703
41040,-10.783484,0.306458,-1.460463,-107.574463,53.436279,2.899170,30.828125
41080,-12.895170,-0.186748,-1.771709,144.165039,129.211426,-22.552490,30.845703
41120,-14.968549,1.005565,3.936068,-13.458252,-53.619385,-28.472900,30.847656
41160,-14.279019,1.182736,3.955221,-96.099854,-140.655518,-44.555664,30.839844
41200,-12.483368,1.292869,2.078167,-40.985107,-215.515137,-42.846680,30.867188
41240,-13.177686,6.272809,-1.537078,-124.694824,-160.919189,3.204346,30.863281
41280,-13.828909,7.718906,0.842759,-211.975098,-77.117920,-6.652832,30.873047
41320,-11.903971,1.072602,0.900220,-178.863525,-20.874023,-57.037354,30.871094
41360,-8.451532,-0.871489,-1.460463,59.906006,-79.772949,-94.543457,30.847656
41400,-6.268020,0.699107,-2.020706,159.667969,-81.756592,-83.892822,30.857422
41440,-3.236961,2.054225,-1.968034,72.509766,-43.640137,-78.399658,30.855469
41480,-1.747767,2.753332,0.004788,65.856934,43.060303,-28.472900,30.876953
41520,-2.528277,3.323152,2.059013,106.719971,66.589355,44.067383,30.884766
41560,-12.966996,-1.359907,10.376471,59.631348,-0.885010,3.906250,30.875000
41600,-17.338808,-5.573701,12.196063,2.044678,-38.818359,-37.139893,30.876953
41640,-8.073248,-0.215478,4.797980,-7.171631,96.984863,2.136230,30.875000
41680,-8.418014,4.161122,-4.276044,-78.399658,50.842285,115.417480,30.882812
41720,-10.984597,7.642292,0.531513,-200.469971,140.808105,56.854248,30.886719
41760,-8.619126,8.614338,-0.454898,125.000000,174.194336,93.017578,30.873047
41800,-8.916007,5.664681,-2.992752,3.295898,16.143799,94.177246,30.871094
41840,-12.200851,0.967257,-3.021482,92.834473,19.256592,19.561768,30.906250
41880,-10.946290,-1.934515,0.205901,-39.794922,60.852051,29.235840,30.884766
41920,-7.900866,-0.287304,2.154782,163.635254,-9.918213,11.413574,30.882812
41960,-7.220912,0.402226,1.297657,177.795410,-19.805908,-11.657715,30.896484
42000,-7.517793,1.312023,0.517148,73.059082,79.376221,-1.159668,30.880859
42040,-7.742848,2.331953,-0.162806,-89.599609,94.177246,6.103516,30.871094
42080,-9.816227,1.537078,-1.168370,-119.567871,46.844482,7.049561,30.890625
42120,-12.243947,-0.646434,-2.671929,-8.728027,70.007324,-22.369385,30.896484
42160,-13.900735,1.173159,2.422932,107.147217,-9.582520,-18.951416,30.867188
42200,-15.093047,1.963245,3.572149,-111.541748,-94.757080,-31.433105,30.890625
42240,-13.503298,0.541090,2.422932,-54.656982,-182.495117,-42.053223,30.902344
42280,-13.287820,5.291186,0.158017,-40.679932,-190.673828,-16.693115,30.896484
42320,-13.024457,9.011775,-0.770933,-223.266602,-96.527100,10.955811,30.902344
42360,-12.129025,2.796427,0.397437,-233.001709,-22.338867,-55.786133,30.896484
42400,-9.548077,-0.181959,-0.383072,42.907715,-53.558350,-105.560303,30.906250
42440,-6.689400,0.301669,-1.546654,151.855469,-111.724854,-88.562012,30.902344
42480,-4.414908,1.953669,-1.671153,56.091309,-59.844971,-91.491699,30.916016
42520,-2.413355,2.264915,0.000000,49.407959,5.767822,-40.496826,30.953125
42560,-2.279280,2.561796,1.268927,59.295654,74.432373,13.732910,30.955078
42600,-4.601655,2.298434,3.591303,109.008789,108.551025,61.218262,30.957031
42640,-17.065870,-2.920926,12.713211,12.634277,-25.329590,14.617920,30.962891
42680,-16.112978,-4.673482,9.902418,33.325195,-9.429932,-30.029297,30.964844
42720,-9.150639,1.216254,1.963245,-78.796387,103.057861,6.744385,30.988281
42760,-10.012551,5.736507,-3.265691,-197.387695,-57.556152,76.599121,30.968750
42800,-7.527370,8.714894,0.718261,-116.424561,201.080322,53.802490,30.976562
42840,-7.934384,8.753201,-1.680730,145.538330,111.968994,107.574463,30.978516
42880,-9.490616,4.898537,-2.509123,-42.114258,-13.641357,99.212646,30.988281
42920,-12.923901,-0.033519,-2.466028,136.352539,111.389160,13.336182,30.972656
42960,-10.189722,-2.240973,0.478840,-87.097168,84.808350,4.394531,30.982422
43000,-7.948750,0.225055,1.695095,16.723633,22.430420,-5.706787,30.968750
43040,-7.498640,-0.047884,1.115698,123.962402,29.632568,-1.159668,30.982422
43080,-8.111555,1.048660,0.119710,65.704346,63.659668,7.080078,30.976562
43120,-8.547300,1.249773,-0.344765,-41.503906,65.704346,15.960693,30.996094
43160,-10.764331,-0.205901,-1.278504,-133.453369,67.230225,-3.326416,30.996094
43200,-13.139379,0.392649,-0.521936,38.665771,50.567627,-26.092529,30.992188
43240,-14.202404,1.115698,3.907337,-9.368896,-56.579590,-24.658203,31.007812
43280,-13.527240,1.762132,4.400543,-117.828369,-138.183594,-37.475586,30.984375
43320,-12.593501,1.766921,1.259350,-81.634521,-180.114746,-45.532227,30.978516
43360,-14.853627,5.243302,-2.279280,-70.587158,-197.967529,-25.573730,30.984375
43400,-15.490485,8.461109,1.350330,-312.652588,-48.431396,-31.036377,30.998047
43440,-12.248735,2.681506,0.914585,-142.486572,-58.502197,-81.054688,31.023438
43480,-8.384495,-0.641646,-0.914585,35.766602,-96.038818,-100.433350,30.968750
43520,-6.564901,1.072602,-2.360683,166.656494,-82.336426,-92.834473,30.992188
43560,-2.767697,1.805228,-2.111686,99.639893,-104.125977,-87.585449,31.001953
43600,-0.268151,2.106898,-0.153229,60.638428,27.862549,-19.927979,30.996094
43640,-0.339977,2.762909,1.790863,110.046387,95.367432,45.654297,30.996094
43680,-10.907983,-1.134852,8.360553,22.918701,78.033447,-10.559082,30.994141
43720,-19.440918,-7.120356,13.259089,48.095703,-44.586182,-32.409668,31.017578
43760,-9.548077,-1.728614,5.951985,-6.439209,56.091309,0.610352,31.000000
43800,-7.939173,5.142745,-2.585738,-109.588623,131.652832,88.958740,30.992188
43840,-10.754754,7.436390,-0.248997,-247.253418,176.818848,28.564453,31.017578
43880,-8.073248,6.952762,-0.426168,25.421143,192.962646,122.894287,31.023438
43920,-9.188946,5.817910,-2.317587,46.081543,38.513184,118.377686,31.027344
43960,-11.501745,2.715025,-2.978387,112.060547,-65.979004,64.544678,31.017578
44000,-11.990162,-2.049437,-0.866701,117.156982,99.914551,29.998779,31.015625
44040,-8.312668,-0.699107,1.766921,13.031006,2.471924,10.040283,31.009766
44080,-7.244854,1.005565,1.762132,156.097412,-14.190674,-12.329102,31.021484
44120,-7.383718,1.379060,0.555455,63.354492,54.992676,2.807617,31.011719
44160,-8.034941,1.996764,-0.272939,-110.717773,100.830078,0.640869,31.017578
44200,-9.414001,0.823605,-1.187524,-122.741699,81.512451,7.354736,31.025391
44240,-12.373235,-0.335188,-2.662352,-29.846191,70.648193,-9.307861,31.011719
44280,-13.929465,0.411803,2.231396,97.290039,9.552002,-18.218994,31.017578
44320,-14.140155,1.757344,3.610456,-96.771240,-63.995361,-27.496338,31.037109
44360,-12.856863,1.881842,2.456451,-85.723877,-147.125244,-37.506104,31.031250
44400,-12.382812,1.575385,0.205901,-40.008545,-199.157715,-37.414551,31.041016
44440,-13.450625,6.421249,-1.374272,-159.057617,-140.930176,-5.706787,31.027344
44480,-12.890382,6.402095,1.015141,-208.831787,-53.894043,-10.955811,31.095703
44520,-10.328587,0.708684,-0.071826,-150.756836,5.523682,-87.707520,31.099609
44560,-8.494628,-0.718261,-1.254562,104.949951,-84.320068,-105.072021,31.091797
44600,-6.507440,0.459687,-2.379837,124.572754,-80.841064,-83.099365,31.095703
44640,-2.408567,2.633622,-1.881842,93.872070,-36.468506,-69.061279,31.089844
44680,-1.058237,2.853889,0.287304,76.019287,48.522949,-4.272461,31.099609
44720,-3.576937,2.801216,2.772485,128.082275,94.177246,59.143066,31.103516
44760,-18.239029,-3.380613,11.324574,46.173096,-43.762207,-27.832031,31.115234
44800,-15.547946,-5.865794,9.591172,-3.845215,-33.599854,-34.667969,31.103516
44840,-8.719683,1.465251,0.627281,-58.837891,129.150391,48.797607,31.107422
44880,-11.329363,6.488286,-1.359907,-198.944092,-57.006836,65.948486,31.123047
44920,-6.833052,8.389283,-0.090980,-64.575195,237.823486,60.028076,31.101562
44960,-8.748413,8.451532,-3.007117,101.867676,99.456787,120.697021,31.132812
45000,-9.907207,4.687847,-2.762909,-0.793457,-113.677979,101.867676,31.093750
45040,-12.454638,-0.919373,0.354342,146.362305,93.536377,31.127930,31.103516
45080,-9.715671,-2.710236,1.216254,84.594727,40.466309,9.582520,31.109375
45120,-7.527370,0.038307,1.110910,154.266357,-24.108887,-14.587402,31.119141
45160,-7.082048,1.077391,0.670376,70.159912,67.993164,-10.284424,31.101562
45200,-7.656657,2.063802,0.124498,-105.072021,118.469238,-9.918213,31.105469
45240,-8.767567,2.130840,-0.593762,-119.873047,97.015381,17.669678,31.109375
45280,-11.784261,0.713472,-1.422156,59.295654,13.488770,20.416260,31.132812
45320,-14.001291,-1.106121,1.474828,20.050049,47.180176,-24.841309,31.105469
45360,-15.040375,0.272939,2.724602,-29.113770,-68.603516,-38.879395,31.134766
45400,-13.699622,1.977611,2.801216,-80.963135,-154.174805,-42.266846,31.107422
45440,-12.627020,2.992752,0.866701,-55.664062,-188.293457,-44.738770,31.134766
45480,-12.952631,7.551312,-1.508347,-187.255859,-137.298584,1.770020,31.134766
45520,-12.856863,6.564901,1.015141,-209.869385,-67.352295,-17.303467,31.134766
45560,-11.123461,-0.148441,-0.339977,-106.933594,-53.253174,-83.251953,31.119141
45600,-8.030152,-0.545878,-1.297657,101.623535,-85.662842,-98.510742,31.121094
45640,-5.722142,1.067814,-2.284068,128.631592,-86.364746,-83.892822,31.125000
45680,-2.896984,2.753332,-1.446098,73.577881,-36.102295,-80.200195,31.134766
45720,-1.565808,2.786851,0.426168,63.446045,55.419922,-15.838623,31.140625
45760,-3.184288,2.379837,2.801216,122.039795,94.757080,49.926758,31.136719
45800,-16.419436,-3.768473,11.051635,59.204102,-28.106689,3.173828,31.142578
45840,-16.007633,-4.989516,10.275913,-4.272461,-20.416260,-32.623291,31.140625
45880,-9.830592,2.322376,2.375048,-40.588379,91.918945,28.411865,31.128906
45920,-10.587160,5.157111,-2.025495,-172.576904,-76.354980,53.527832,31.144531
45960,-6.751649,7.019799,1.106121,-70.068359,239.074707,60.516357,31.121094
46000,-9.107543,8.801085,-2.274492,119.781494,105.712891,114.257812,31.140625
46040,-9.160215,5.123591,-2.738967,-50.994873,-34.729004,106.170654,31.142578
46080,-12.799402,-0.311246,-0.665588,119.476318,76.843262,34.454346,31.142578
46120,-10.242394,-2.734178,1.493982,56.335449,38.879395,18.920898,31.142578
46160,-7.632715,-0.474052,1.977611,164.825439,-31.951904,-7.904053,31.136719
46200,-7.230489,0.670376,0.986411,109.649658,33.233643,-6.164551,31.150391
46240,-7.838616,2.255338,0.282516,-39.581299,108.612061,-5.187988,31.158203
46280,-8.173804,2.078167,-0.292093,-86.303711,79.833984,15.472412,31.140625
46320,-10.922348,0.205901,-1.268927,-92.224121,22.705078,5.218506,31.164062
46360,-12.923901,-1.187524,-2.049437,89.996338,138.549805,-32.104492,31.140625
46400,-15.298949,0.919373,3.256114,-21.606445,-42.541504,-33.233643,31.164062
46440,-14.518439,2.173935,3.380613,-91.979980,-128.448486,-45.501709,31.136719
46480,-12.775460,2.193089,2.331953,-44.036865,-219.360352,-42.999268,31.234375
46520,-12.703634,7.513005,-0.804452,-124.633789,-150.817871,6.072998,31.224609
46560,-12.713211,7.168240,-0.349553,-193.389893,-78.338623,2.319336,31.232422
46600,-12.162544,-0.167594,0.919373,-220.397949,-25.024414,-71.868896,31.230469
46640,-8.796297,-1.106121,-0.976834,74.890137,-72.814941,-93.353271,31.214844
46680,-6.339846,0.694318,-1.742979,145.385742,-91.827393,-76.446533,31.244141
46720,-3.524265,2.595315,-1.881842,74.523926,-46.813965,-87.799072,31.224609
46760,-2.063802,2.858677,-0.177171,54.656982,48.919678,-36.499023,31.234375
46800,-2.427721,2.743755,1.613692,67.962646,85.021973,26.336670,31.232422
46840,-9.279925,0.268151,6.679823,86.059570,37.109375,13.702393,31.263672
46880,-19.527109,-6.196194,12.339716,21.057129,-58.807373,-36.163330,31.226562
46920,-9.945514,-2.039860,7.091625,38.055420,46.295166,-9.735107,31.259766
46960,-7.259220,3.663129,-2.341529,-67.474365,101.104736,94.116211,31.244141
47000,-12.603078,6.900089,-0.201113,-265.472412,93.292236,48.919678,31.226562
47040,-7.565677,7.187394,-0.641646,21.362305,193.786621,65.216064,31.246094
47080,-8.743625,7.541735,-2.073379,92.681885,46.813965,111.053467,31.248047
47120,-10.362105,3.739743,-2.437297,33.172607,-99.700928,81.329346,31.228516
47160,-12.354081,-1.431733,-1.024718,170.898438,91.064453,14.251709,31.240234
47200,-8.992621,-0.881066,0.986411,-34.362793,24.536133,10.131836,31.236328
47240,-7.699753,0.612916,2.197877,89.416504,2.014160,-8.819580,31.250000
47280,-7.651869,0.837971,1.019930,98.815918,44.860840,-0.488281,31.232422
47320,-8.097190,1.776498,0.090980,-30.426025,93.017578,4.302979,31.251953
47360,-8.566454,1.302446,-0.325611,-21.942139,57.830811,28.411865,31.248047
47400,-10.759542,-0.742203,-0.933739,-27.252197,20.538330,4.974365,31.269531
47440,-12.339716,-1.695095,-2.068590,-19.775391,133.270264,-40.527344,31.232422
47480,-14.427460,2.082955,2.954445,-9.979248,-27.648926,-27.770996,31.244141
47520,-14.719552,2.379837,2.849100,-72.998047,-116.088867,-35.705566,31.259766
47560,-13.249513,0.627281,2.130840,-47.912598,-196.838379,-48.522949,31.261719
47600,-13.096283,5.961562,-0.603339,-93.322754,-174.102783,-4.791260,31.250000
47640,-12.703634,8.757990,-0.459687,-207.214355,-84.014893,6.347656,31.263672
47680,-11.688493,2.442086,0.435745,-192.535400,-61.096191,-48.767090,31.253906
47720,-9.519346,-1.144428,-1.130063,79.254150,-68.939209,-107.391357,31.253906
47760,-7.479486,0.019154,-1.699883,138.336182,-112.060547,-95.336914,31.255859
47800,-4.084508,2.116474,-2.015918,52.307129,-45.654297,-79.254150,31.259766
47840,-1.642422,3.112462,-0.435745,49.743652,32.501221,-41.351318,31.261719
47880,-1.651999,3.040636,1.273715,57.312012,83.770752,20.782471,31.251953
47920,-7.422025,1.139640,5.463568,89.019775,63.385010,19.531250,31.275391
47960,-20.695480,-6.670246,12.516887,16.632080,-42.816162,-39.398193,31.263672
48000,-10.644621,-3.691859,6.928820,11.138916,33.172607,-6.988525,31.273438
48040,-6.047753,2.671929,-2.772485,-45.166016,117.858887,137.420654,31.277344
48080,-13.551182,9.303867,-0.651223,-268.096924,47.637939,49.102783,31.285156
48120,-7.991845,7.843405,-0.105345,38.787842,180.633545,70.709229,31.279297
48160,-8.805874,6.727707,-2.169147,180.480957,-24.108887,104.522705,31.273438
48200,-10.984597,3.102885,-2.068590,85.174561,-77.423096,39.245605,31.279297
48240,-11.200075,-1.599327,-0.052672,47.821045,127.502441,5.523682,31.271484
48280,-8.192958,-0.622492,0.785298,32.287598,24.841309,-1.281738,31.279297
48320,-7.493851,0.641646,1.158794,108.978271,11.718750,-16.723633,31.277344
48360,-7.455544,1.465251,0.497994,66.894531,65.368652,-3.936768,31.300781
48400,-7.680599,2.370260,-0.114922,-108.764648,100.738525,4.180908,31.308594
48440,-8.973468,1.695095,-0.981623,-137.359619,69.366455,17.456055,31.335938
48480,-11.961432,-0.584185,-2.020706,36.346436,44.738770,-2.716064,31.332031
48520,-13.843274,-0.986411,1.886631,48.767090,24.566650,-30.364990,31.326172
48560,-14.867992,1.139640,3.236961,-75.347900,-80.413818,-42.114258,31.357422
48600,-14.058752,1.776498,3.342306,-92.193604,-177.917480,-51.971436,31.335938
48640,-13.287820,3.620033,0.244209,-15.258789,-213.684082,-30.334473,31.355469
48680,-13.967772,8.523358,-0.957681,-224.609375,-125.579834,17.333984,31.349609
48720,-13.350069,5.023035,1.077391,-214.080811,-55.480957,-26.763916,31.353516
48760,-10.486604,-0.057461,-0.392649,-18.707275,-40.954590,-87.921143,31.333984
48800,-7.235278,-0.301669,-1.680730,101.318359,-96.679688,-100.769043,31.351562
48840,-5.114015,1.192312,-2.193089,100.708008,-71.563721,-92.468262,31.357422
48880,-1.584962,2.193089,-1.058237,64.422607,-3.540039,-57.434082,31.363281
48920,-0.780510,2.298434,0.732626,55.572510,63.385010,3.021240,31.375000
48960,-3.883395,1.915361,3.725378,117.401123,104.827881,64.849854,31.367188
49000,-19.733011,-4.965574,12.464214,34.362793,-51.300049,-16.845703,31.361328
49040,-14.178462,-4.323928,9.117120,48.736572,-7.995605,-18.096924,31.357422
49080,-5.698200,1.695095,0.612916,-100.646973,112.091064,61.584473,31.351562
49120,-11.645397,8.513782,-3.342306,-152.221680,-18.646240,74.951172,31.355469
49160,-9.835381,8.183381,-0.392649,-92.071533,213.897705,36.041260,31.361328
49200,-8.590396,6.497863,-2.260126,184.417725,57.495117,108.398438,31.349609
49240,-10.553641,4.098873,-2.571373,54.077148,-62.255859,85.327148,31.347656
49280,-11.975797,-0.287304,-1.034295,56.182861,115.081787,18.035889,31.365234
49320,-8.518570,-0.651223,0.751779,27.282715,30.822754,9.826660,31.373047
49360,-7.249643,0.459687,1.350330,117.370605,-2.319336,-15.014648,31.376953
49400,-7.072472,1.345541,0.612916,72.052002,61.950684,-4.302979,31.355469
49440,-7.666234,2.126051,-0.038307,-53.131104,99.792480,4.516602,31.378906
49480,-8.987833,1.216254,-0.660800,-84.625244,73.608398,19.653320,31.376953
49520,-11.875240,-1.134852,-1.407791,-19.805908,48.614502,-2.258301,31.384766
49560,-13.560759,-0.957681,1.019930,33.355713,34.942627,-36.987305,31.367188
49600,-14.815320,1.843535,2.992752,-71.258545,-51.300049,-40.313721,31.380859
49640,-14.082694,1.656788,3.064578,-69.274902,-158.508301,-48.065186,31.367188
49680,-13.211205,2.116474,0.742203,-42.205811,-194.793701,-47.149658,31.373047
49720,-13.474567,7.153875,-1.685518,-182.189941,-129.882812,8.270264,31.386719
49760,-13.072341,5.875371,0.507571,-169.494629,-71.136475,-15.167236,31.400391
49800,-11.252748,-0.248997,-0.416591,-54.962158,-70.983887,-72.418213,31.376953
49840,-8.121132,-0.550666,-1.431733,77.087402,-74.279785,-98.968506,31.375000
49880,-5.880159,1.201889,-2.221819,137.695312,-82.733154,-85.632324,31.392578
49920,-2.226608,2.729390,-1.939303,74.401855,-22.674561,-73.059082,31.376953
49960,-1.034295,3.021482,0.019154,62.561035,47.546387,-17.395020,31.371094
50000,-3.112462,2.734178,2.240973,112.915039,105.895996,59.570312,31.384766
50040,-17.085024,-3.078943,10.793061,42.083740,-34.179688,-15.075684,31.378906
50080,-16.955736,-6.119579,9.773131,41.198730,-37.841797,-40.832520,31.390625
50120,-7.867347,-0.545878,2.762909,-81.634521,132.568359,22.247314,31.386719
50160,-10.342952,6.248867,-3.399766,-97.503662,-46.844482,101.104736,31.376953
50200,-9.059659,8.801085,0.612916,-111.053467,182.464600,34.606934,31.378906
50240,-8.145074,8.236053,-1.843535,175.628662,92.193604,98.876953,31.394531
50280,-9.265560,5.784391,-2.456451,10.833740,-4.333496,95.184326,31.380859
50320,-12.239159,0.713472,-1.288081,142.456055,79.498291,25.695801,31.396484
50360,-10.275913,-2.025495,0.675165,-12.603760,73.181152,13.977051,31.394531
50400,-7.762002,0.062249,1.968034,93.902588,-3.662109,-11.535645,31.388672
50440,-6.842628,0.459687,1.053449,122.924805,34.942627,-9.063721,31.439453
50480,-7.565677,2.183512,0.057461,-41.290283,101.593018,-4.089355,31.451172
50520,-8.757990,2.068590,-0.550666,-80.139160,85.266113,16.143799,31.462891
50560,-11.358093,0.038307,-1.350330,-34.973145,29.388428,11.718750,31.449219
50600,-13.254301,-1.714248,-0.320823,70.831299,79.925537,-28.137207,31.466797
50640,-14.432248,1.077391,3.189077,-22.918701,-41.015625,-35.217285,31.457031
50680,-14.235924,2.398990,3.318364,-95.123291,-132.171631,-39.184570,31.468750
50720,-12.990938,1.618480,1.508347,-58.105469,-190.307617,-50.720215,31.451172
50760,-13.273455,5.817910,-1.886631,-93.994141,-176.910400,9.613037,31.468750
50800,-13.321339,7.848193,0.483629,-216.644287,-78.186035,-9.521484,31.468750
50840,-12.191275,0.909797,0.617704,-185.302734,-36.865234,-68.939209,31.470703
50880,-8.820239,-0.258574,-1.436521,53.100586,-73.150635,-97.808838,31.447266
50920,-6.090849,1.221043,-2.140416,141.998291,-87.860107,-81.054688,31.460938
50960,-3.174711,2.288857,-1.843535,72.204590,-52.246094,-87.432861,31.468750
51000,-0.914585,2.437297,-0.225055,60.577393,44.616699,-20.996094,31.490234
51040,-2.044648,2.700660,1.671153,93.627930,85.021973,50.445557,31.492188
51080,-13.019669,-1.005565,8.197746,54.595947,12.298584,4.058838,31.470703
51120,-19.167978,-6.789956,11.195287,12.390137,-47.393799,-44.616699,31.480469
51160,-7.943961,-1.350330,4.979939,-60.699463,117.584229,13.061523,31.472656
51200,-9.064447,5.808333,-3.830723,-37.750244,55.603027,131.622314,31.484375
51240,-11.080365,8.834604,-0.081403,-183.776855,132.995605,25.115967,31.472656
51280,-7.436390,7.340622,-1.197101,121.368408,120.300293,89.782715,31.478516
51320,-9.797073,5.664681,-2.738967,110.961914,-43.243408,109.069824,31.488281
51360,-12.018892,1.110910,-2.221819,113.922119,52.520752,32.958984,31.472656
51400,-9.926360,-1.015141,0.818817,-46.020508,78.002930,18.188477,31.476562
51440,-7.948750,0.023942,2.504335,100.921631,4.333496,-6.744385,31.476562
51480,-7.340622,0.474052,1.355118,103.210449,17.333984,-10.894775,31.476562
51520,-7.819463,1.675941,0.229843,19.927979,91.888428,1.220703,31.501953
51560,-8.192958,1.762132,-0.225055,-26.824951,79.315186,19.683838,31.486328
51600,-10.050858,0.708684,-0.842759,-62.316895,33.905029,19.744873,31.462891
51640,-12.526464,-1.843535,-2.451663,-61.126709,101.165771,-28.137207,31.476562
51680,-14.633361,1.010353,1.853112,72.662354,12.634277,-28.900146,31.492188
51720,-15.251065,1.905785,3.035848,-72.174072,-91.857910,-34.027100,31.505859
51760,-13.397953,0.387861,2.619257,-44.830322,-185.913086,-48.797607,31.470703
51800,-12.583924,4.481946,-0.282516,-66.467285,-197.052002,-21.667480,31.498047
51840,-11.851298,8.441956,-0.828394,-205.383301,-89.447021,6.530762,31.480469
51880,-12.071565,3.720589,0.646434,-181.243896,-39.001465,-39.794922,31.496094
51920,-10.711658,-0.952892,-0.737414,2.044678,-64.483643,-96.984863,31.488281
51960,-7.891289,-0.100556,-1.651999,116.333008,-110.809326,-102.325439,31.505859
52000,-5.300763,1.594538,-1.833959,85.083008,-54.351807,-75.897217,31.505859
52040,-2.346318,2.662352,-0.991199,69.183350,-5.096436,-39.733887,31.482422
52080,-1.450886,3.040636,0.675165,63.018799,56.457520,4.119873,31.490234
52120,-4.793192,1.685518,4.074931,122.344971,91.430664,42.755127,31.509766
52160,-19.694704,-5.918467,12.138602,35.797119,-37.597656,-32.867432,31.492188
52200,-13.034034,-3.672705,7.862558,43.762207,-9.185791,-8.605957,31.505859
52240,-7.752425,3.232172,0.191536,-107.238770,118.804932,71.136475,31.505859
52280,-10.596737,7.474698,-0.823605,-192.230225,41.839600,68.084717,31.498047
52320,-8.250419,7.943961,-0.641646,-9.002686,167.755127,57.891846,31.505859
52360,-9.399636,6.770802,-2.566584,149.078369,33.264160,121.093750,31.488281
52400,-10.615891,3.150769,-3.246537,71.380615,-55.694580,61.553955,31.564453
52440,-11.310209,-0.799663,-0.670376,-13.366699,104.400635,19.287109,31.595703
52480,-9.030929,-1.211466,2.504335,80.596924,15.228271,11.169434,31.576172
52520,-7.441179,0.277727,1.819593,175.048828,-24.566650,-16.845703,31.593750
52560,-7.244854,1.072602,0.545878,112.609863,68.237305,-3.417969,31.576172
52600,-7.642292,2.676718,-0.215478,-103.668213,120.819092,-3.784180,31.578125
52640,-8.801085,1.699883,-0.876278,-89.294434,73.028564,20.385742,31.580078
52680,-12.004527,-0.383072,-1.776498,14.678955,44.677734,-3.082275,31.587891
52720,-14.049175,-0.359130,1.264138,57.891846,29.876709,-26.428223,31.574219
52760,-15.576676,0.914585,2.896984,-52.673340,-75.714111,-41.534424,31.578125
52800,-13.800179,0.770933,2.580950,-44.555664,-153.289795,-49.407959,31.574219
52840,-12.828133,4.438850,0.943315,-39.611816,-201.934814,-35.278320,31.578125
52880,-12.382812,9.040505,-0.905008,-236.755371,-115.692139,17.486572,31.582031
52920,-11.669339,5.851429,-0.062249,-149.963379,-82.672119,-7.446289,31.580078
52960,-11.664551,-1.517924,-0.110133,-146.118164,-50.048828,-90.270996,31.597656
53000,-8.327033,0.004788,-1.082179,91.766357,-62.255859,-111.511230,31.607422
53040,-5.774815,1.254562,-1.695095,99.884033,-62.164307,-84.259033,31.609375
53080,-2.652776,2.370260,-1.364695,68.084717,-14.251709,-55.938721,31.613281
53120,-1.661576,2.925714,0.234632,65.307617,53.375244,-11.871338,31.591797
53160,-3.433285,2.782062,2.331953,128.997803,74.401855,54.809570,31.591797
53200,-16.227900,-3.442862,11.070788,54.168701,-24.383545,-11.444092,31.580078
53240,-16.419436,-6.229713,10.160992,22.033691,-40.588379,-29.815674,31.576172
53280,-8.169016,0.967257,2.959233,-78.582764,127.532959,22.064209,31.595703
53320,-10.520123,6.588843,-2.686294,-164.916992,-51.635742,94.238281,31.597656
53360,-8.346188,8.317456,-0.550666,-128.784180,196.136475,56.976318,31.615234
53400,-8.394072,7.709330,-2.188300,146.301270,88.439941,111.968994,31.617188
53440,-9.959879,4.726154,-3.251326,9.033203,-32.562256,96.405029,31.615234
53480,-12.330139,-0.114922,-1.211466,99.517822,54.687500,32.135010,31.617188
53520,-9.969456,-1.508347,1.163582,9.124756,59.173584,19.927979,31.619141
53560,-7.742848,0.569820,2.188300,131.164551,-4.882812,-2.014160,31.597656
53600,-7.364564,0.646434,1.326388,123.596191,12.512207,-7.476807,31.611328
53640,-7.584831,1.651999,0.397437,-10.528564,93.475342,0.671387,31.595703
53680,-7.948750,1.742979,-0.330400,-109.008789,80.139160,16.174316,31.599609
53720,-10.228029,0.445322,-1.374272,-88.653564,42.449951,13.366699,31.613281
53760,-12.627020,-1.005565,-2.772485,59.631348,134.063721,-19.012451,31.583984
53800,-15.112201,1.144428,3.289633,21.087646,-18.646240,-22.918701,31.611328
53840,-15.006856,1.067814,3.260903,-65.124512,-111.968994,-39.093018,31.619141
53880,-13.148955,0.962469,2.801216,-42.327881,-200.531006,-52.551270,31.628906
53920,-12.818556,6.449979,-0.727837,-99.395752,-172.790527,-8.850098,31.593750
53960,-12.076353,9.011775,-0.440533,-245.300293,-81.451416,11.901855,31.599609
54000,-11.985373,2.126051,0.641646,-227.478027,-38.604736,-49.865723,31.597656
54040,-9.792285,-1.374272,-1.149217,18.341064,-48.614502,-97.351074,31.613281
54080,-6.991069,-0.277727,-1.838747,107.818604,-84.564209,-89.782715,31.599609
54120,-4.458004,1.565808,-1.991976,70.678711,-35.430908,-86.120605,31.628906
54160,-1.776498,2.351106,-0.876278,84.350586,22.888184,-38.482666,31.619141
54200,-1.891419,2.839523,0.847547,97.717285,66.680908,23.895264,31.617188
54240,-8.480263,1.120486,5.133168,125.701904,50.048828,40.893555,31.619141
54280,-21.317972,-6.861782,12.698846,1.922607,-61.340332,-58.044434,31.607422
54320,-10.122684,-2.202666,6.852205,-12.298584,43.884277,1.525879,31.611328
54360,-8.049306,5.554548,-3.337517,-26.550293,96.954346,120.147705,31.619141
54400,-10.730812,8.264784,-0.818817,-222.717285,83.374023,53.222656,31.695312
54440,-7.388506,8.169016,-1.168370,67.810059,174.621582,75.531006,31.699219
54480,-9.418790,6.670246,-2.011129,13.244629,27.496338,102.203369,31.685547
54520,-12.301409,1.273715,-2.279280,143.432617,-60.241699,47.637939,31.679688
54560,-11.214440,-2.379837,0.502782,9.033203,89.508057,13.580322,31.689453
54600,-7.924808,-0.497994,1.752556,113.372803,-11.383057,4.150391,31.695312
54640,-6.799533,0.426168,1.532289,167.327881,-21.820068,-10.253906,31.683594
54680,-6.928820,1.493982,0.684742,5.401611,101.074219,-4.516602,31.689453
54720,-7.848193,1.886631,-0.148441,-132.446289,92.742920,11.291504,31.697266
54760,-10.754754,0.981623,-1.345541,-106.994629,74.951172,11.108398,31.695312
54800,-13.374011,-0.292093,-1.259350,176.300049,117.279053,-12.329102,31.685547
54840,-15.275007,-0.311246,4.237737,14.373779,-51.208496,-25.329590,31.701172
54880,-14.958972,1.556231,3.955221,-94.787598,-128.417969,-42.388916,31.695312
54920,-13.474567,2.724602,1.604115,-66.955566,-189.544678,-41.381836,31.710938
54960,-12.813767,6.311116,-2.370260,-89.569092,-187.164307,3.814697,31.705078
55000,-11.947066,7.766790,0.009577,-215.606689,-64.941406,1.861572,31.738281
55040,-11.133038,1.493982,1.431733,-251.373291,5.065918,-70.190430,31.708984
55080,-8.508993,0.052672,-1.168370,42.419434,-62.713623,-90.270996,31.705078
55120,-6.023811,0.656011,-2.068590,110.046387,-62.896729,-83.923340,31.714844
55160,-3.739743,2.102109,-1.685518,58.319092,-10.223389,-65.063477,31.720703
55200,-1.862689,2.834735,0.186748,70.343018,50.231934,-25.451660,31.710938
55240,-2.011129,2.829947,1.795651,129.333496,71.258545,53.283691,31.707031
55280,-12.679692,-1.675941,8.173804,57.586670,10.009766,-27.526855,31.714844
55320,-19.728222,-8.010999,11.295844,3.448486,-55.480957,-38.360596,31.699219
55360,-11.793838,0.071826,5.228937,35.675049,51.635742,-7.354736,31.728516
55400,-9.251195,4.529830,-3.260903,-90.423584,32.653809,63.812256,31.703125
55440,-6.411672,7.129933,1.628057,-92.407227,79.223633,78.948975,31.728516
55480,-7.762002,10.017340,-0.421380,23.651123,168.365479,90.606689,31.730469
55520,-9.390059,6.229713,-2.844312,34.698486,-1.983643,116.546631,31.720703
55560,-12.306197,1.091756,-1.508347,131.378174,9.399414,39.276123,31.730469
55600,-11.291056,-3.155558,1.551443,-41.595459,107.543945,22.430420,31.716797
55640,-8.087613,-1.541866,3.107674,196.197510,-25.085449,-0.885010,31.712891
55680,-6.885724,0.244209,1.187524,166.595459,2.014160,-11.596680,31.718750
55720,-7.441179,1.896208,0.306458,-25.543213,115.783691,-0.518799,31.720703
55760,-7.967903,2.068590,-0.330400,-133.148193,82.916260,10.498047,31.728516
55800,-10.922348,0.488417,-1.584962,-147.064209,68.054199,3.021240,31.744141
55840,-13.187263,0.502782,-1.101333,229.858398,144.470215,-13.183594,31.738281
55880,-15.361198,0.794875,4.189853,-3.204346,-51.483154,-21.331787,31.740234
55920,-14.652514,1.460463,3.960010,-102.600098,-119.506836,-40.771484,31.724609
55960,-12.876017,1.752556,2.159570,-57.495117,-200.805664,-42.022705,31.740234
56000,-12.488156,6.449979,-1.996764,-78.826904,-185.302734,3.845215,31.748047
56040,-12.933477,7.608773,0.445322,-230.773926,-82.702637,-3.784180,31.773438
56080,-11.903971,1.024718,1.244985,-275.177002,-19.256592,-67.962646,31.759766
56120,-8.537724,-0.665588,-1.163582,33.325195,-40.924072,-90.789795,31.751953
56160,-5.865794,0.545878,-2.073379,156.585693,-80.841064,-79.071045,31.742188
56200,-3.711013,1.719037,-1.752556,81.176758,-41.931152,-85.815430,31.777344
56240,-1.939303,2.240973,-0.244209,83.343506,31.402588,-29.663086,31.753906
56280,-2.154782,2.547431,1.742979,126.861572,75.042725,34.057617,31.738281
56320,-11.171345,-0.948104,7.809886,65.277100,16.601562,23.468018,31.757812
56360,-19.215862,-5.928043,12.253524,9.246826,-37.780762,-39.489746,31.796875
56400,-9.806650,-0.584185,5.875371,24.780273,63.079834,-4.486084,31.800781
56440,-9.461885,5.109226,-3.902549,-83.160400,54.229736,96.832275,31.777344
56480,-9.744401,7.848193,0.507571,-193.542480,126.556396,50.720215,31.806641
56520,-7.762002,8.992621,-0.656011,45.593262,150.238037,84.411621,31.792969
56560,-8.757990,6.698977,-2.413355,88.684082,7.568359,125.274658,31.800781
56600,-11.563994,1.450886,-2.638410,113.952637,-4.516602,47.760010,31.810547
56640,-11.458650,-3.117251,-0.210690,-36.956787,96.710205,9.674072,31.808594
56680,-8.580819,-1.120486,3.509900,130.737305,-30.914307,0.000000,31.816406
56720,-7.177817,0.804452,2.576161,177.154541,-32.867432,-14.282227,31.822266
56760,-6.962338,2.106898,0.148441,-39.855957,96.252441,1.800537,31.808594
56800,-8.001422,1.766921,-0.507571,-75.927734,88.928223,13.397217,31.808594
56840,-10.419566,0.124498,-1.637634,-133.514404,95.367432,4.455566,31.835938
56880,-12.995727,-0.023942,-0.703895,179.016113,128.265381,-5.737305,31.802734
56920,-14.417883,0.067038,2.729390,14.434814,-13.824463,-19.287109,31.798828
56960,-14.216769,1.393425,3.347094,-72.479248,-98.693848,-37.902832,31.826172
57000,-12.732365,1.168370,2.298434,-42.755127,-172.882080,-58.380127,31.822266
57040,-12.933477,4.989516,-1.072602,-36.285400,-197.418213,-25.268555,31.824219
57080,-13.589489,9.246407,0.363919,-212.341309,-98.358154,13.397217,31.816406
57120,-11.803414,5.516241,1.019930,-274.658203,-28.076172,-38.208008,31.828125
57160,-9.667787,-0.732626,-0.938527,-78.826904,-72.113037,-91.827393,31.828125
57200,-6.612785,-0.378284,-2.159570,95.672607,-97.351074,-100.250244,31.824219
57240,-4.558560,1.307234,-1.829170,98.510742,-38.635254,-75.103760,31.822266
57280,-2.317587,2.341529,-0.646434,90.026855,13.916016,-42.999268,31.839844
57320,-1.484405,2.782062,0.900220,78.796387,58.471680,11.627197,31.832031
57360,-6.023811,1.608904,4.515464,160.766602,57.922363,28.259277,31.839844
57400,-21.102493,-6.421249,13.661315,21.240234,-62.561035,-36.651611,31.833984
57440,-12.224793,-2.609680,8.427590,42.205811,17.089844,-12.145996,31.826172
57480,-8.006210,4.692636,-2.743755,-84.350586,103.210449,87.341309,31.820312
57520,-11.070788,8.054094,-1.450886,-259.277344,87.829590,45.104980,31.804688
57560,-7.738060,8.389283,-1.067814,40.191650,174.743652,76.934814,31.833984
57600,-8.781932,7.163452,-2.054225,106.719971,52.246094,126.861572,31.830078
57640,-11.152191,2.930503,-2.758120,69.000244,-73.577881,70.465088,31.847656
57680,-11.650186,-1.924938,-1.053449,43.579102,121.276855,15.014648,31.851562
57720,-8.508993,-0.924162,2.068590,45.196533,4.455566,9.216309,31.843750
57760,-6.866570,0.071826,2.111686,159.484863,-15.045166,-14.923096,31.845703
57800,-7.149086,1.431733,0.670376,36.224365,85.998535,0.732422,31.851562
57840,-8.164227,2.284068,-0.158017,-99.945068,105.133057,7.843018,31.849609
57880,-10.438720,0.756568,-0.919373,-98.815918,65.216064,14.190674,31.857422
57920,-13.283031,-1.728614,-1.321599,22.796631,130.737305,-26.367188,31.855469
57960,-14.465767,0.023942,2.911349,37.017822,-27.740479,-33.508301,31.845703
58000,-14.451402,2.030283,3.485958,-71.350098,-119.537354,-38.543701,31.835938
58040,-12.928689,1.963245,2.643199,-68.237305,-185.394287,-51.025391,31.845703
58080,-13.311762,5.003881,-1.747767,-71.777344,-188.812256,-11.535645,31.841797
58120,-13.651738,8.805874,-0.043096,-217.132568,-92.071533,4.547119,31.851562
58160,-12.488156,3.136404,1.221043,-238.708496,-32.958984,-46.783447,31.824219
58200,-9.653421,-0.679953,-1.039083,18.341064,-58.441162,-87.585449,31.865234
58240,-6.507440,0.531513,-1.886631,93.872070,-73.364258,-91.430664,31.859375
58280,-4.165911,1.991976,-2.106898,61.981201,-26.550293,-90.148926,31.853516
58320,-1.173159,2.509123,-0.933739,81.512451,25.146484,-42.510986,31.826172
58360,-1.053449,2.638410,0.900220,114.196777,44.036865,25.177002,31.894531
58400,-8.619126,0.004788,5.559336,83.587646,38.848877,18.554688,31.908203
58440,-20.503942,-7.206547,12.085930,34.454346,-61.492920,-40.222168,31.898438
58480,-11.702858,-1.819593,7.105990,31.829834,51.696777,-5.096436,31.917969
58520,-10.951078,4.740520,-1.110910,-195.037842,31.188965,57.556152,31.914062
58560,-6.703765,7.350199,0.497994,-93.414307,118.988037,72.753906,31.900391
58600,-7.905654,9.720459,-1.541866,77.758789,194.610596,101.043701,31.898438
58640,-9.706094,6.464345,-3.466804,30.334473,47.485352,112.762451,31.910156
58680,-11.841722,2.006341,-1.273715,28.411865,-78.521729,54.809570,31.906250
58720,-11.587936,-2.528277,1.235408,63.049316,106.536865,30.212402,31.898438
58760,-8.221688,-0.885855,1.249773,136.199951,-1.342773,8.728027,31.906250
58800,-6.962338,0.445322,1.221043,102.935791,-4.180908,-15.014648,31.923828
58840,-7.283162,1.120486,0.809240,41.259766,89.996338,0.396729,31.900391
58880,-7.800309,2.178724,0.138864,-81.878662,100.799561,6.774902,31.894531
58920,-10.122684,1.345541,-0.746991,-109.863281,45.288086,16.204834,31.919922
58960,-12.842498,-1.355118,-1.484405,9.124756,129.241943,-16.265869,31.931641
59000,-14.504074,0.090980,2.681506,82.092285,-21.972656,-18.890381,31.923828
59040,-14.642938,1.594538,3.715801,-88.348389,-100.769043,-38.574219,31.921875
59080,-12.952631,1.479617,2.877831,-82.366943,-173.614502,-52.459717,31.904297
59120,-12.976573,4.352659,-0.972046,-34.790039,-200.866699,-27.557373,31.927734
59160,-13.225570,8.317456,-0.976834,-199.798584,-100.952148,-0.793457,31.917969
59200,-12.392388,3.323152,1.053449,-219.421387,-41.809082,-44.067383,31.931641
59240,-9.935937,-0.416591,-0.363919,1.953125,-53.161621,-96.771240,31.925781
59280,-6.876147,0.225055,-1.331176,106.170654,-79.467773,-91.461182,31.947266
59320,-4.989516,1.584962,-1.905785,65.032959,-37.597656,-76.995850,31.941406
59360,-2.087744,2.604892,-0.837971,77.850342,21.575928,-41.656494,31.937500
59400,-1.403002,2.892196,0.708684,85.479736,43.701172,13.732910,31.921875
59440,-6.129156,1.733402,3.974375,133.300781,52.856445,25.177002,31.937500
59480,-19.704281,-6.368577,12.186486,23.376465,-60.852051,-28.961182,31.945312
59520,-12.655750,-3.586514,8.552089,62.988281,12.908936,-9.368896,31.917969
59560,-8.202535,3.471592,-0.210690,-126.525879,126.312256,60.943604,31.933594
59600,-10.797850,7.388506,-1.019930,-201.507568,46.752930,78.155518,31.929688
59640,-7.359776,7.776367,-0.933739,-12.237549,176.635742,72.357178,31.941406
59680,-9.217676,7.182605,-2.322376,141.387939,46.295166,114.593506,31.943359
59720,-11.066000,3.471592,-2.997540,45.715332,-87.524414,54.748535,31.927734
59760,-11.956643,-1.048660,0.158017,4.150391,112.792969,29.602051,31.953125
59800,-9.011775,-1.316811,2.279280,103.424072,4.913330,18.524170,31.951172
59840,-7.105990,-0.028730,1.709460,180.572510,-46.478271,-23.773193,31.941406
59880,-6.751649,1.067814,0.531513,24.047852,70.648193,-7.904053,31.953125
59920,-7.757214,2.485181,-0.014365,-163.726807,117.675781,3.051758,31.958984
59960,-9.050082,2.030283,-0.579397,-49.865723,73.150635,30.059814,31.951172
60000,-12.033257,-0.234632,-2.035071,33.142090,62.072754,4.455566,31.945312
60040,-14.192827,-0.301669,1.120486,152.343750,32.409668,-14.801025,31.935547
60080,-15.849615,0.143652,3.193865,-43.334961,-73.974609,-45.135498,31.931641
60120,-13.771448,0.751779,3.327940,-35.186768,-174.865723,-51.055908,31.943359
60160,-12.909535,5.334281,1.168370,-65.795898,-189.849854,-30.944824,31.962891
60200,-12.665327,8.336611,-1.651999,-200.408936,-130.340576,3.265381,31.953125
60240,-12.555194,5.075707,0.416591,-213.012695,-61.737061,-27.343750,31.955078
60280,-11.257536,-0.909797,-0.181959,-102.142334,-54.656982,-89.385986,31.921875
60320,-7.129933,-0.162806,-1.671153,84.106445,-81.176758,-94.116211,32.007812
60360,-4.999093,1.307234,-2.006341,92.651367,-62.286377,-77.056885,32.021484
60400,-2.705448,2.322376,-1.058237,82.183838,-7.629395,-61.126709,32.000000
60440,-1.757344,2.628834,0.392649,70.465088,53.436279,-12.664795,32.013672
60480,-3.801992,2.231396,2.705448,144.042969,83.496094,47.943115,32.027344
60520,-17.381905,-4.304775,11.765107,25.024414,-27.435303,-15.045166,32.042969
60560,-15.782578,-5.650316,9.414001,73.547363,-46.264648,-22.460938,32.035156
60600,-7.101202,1.776498,2.049437,-153.808594,145.721436,21.972656,32.015625
60640,-10.323798,8.676587,-0.952892,-90.972900,6.011963,105.255127,32.023438
60680,-8.710106,8.892065,-1.953669,-64.727783,140.625000,49.743652,32.019531
60720,-9.040505,6.483498,-2.901772,124.298096,114.074707,115.020752,32.013672
60760,-10.189722,4.065354,-3.055001,5.004883,9.857178,95.245361,32.015625
60800,-12.349293,-0.004788,-1.680730,80.474854,82.153320,33.599854,32.019531
60840,-9.734824,-1.331176,1.168370,-28.991699,39.428711,30.609131,32.033203
60880,-7.618350,-0.105345,1.977611,184.844971,-23.223877,-9.857178,32.019531
60920,-7.105990,0.598550,0.483629,114.288330,14.404297,-8.789062,32.027344
60960,-7.599196,2.193089,0.028730,-81.665039,111.236572,0.946045,32.015625
61000,-8.528147,1.905785,-0.593762,-103.790283,76.263428,16.723633,32.009766
61040,-11.712435,-0.244209,-2.207454,-83.465576,71.624756,-4.272461,32.015625
61080,-13.699622,0.158017,0.009577,204.193115,36.621094,-9.521484,32.001953
61120,-14.762648,1.374272,3.667917,-51.269531,-54.229736,-34.271240,32.019531
61160,-13.766660,1.948880,3.581726,-92.285156,-144.775391,-44.769287,32.029297
61200,-12.282255,1.877054,0.991199,-67.810059,-195.343018,-45.806885,32.019531
61240,-13.244724,5.640739,-2.604892,-114.440918,-155.639648,-3.173828,32.015625
61280,-14.101848,6.986280,0.818817,-245.513916,-50.048828,-29.174805,32.029297
61320,-11.635820,1.110910,1.010353,-186.431885,-51.879883,-75.714111,32.029297
61360,-8.054094,-0.177171,-1.331176,44.525146,-43.182373,-94.177246,32.013672
61400,-5.276821,1.201889,-2.375048,132.781982,-65.856934,-70.861816,32.041016
61440,-2.619257,2.379837,-2.059013,97.076416,-32.012939,-70.098877,32.019531
61480,-1.623269,2.844312,-0.177171,84.838867,42.114258,-16.113281,32.044922
61520,-3.045424,3.303998,2.135628,147.216797,68.603516,55.297852,32.039062
61560,-16.165649,-3.064578,10.108319,31.616211,-11.871338,-33.416748,32.039062
61600,-16.792931,-7.062895,10.060435,27.984619,-32.531738,-24.017334,32.058594
61640,-8.887277,0.177171,2.954445,-91.186523,122.589111,21.423340,32.031250
61680,-10.601525,6.823475,-2.686294,-113.647461,-66.650391,93.658447,32.027344
61720,-7.422025,8.576031,0.579397,-110.687256,205.078125,47.515869,32.044922
61760,-8.556877,8.418014,-1.968034,152.740479,82.550049,117.187500,32.050781
61800,-10.089166,4.941632,-2.729390,7.507324,-35.705566,91.583252,32.052734
61840,-12.823344,-0.598550,-1.005565,132.751465,88.287354,16.815186,32.054688
61880,-10.065224,-2.518700,1.039083,16.571045,50.994873,22.308350,32.074219
61920,-7.364564,0.124498,2.240973,145.202637,-27.954102,-10.803223,32.048828
61960,-6.574478,0.670376,1.086968,105.957031,17.517090,-7.995605,32.054688
62000,-7.378930,2.317587,0.210690,-111.938477,120.208740,-1.647949,32.064453
62040,-8.777143,2.111686,-0.541090,-105.865479,71.990967,19.348145,32.042969
62080,-11.903971,0.047884,-1.762132,-44.128418,61.737061,5.157471,32.039062
62120,-13.680469,-0.004788,0.244209,215.942383,76.293945,-8.056641,32.072266
62160,-15.026010,1.063026,3.672705,-54.321289,-55.603027,-28.564453,32.076172
62200,-13.675680,1.594538,3.069367,-85.083008,-132.202148,-42.968750,32.052734
62240,-12.526464,1.963245,1.244985,-74.157715,-183.319092,-49.652100,32.054688
62280,-12.789825,6.804321,-1.814805,-135.314941,-148.498535,0.823975,32.078125
62320,-12.746730,7.311892,0.316035,-192.138672,-87.921143,-10.345459,32.109375
62360,-11.511322,0.186748,0.014365,-211.853027,-23.101807,-78.704834,32.126953
62400,-8.877700,-0.569820,-1.063026,67.077637,-45.440674,-99.822998,32.119141
62440,-6.325481,0.981623,-1.996764,126.037598,-78.002930,-77.484131,32.117188
62480,-2.959233,2.504335,-1.996764,84.503174,-40.283203,-71.075439,32.117188
62520,-1.426944,2.849100,-0.114922,78.918457,36.560059,-14.007568,32.123047
62560,-2.944868,2.691083,2.126051,120.819092,54.077148,46.844482,32.113281
62600,-14.240712,-2.427721,9.461885,48.187256,0.396729,-9.521484,32.101562
62640,-17.137695,-6.569689,10.156203,23.590088,-36.315918,-26.702881,32.128906
62680,-7.043741,-0.770933,4.084508,-78.552246,112.609863,8.361816,32.123047
62720,-8.054094,6.277597,-4.304775,-15.655518,78.704834,157.104492,32.117188
62760,-12.694057,9.734824,-0.296881,-189.971924,186.279297,10.345459,32.111328
62800,-7.225701,6.722919,-1.604115,51.910400,113.006592,71.777344,32.136719
62840,-9.658210,4.975151,-2.791639,105.438232,-27.496338,115.295410,32.126953
62880,-12.531252,1.110910,-2.624045,140.289307,-2.349854,31.494141,32.140625
62920,-10.280702,-1.288081,0.210690,-22.003174,106.536865,14.373779,32.125000
62960,-7.671022,0.756568,1.824382,49.316406,14.312744,-2.380371,32.125000
63000,-6.976704,0.368707,1.144428,153.381348,12.451172,-11.810303,32.119141
63040,-7.331046,1.561020,0.244209,53.833008,67.962646,-2.105713,32.123047
63080,-7.987057,2.173935,-0.186748,-147.369385,104.278564,9.155273,32.142578
63120,-10.620679,1.091756,-1.039083,-78.277588,41.229248,23.468018,32.140625
63160,-13.254301,-1.417367,-2.126051,26.275635,93.322754,-19.897461,32.128906
63200,-14.599842,0.220267,2.336741,11.108398,0.762939,-40.191650,32.123047
63240,-14.757859,1.900996,3.141193,-80.383301,-109.985352,-36.926270,32.146484
63280,-12.995727,0.876278,2.738967,-67.260742,-192.352295,-50.598145,32.136719
63320,-12.564771,4.376601,-0.790087,-56.152344,-182.647705,-15.625000,32.136719
63360,-12.478580,7.766790,-0.723049,-202.728271,-99.914551,8.605957,32.126953
63400,-12.952631,2.178724,0.785298,-217.803955,-51.361084,-45.562744,32.111328
63440,-10.563218,-1.043872,-0.847547,43.457031,-49.957275,-95.214844,32.128906
63480,-7.307104,0.483629,-1.661576,122.863770,-83.587646,-104.522705,32.142578
