MS,Accel X (m/s²),Accel Y (m/s²),Accel Z (m/s²),Gyro X (°/s),Gyro Y (°/s),Gyro Z (°/s),Temp (°C)
2400,-9.610326,-1.972822,-0.306458,-1.953125,0.366211,-0.305176,32.474609
2440,-9.619903,-1.982399,-0.282516,-0.183105,-0.457764,-0.366211,32.496094
2480,-9.629479,-1.972822,-0.344765,-0.122070,-0.671387,-0.549316,32.494141
2520,-9.615114,-1.996764,-0.397437,0.183105,0.671387,-0.946045,32.501953
2560,-9.615114,-1.963245,-0.387861,-0.762939,0.579834,-0.732422,32.474609
2600,-9.615114,-2.001553,-0.344765,-1.831055,0.366211,-0.762939,32.492188
2640,-9.624691,-2.035071,-0.349553,-1.098633,0.701904,-0.976562,32.511719
2680,-9.615114,-2.001553,-0.368707,-1.342773,0.518799,-0.762939,32.509766
2720,-9.605537,-1.991976,-0.363919,-1.190186,-0.122070,-0.640869,32.507812
2760,-9.615114,-2.025495,-0.416591,-3.570557,-0.152588,-0.976562,32.515625
2800,-9.629479,-2.035071,-0.478840,-2.227783,2.319336,-1.190186,32.509766
2840,-9.615114,-2.006341,-0.426168,-1.983643,1.647949,-1.007080,32.500000
2880,-9.619903,-2.035071,-0.378284,-3.265381,-0.885010,-1.098633,32.513672
2920,-9.615114,-2.102109,-0.493206,-4.333496,1.129150,-2.014160,32.501953
2960,-9.586384,-2.111686,-0.521936,-4.638672,2.838135,-2.410889,32.513672
3000,-9.586384,-2.073379,-0.454898,-5.523682,0.915527,-2.349854,32.490234
3040,-9.581595,-2.092532,-0.488417,-5.889893,-0.152588,-2.624512,32.509766
3080,-9.576807,-2.030283,-0.550666,-2.624512,1.342773,-2.075195,32.515625
3120,-9.562442,-1.982399,-0.560243,-0.793457,1.007080,-1.312256,32.513672
3160,-9.552865,-2.020706,-0.593762,-0.183105,1.831055,-0.946045,32.535156
3200,-9.581595,-2.049437,-0.579397,1.037598,2.868652,-0.518799,32.511719
3240,-9.557653,-2.149993,-0.512359,-1.342773,1.953125,-0.732422,32.509766
3280,-9.524135,-2.226608,-0.497994,-0.366211,0.335693,-0.946045,32.539062
3320,-9.538500,-2.130840,-0.569820,1.525879,-0.610352,-0.549316,32.515625
3360,-9.548077,-2.068590,-0.598550,0.823975,-0.457764,-0.335693,32.529297
3400,-9.615114,-2.135628,-0.593762,-1.007080,-1.190186,-0.122070,32.556641
3440,-9.639056,-2.303222,-0.641646,-2.136230,1.708984,-1.190186,32.542969
3480,-9.567230,-2.475605,-0.627281,-5.401611,2.349854,-1.831055,32.529297
3520,-9.552865,-2.547431,-0.636858,-8.300781,0.305176,-1.281738,32.535156
3560,-9.639056,-2.806004,-0.665588,-24.108887,-5.279541,-2.624512,32.521484
3600,-9.658210,-3.318364,-0.833182,-37.475586,-6.774902,-7.720947,32.542969
3640,-9.634268,-3.821146,-1.010353,-50.109863,-13.122559,-13.732910,32.529297
3680,-9.342175,-4.127604,-1.139640,-46.936035,-25.390625,-20.904541,32.546875
3720,-8.997410,-3.572149,-1.383849,-78.308105,-36.590576,-11.016846,32.562500
3760,-9.074024,-2.738967,-1.288081,-81.359863,-22.674561,-0.823975,32.568359
3800,-9.605537,-1.115698,-0.268151,-14.129639,-14.190674,11.749268,32.552734
3840,-9.284714,-2.504335,-0.469264,-29.998779,50.445557,-6.011963,32.558594
3880,-9.174581,-2.978387,-1.201889,4.028320,46.600342,-13.549805,32.562500
3920,-9.279925,-2.049437,-1.139640,-37.689209,25.299072,-7.385254,32.572266
3960,-9.112331,-2.576161,-1.733402,-32.104492,29.968262,-4.333496,32.570312
4000,-9.097966,-2.288857,-2.509123,-30.303955,34.820557,8.239746,32.572266
4040,-8.825027,-1.594538,-2.719813,-27.984619,24.291992,7.781982,32.566406
4080,-8.312668,-2.015918,-2.849100,-18.615723,21.606445,-0.976562,32.578125
4120,-8.101978,-1.958457,-3.122039,-27.465820,0.518799,1.281738,32.574219
4160,-8.264784,-1.867477,-3.538630,-35.827637,-37.109375,19.256592,32.564453
4200,-8.753201,-1.939303,-3.639187,-25.665283,-101.287842,20.477295,32.554688
4240,-10.141838,-1.900996,-1.546654,-105.346680,-63.354492,-12.390137,32.564453
4280,-10.764331,-6.172252,-1.173159,-45.501709,-45.532227,-8.026123,32.580078
4320,-9.385271,-6.143522,0.584185,-41.870117,-63.140869,-10.986328,32.562500
4360,-9.174581,-3.174711,1.900996,8.483887,-32.287598,-18.463135,32.587891
4400,-9.476251,-0.699107,2.082955,-32.592773,-69.580078,3.692627,32.671875
4440,-10.386047,1.168370,0.876278,-91.918945,-54.870605,22.125244,32.679688
4480,-10.309433,-0.641646,-0.311246,-22.247314,-45.532227,16.662598,32.660156
4520,-9.773131,-1.422156,-0.100556,-34.088135,-62.194824,4.882812,32.669922
4560,-9.528923,-0.699107,0.196325,-81.604004,-43.579102,9.155273,32.693359
4600,-9.945514,-0.248997,0.497994,-38.757324,-35.675049,10.284424,32.683594
4640,-10.055647,0.124498,0.320823,14.160156,-48.797607,15.502930,32.666016
4680,-9.351752,0.641646,0.052672,17.822266,-65.277100,30.456543,32.664062
4720,-9.011775,0.469264,0.430956,-77.667236,-51.361084,37.841797,32.679688
4760,-9.006987,-1.115698,1.130063,-171.295166,-55.297852,42.297363,32.689453
4800,-9.509769,-1.719037,1.393425,-63.995361,-30.456543,17.944336,32.652344
4840,-10.213664,-0.268151,1.618480,-25.115967,-30.395508,9.887695,32.685547
4880,-11.425131,0.023942,1.819593,-63.140869,-31.616211,10.894775,32.677734
4920,-13.192051,0.316035,-1.067814,-35.278320,-6.164551,7.751465,32.687500
4960,-14.015656,2.169147,-1.120486,-19.897461,63.964844,16.601562,32.685547
5000,-12.603078,1.647211,-1.407791,-58.410645,144.653320,43.060303,32.697266
5040,-10.156203,-2.892196,-2.049437,-105.651855,131.774902,24.871826,32.697266
5080,-10.314221,-6.205771,1.924938,-129.669189,118.713379,6.378174,32.673828
5120,-12.435484,-4.199430,2.413355,-65.582275,150.360107,-7.843018,32.683594
5160,-13.120225,1.656788,0.861913,-212.249756,34.729004,95.672607,32.699219
5200,-10.338163,0.770933,-0.181959,103.424072,85.266113,102.630615,32.679688
5240,-6.636727,-0.392649,1.039083,109.802246,88.287354,87.402344,32.703125
5280,-4.424485,-1.163582,0.445322,83.770752,39.703369,39.398193,32.701172
5320,-3.409343,-1.771709,-0.430956,55.572510,-26.672363,11.108398,32.708984
5360,-3.950433,-1.221043,-1.900996,45.593262,-41.717529,-19.927979,32.701172
5400,-8.049306,1.623269,-6.253655,28.869629,13.488770,-11.016846,32.699219
5440,-14.652514,4.826711,-11.027693,14.465332,-14.343262,1.953125,32.710938
5480,-10.481815,1.125275,-7.134721,113.983154,-23.071289,-1.190186,32.718750
5520,-8.513782,0.636858,-0.641646,-36.376953,-84.259033,-32.257080,32.740234
5560,-12.957419,-0.723049,-0.828394,-286.407471,-64.239502,-51.025391,32.738281
5600,-10.218452,-5.712565,0.344765,-102.996826,-66.894531,-85.815430,32.710938
5640,-8.485051,-5.928043,1.379060,46.997070,3.448486,-115.631104,32.726562
5680,-9.998186,-2.734178,1.819593,228.424072,19.226074,-104.309082,32.714844
5720,-11.745954,1.685518,4.989516,169.097900,-90.667725,-29.632568,32.708984
5760,-10.160992,0.047884,-2.829947,-56.945801,-85.998535,0.000000,32.738281
5800,-7.920019,-0.440533,-3.313575,227.569580,-18.005371,-17.883301,32.728516
5840,-7.426814,-0.177171,-0.033519,73.059082,-107.391357,3.387451,32.726562
5880,-8.097190,-0.957681,1.498770,-92.529297,-116.149902,28.778076,32.722656
5920,-9.528923,-0.732626,1.795651,-153.869629,-89.324951,36.743164,32.724609
5960,-10.773908,-0.483629,1.623269,2.441406,-28.808594,-7.324219,32.740234
6000,-12.492945,-0.426168,-1.029507,263.702393,13.885498,-38.360596,32.712891
6040,-13.666103,1.584962,-2.446874,-115.356445,49.194336,36.590576,32.718750
6080,-13.378799,0.311246,-3.232172,-79.162598,144.561768,37.292480,32.722656
6120,-11.587936,-0.387861,-1.086968,77.606201,203.857422,19.805908,32.728516
6160,-12.823344,-2.432509,3.897760,10.192871,146.270752,-2.777100,32.742188
6200,-15.485697,-6.708553,1.134852,-278.198242,112.152100,-3.387451,32.748047
6240,-11.899182,-1.920150,0.814029,-175.598145,-33.874512,108.703613,32.757812
6280,-9.935937,2.015918,1.426944,1.739502,45.074463,99.609375,32.755859
6320,-7.005434,-0.598550,1.877054,145.202637,34.820557,86.608887,32.746094
6360,-3.940856,-2.595315,2.413355,134.521484,42.449951,61.431885,32.837891
6400,-1.632846,-3.404555,0.804452,120.208740,-10.864258,18.798828,32.814453
6440,-2.782062,-3.256114,-1.733402,108.947754,-47.119141,-26.458740,32.820312
6480,-10.821792,2.288857,-7.570466,-6.408691,63.293457,-15.960693,32.808594
6520,-17.377115,7.043741,-10.591949,77.941895,-9.185791,19.653320,32.837891
6560,-10.089166,1.048660,-5.363012,103.271484,-70.129395,-1.586914,32.841797
6600,-10.884041,-1.230620,3.270479,-168.518066,-25.085449,-44.738770,32.835938
6640,-11.046846,-4.783615,0.181959,-148.223877,-123.962402,-36.315918,32.826172
6680,-8.441956,-7.024588,1.719037,47.515869,-59.234619,-95.092773,32.824219
6720,-9.835381,-3.845088,2.451663,169.311523,78.674316,-118.621826,32.855469
6760,-11.420342,-0.081403,4.764462,289.642334,-55.145264,-40.527344,32.833984
6800,-10.524911,-0.296881,-1.115698,-86.822510,-94.390869,10.070801,32.857422
6840,-7.546524,-0.100556,-3.859453,184.417725,-68.603516,-13.366699,32.847656
6880,-6.775591,0.167594,-0.627281,157.012939,-72.174072,4.180908,32.839844
6920,-7.838616,-0.555455,1.570596,-57.525635,-101.593018,28.594971,32.855469
6960,-8.935161,-1.656788,2.480393,-298.309326,-76.202393,56.152344,32.859375
7000,-11.070788,-1.972822,1.905785,-39.367676,-24.963379,-4.394531,32.833984
7040,-11.913548,-0.311246,1.474828,230.285645,-39.886475,-30.334473,32.853516
7080,-13.584701,2.106898,-2.667141,4.913330,65.795898,19.378662,32.869141
7120,-14.097059,1.369483,-3.055001,-124.755859,145.446777,52.276611,32.839844
7160,-12.339716,-0.981623,-1.604115,45.318604,197.296143,31.951904,32.867188
7200,-12.603078,-4.893748,2.595315,-56.854248,131.561279,9.582520,32.849609
7240,-13.785813,-6.684611,2.403779,-155.517578,140.655518,-5.493164,32.857422
7280,-11.544841,-0.378284,0.488417,-127.014160,49.285889,53.161621,32.882812
7320,-9.337387,1.948880,1.307234,-40.222168,26.428223,87.982178,32.859375
7360,-7.096414,-0.885855,1.786075,116.790771,41.290283,68.359375,32.869141
7400,-5.066131,-1.120486,2.264915,109.771729,19.897461,56.427002,32.853516
7440,-3.572149,-1.991976,0.727837,94.268799,-42.388916,22.338867,32.875000
7480,-4.888960,-3.332729,-1.283292,136.108398,-48.675537,-25.085449,32.873047
7520,-10.022128,-0.033519,-6.148310,78.643799,33.660889,-39.916992,32.875000
7560,-15.140931,4.865018,-9.054871,78.216553,-2.044678,15.411377,32.867188
7600,-10.175357,0.636858,-4.635174,155.029297,-19.195557,23.437500,32.880859
7640,-10.213664,-0.229843,-0.488417,-1.892090,-29.449463,-2.624512,32.884766
7680,-13.187263,-2.164358,-0.818817,11.047363,33.203125,-41.992188,32.878906
7720,-8.470686,-4.424485,2.250550,36.407471,-15.594482,-63.110352,32.890625
7760,-8.925584,-3.428497,3.768473,160.797119,-49.285889,-120.056152,32.884766
7800,-10.366894,-1.345541,4.563348,181.915283,-14.984131,-43.975830,32.878906
7840,-9.404425,-1.786075,1.771709,65.826416,-88.897705,19.439697,32.906250
7880,-9.318233,-3.126827,-1.953669,94.207764,-13.854980,12.451172,32.882812
7920,-9.097966,-2.992752,-1.154005,127.746582,-28.717041,7.110596,32.886719
7960,-8.872911,-2.724602,0.775721,3.387451,-26.306152,9.918213,32.875000
8000,-8.983045,-2.791639,0.991199,43.670654,-0.396729,2.624512,32.906250
8040,-9.481039,-2.542642,1.398214,29.937744,-42.205811,15.319824,32.896484
8080,-9.030929,-2.944868,2.518700,-28.961182,-41.137695,22.735596,32.878906
8120,-8.734048,-3.643975,3.667917,49.499512,-49.285889,7.080078,32.892578
8160,-9.567230,-3.016694,3.040636,91.827393,-66.955566,-2.075195,32.892578
8200,-10.275913,-1.278504,1.953669,75.531006,-61.248779,1.831055,32.873047
8240,-10.170568,-1.048660,1.216254,79.376221,-13.122559,-9.979248,32.912109
8280,-9.797073,-1.187524,1.613692,-23.803711,-7.751465,-0.396729,32.908203
8320,-9.155427,-1.829170,2.691083,-17.761230,-9.155273,-7.629395,32.906250
8360,-9.351752,-1.675941,3.002329,28.503418,-13.061523,-19.836426,32.988281
8400,-9.797073,-1.106121,2.552219,2.410889,-6.500244,-18.005371,32.974609
8440,-10.156203,-0.746991,2.710236,26.428223,-1.892090,-23.925781,32.972656
8480,-11.042058,-0.545878,2.322376,46.203613,16.754150,-22.430420,32.996094
8520,-11.291056,-0.746991,0.670376,81.390381,42.083740,-16.448975,32.994141
8560,-11.257536,-1.106121,-2.059013,-7.904053,110.046387,-7.629395,32.978516
8600,-10.955867,-1.632846,-1.853112,-85.510254,164.916992,-3.021240,32.974609
8640,-11.305421,-2.896984,0.095768,-103.759766,150.207520,9.735107,32.984375
8680,-10.309433,-3.830723,3.485958,-78.125000,48.339844,17.883301,32.996094
8720,-8.599973,-0.651223,4.759673,-121.368408,-4.211426,88.317871,32.984375
8760,-13.436260,4.845864,1.005565,120.117188,69.213867,144.805908,33.001953
8800,-11.765107,1.948880,0.172383,180.725098,94.268799,121.612549,32.992188
8840,-9.418790,-1.766921,-0.004788,110.778809,68.420410,106.994629,32.998047
8880,-7.819463,-1.517924,-1.082179,83.953857,26.489258,83.923340,33.007812
8920,-6.454768,-1.082179,-1.776498,81.085205,1.922607,44.952393,32.998047
8960,-5.042189,-1.541866,-2.595315,94.909668,-14.221191,-2.746582,33.013672
9000,-5.142745,-0.095768,-3.327940,83.404541,-40.130615,-34.667969,33.009766
9040,-7.805098,2.863465,-3.720589,54.534912,-74.859619,-32.501221,33.011719
9080,-11.779472,5.784391,-2.250550,-29.144287,-80.047607,-22.949219,33.007812
9120,-8.671799,0.900220,-0.110133,-48.980713,-94.573975,-52.307129,33.019531
9160,-11.535264,-5.147533,0.272939,-202.880859,7.995605,-83.343506,33.009766
9200,-14.111424,-5.281609,-1.819593,53.222656,29.907227,-54.962158,33.019531
9240,-9.112331,-2.274492,0.454898,241.394043,35.980225,-82.916260,33.007812
9280,-11.156980,1.398214,3.074155,347.015381,74.340820,-57.647705,33.013672
9320,-12.315774,3.730166,1.747767,163.604736,-100.463867,12.420654,33.000000
9360,-8.604761,-1.297657,0.368707,105.834961,-28.045654,0.762939,33.013672
9400,-6.684611,-2.403779,-0.277727,142.486572,-12.145996,-0.610352,33.013672
9440,-7.513005,-1.618480,0.488417,-2.868652,-59.204102,23.406982,33.035156
9480,-8.370130,-1.508347,1.910573,-278.198242,-108.581543,55.084229,33.031250
9520,-8.719683,-2.212242,2.331953,-234.405518,-72.509766,13.366699,33.019531
9560,-10.338163,-1.651999,1.857901,210.113525,-27.862549,-50.415039,33.031250
9600,-12.349293,0.167594,0.909797,299.316406,-54.321289,-45.593262,33.050781
9640,-13.848063,1.230620,-3.476381,-10.284424,30.639648,11.383057,33.046875
9680,-14.092271,1.019930,-2.427721,-45.989990,139.160156,25.970459,33.041016
9720,-12.258312,0.277727,-1.805228,-35.797119,224.121094,38.330078,33.052734
9760,-11.722012,-3.643975,2.303222,-60.516357,123.809814,13.732910,33.041016
9800,-13.010092,-7.225701,3.265691,-104.095459,109.680176,-32.104492,33.037109
9840,-12.708423,-0.191536,1.034295,-149.414062,14.099121,88.226318,33.019531
9880,-11.789049,3.869030,1.029507,36.041260,68.054199,104.278564,33.054688
9920,-7.302315,-0.426168,1.977611,149.261475,36.010742,89.996338,33.046875
9960,-4.443638,-2.078167,2.686294,133.697510,22.277832,64.025879,33.056641
10000,-3.098097,-2.791639,1.249773,117.797852,-19.470215,29.205322,33.027344
10040,-3.064578,-4.122815,-1.288081,120.391846,-36.682129,-21.911621,33.042969
10080,-7.728483,-0.713472,-4.309563,23.254395,-1.586914,-28.503418,33.070312
10120,-16.807297,6.761226,-10.611102,79.071045,20.294189,26.855469,33.046875
10160,-12.119449,3.888184,-6.775591,129.425049,-66.406250,7.751465,33.042969
10200,-12.368446,1.091756,1.508347,-100.097656,-42.572021,-22.216797,33.041016
10240,-11.798626,-3.495534,0.933739,-142.944336,-42.175293,-57.281494,33.060547
10280,-5.602432,-9.548077,1.063026,57.983398,-48.889160,-23.529053,33.041016
10320,-8.805874,-6.689400,2.786851,179.901123,-2.166748,-126.037598,33.142578
10360,-11.908759,-0.881066,5.243302,222.473145,-1.007080,-48.187256,33.117188
10400,-12.239159,1.675941,-0.689530,-91.033936,-144.287109,7.415771,33.119141
10440,-8.202535,0.866701,-4.012682,263.580322,-47.760010,-14.556885,33.119141
10480,-5.918467,-0.014365,-0.047884,217.437744,-118.865967,-3.204346,33.136719
10520,-6.545747,-0.866701,2.140416,-31.951904,-85.693359,27.313232,33.150391
10560,-8.169016,-2.470816,2.748544,-250.854492,-44.708252,34.515381,33.138672
10600,-12.071565,-1.364695,1.766921,-103.637695,-54.931641,11.322021,33.128906
10640,-13.148955,1.316811,-0.397437,180.603027,-63.781738,-6.164551,33.150391
10680,-14.053964,3.825934,-2.920926,-71.258545,65.032959,46.539307,33.152344
10720,-14.446613,0.871489,-2.786851,-31.036377,188.659668,52.429199,33.140625
10760,-13.177686,-1.297657,0.296881,82.489014,179.534912,36.468506,33.152344
10800,-14.393941,-5.880159,4.209007,-70.953369,149.322510,-2.624512,33.148438
10840,-15.466543,-5.664681,1.058237,-197.113037,50.109863,35.278320,33.148438
10880,-10.907983,0.598550,2.092532,-121.643066,78.094482,79.101562,33.156250
10920,-7.350199,0.732626,1.929727,5.004883,73.394775,67.413330,33.144531
10960,-4.175488,-1.106121,2.748544,95.367432,52.368164,56.762695,33.158203
11000,-2.164358,-1.244985,2.782062,100.555420,28.015137,28.625488,33.150391
11040,-1.561020,-2.379837,0.641646,85.815430,-44.830322,-8.728027,33.175781
11080,-4.352659,-3.203442,-1.426944,174.438477,-41.473389,-48.248291,33.156250
11120,-16.922218,3.691859,-12.674904,-11.962891,19.714355,60.333252,33.150391
11160,-15.533581,5.669470,-10.285490,80.718994,-1.342773,10.314941,33.177734
11200,-12.296620,0.938527,-3.438074,-27.313232,-59.600830,-6.439209,33.162109
11240,-12.310986,-3.572149,2.925714,-161.376953,67.199707,-100.311279,33.156250
11280,-5.511452,-8.714894,2.671929,25.726318,-133.453369,-42.663574,33.171875
11320,-7.493851,-6.847417,4.170700,62.591553,-170.562744,-112.030029,33.177734
11360,-10.998962,-2.039860,6.789956,45.471191,78.186035,-65.246582,33.152344
11400,-13.417107,2.197877,1.484405,-149.810791,-153.045654,19.226074,33.167969
11440,-9.816227,1.685518,-6.004658,155.426025,-59.875488,-22.399902,33.160156
11480,-6.411672,1.359907,-2.671929,324.462891,-60.150146,-24.353027,33.181641
11520,-6.325481,0.287304,0.842759,32.501221,-85.266113,21.789551,33.189453
11560,-7.929596,-1.154005,2.284068,-354.278564,-98.724365,55.755615,33.162109
11600,-11.152191,-1.613692,2.303222,-259.063721,5.828857,31.494141,33.166016
11640,-12.564771,0.723049,1.273715,221.862793,-58.776855,-27.435303,33.167969
11680,-13.704411,2.566584,-2.164358,274.139404,-40.679932,-14.312744,33.181641
11720,-14.556746,1.479617,-3.313575,-177.337646,142.547607,69.152832,33.193359
11760,-12.603078,-0.282516,-1.877054,117.736816,213.409424,41.839600,33.167969
11800,-12.971785,-4.865018,3.078943,61.645508,123.474121,3.356934,33.193359
11840,-16.869545,-4.960786,2.121263,-128.417969,147.430420,22.003174,33.187500
11880,-12.670115,-2.025495,0.847547,-143.402100,80.993652,33.111572,33.197266
11920,-7.580042,0.272939,1.565808,-104.919434,38.330078,63.201904,33.210938
11960,-5.329493,0.478840,2.853889,41.961670,78.125000,57.159424,33.197266
12000,-3.294421,-0.718261,3.011906,119.903564,59.173584,44.189453,33.189453
12040,-1.742979,-1.599327,1.197101,94.848633,-13.122559,21.362305,33.173828
12080,-2.657564,-2.997540,-1.005565,135.345459,-70.587158,-21.606445,33.183594
12120,-12.124237,0.708684,-9.265560,7.141113,24.780273,30.517578,33.199219
12160,-17.377115,7.244854,-12.325351,69.671631,24.139404,8.270264,33.214844
12200,-8.566454,1.206678,-6.119579,59.295654,-53.558350,6.744385,33.207031
12240,-11.094730,-4.395754,1.115698,-159.362793,-18.524170,-75.225830,33.193359
12280,-11.956643,-8.700529,2.054225,-40.344238,-83.068848,-60.363770,33.210938
12320,-9.299079,-7.163452,4.371812,65.246582,-168.792725,-104.156494,33.281250
12360,-8.901642,-2.183512,6.746861,-50.628662,-59.692383,-87.005615,33.279297
12400,-11.769896,0.478840,6.162675,111.083984,-42.999268,-19.195557,33.283203
12440,-10.869676,1.441309,0.603339,-247.497559,-130.645752,25.238037,33.292969
12480,-7.287950,1.335965,-3.414132,35.583496,-116.729736,-16.876221,33.283203
12520,-6.153099,1.584962,-1.857901,53.375244,-75.866699,16.784668,33.294922
12560,-8.920795,-0.316035,0.689530,-26.947021,-65.063477,-4.089355,33.273438
12600,-10.295067,-3.198653,0.148441,-31.524658,-42.510986,-25.451660,33.285156
12640,-11.822568,0.684742,0.344765,31.616211,-13.580322,2.716064,33.292969
12680,-12.100295,4.467580,2.863465,-11.230469,-4.974365,37.231445,33.292969
12720,-13.785813,-0.062249,-0.799663,-33.325195,38.574219,43.151855,33.289062
12760,-13.809755,-1.350330,-3.768473,-28.686523,192.596436,48.553467,33.292969
12800,-11.875240,-0.488417,-0.292093,76.354980,200.408936,40.222168,33.292969
12840,-14.202404,-4.036624,3.256114,-82.366943,145.935059,16.693115,33.310547
12880,-16.223110,-4.481946,1.240196,-196.014404,90.087891,49.896240,33.308594
12920,-11.463438,2.020706,0.967257,-85.235596,69.976807,91.217041,33.298828
12960,-7.805098,1.010353,1.412579,89.019775,39.367676,74.310303,33.300781
13000,-4.740520,-1.666364,3.131616,132.690430,57.464600,66.802979,33.302734
13040,-2.523489,-1.920150,3.213019,122.161865,35.644531,47.546387,33.296875
13080,-1.647211,-2.351106,0.392649,90.820312,-53.436279,2.716064,33.302734
13120,-3.495534,-3.141193,-1.862689,162.445068,-72.601318,-49.041748,33.330078
13160,-16.534357,2.930503,-12.239159,-44.616699,49.255371,45.684814,33.306641
13200,-16.012421,7.340622,-10.692505,60.211182,-8.483887,20.568848,33.318359
13240,-7.426814,1.221043,-1.714248,-54.199219,-100.646973,-31.921387,33.304688
13280,-11.654974,-4.678270,2.547431,-149.505615,8.331299,-126.129150,33.296875
13320,-12.243947,-7.666234,1.091756,37.628174,-66.558838,-74.066162,33.310547
13360,-10.783484,-4.170700,2.489970,169.769287,-65.368652,-98.602295,33.287109
13400,-8.968679,-3.246537,3.543418,-21.453857,-32.501221,-71.411133,33.316406
13440,-11.348516,-0.962469,2.073379,419.311523,-119.018555,-44.342041,33.320312
13480,-8.676587,0.550666,-0.359130,151.824951,-96.313477,-7.019043,33.328125
13520,-4.510676,-0.052672,-2.030283,44.494629,71.380615,48.675537,33.328125
13560,-5.904101,0.019154,-1.230620,-78.399658,-23.406982,30.578613,33.330078
13600,-9.931149,-1.584962,1.130063,-103.851318,-164.398193,-7.476807,33.306641
13640,-12.612655,-2.020706,0.196325,29.968262,-147.735596,-15.625000,33.333984
13680,-12.799402,0.373495,-1.316811,-18.676758,-37.292480,27.252197,33.343750
13720,-12.373235,2.590526,0.493206,-199.035645,-16.021729,74.249268,33.298828
13760,-13.857639,-1.115698,-4.323928,-203.155518,88.806152,66.284180,33.339844
13800,-13.666103,-2.542642,-2.394202,-41.259766,222.045898,27.191162,33.312500
13840,-12.799402,-4.055778,3.912126,31.524658,168.823242,18.432617,33.314453
13880,-14.820108,-5.324705,1.326388,-237.884521,170.593262,49.957275,33.328125
13920,-12.105083,-3.682282,0.560243,-177.062988,69.854736,41.076660,33.351562
13960,-9.576807,-0.287304,0.924162,-33.447266,50.048828,97.351074,33.376953
14000,-5.760449,0.076614,2.039860,57.678223,58.227539,87.219238,33.322266
14040,-2.489970,-0.378284,2.528277,103.332520,26.763916,53.985596,33.347656
14080,-1.795651,-1.441309,1.843535,82.214355,-7.446289,20.355225,33.339844
14120,-3.792415,-2.901772,-0.282516,141.601562,-48.858643,-32.684326,33.343750
14160,-12.430696,2.054225,-9.188946,-208.923340,-52.215576,120.758057,33.353516
14200,-16.903065,8.614338,-12.186486,100.128174,52.001953,35.430908,33.343750
14240,-9.701305,2.738967,-5.798757,21.820068,-93.902588,-22.125244,33.347656
14320,-13.737929,-7.173028,2.671929,-118.652344,-36.102295,-136.138916,33.429688
14360,-11.880029,-5.487510,1.369483,173.614502,34.698486,-99.609375,33.416016
14400,-9.385271,-2.810793,1.977611,-14.892578,-249.633789,-21.026611,33.419922
14440,-10.500969,-1.551443,4.347870,110.015869,-313.049316,18.890381,33.414062
14480,-8.269572,-2.609680,2.882619,137.725830,-208.282471,-13.061523,33.412109
14520,-6.426037,-0.723049,-0.330400,57.983398,-80.718994,3.387451,33.396484
14560,-5.334281,2.686294,2.035071,-90.118408,-78.430176,-28.533936,33.435547
14600,-8.087613,1.015141,3.610456,-72.631836,-66.986084,-90.972900,33.423828
14640,-12.200851,-1.618480,0.330400,1.159668,-44.647217,-11.779785,33.419922
14680,-12.871228,-0.430956,2.188300,70.495605,-74.859619,8.819580,33.423828
14720,-11.635820,2.078167,6.344635,-103.271484,77.026367,12.756348,33.445312
14760,-12.957419,0.794875,0.919373,-250.030518,305.175781,48.889160,33.410156
14800,-13.991714,-1.139640,-3.567361,-19.439697,207.611084,77.972412,33.453125
14840,-13.115437,-3.845088,2.217031,95.336914,231.689453,27.252197,33.449219
14880,-13.196839,-4.855441,2.513912,-225.128174,144.592285,4.730225,33.433594
14920,-12.172121,-5.343858,-0.138864,-168.884277,75.073242,77.178955,33.445312
14960,-9.385271,-0.828394,0.689530,-47.454834,66.864014,98.327637,33.439453
15000,-5.832275,-0.258574,1.824382,65.734863,65.551758,104.248047,33.453125
15040,-2.710236,-1.513135,2.552219,95.886230,53.833008,78.308105,33.431641
15080,-2.619257,-2.542642,1.206678,75.805664,-10.864258,34.393311,33.445312
15120,-4.122815,-3.897760,-1.149217,127.349854,-61.767578,-52.978516,33.433594
15160,-11.559206,0.517148,-9.758766,-98.602295,0.030518,135.284424,33.433594
15200,-15.054740,8.068460,-11.702858,17.364502,7.293701,62.866211,33.449219
15240,-11.583148,3.687071,-7.086837,47.027588,-37.200928,-93.139648,33.468750
15280,-11.228806,-1.623269,2.197877,-163.909912,-56.060791,-171.722412,33.466797
15320,-10.817003,-5.865794,1.206678,-130.950928,-100.341797,-151.763916,33.443359
15360,-9.021352,-10.457873,-0.067038,-30.181885,34.027100,-154.083252,33.453125
15400,-8.638280,-6.378153,-0.962469,203.338623,63.262939,-91.094971,33.464844
15440,-11.214440,-1.651999,1.805228,204.986572,-60.577393,-12.420654,33.464844
15480,-8.451532,-1.551443,1.723825,298.187256,39.245605,39.825439,33.458984
15520,-5.238513,-0.876278,-2.700660,13.061523,-5.920410,-3.479004,33.470703
15560,-4.309563,-0.804452,-2.202666,-19.744873,-191.314697,12.542725,33.464844
15600,-8.523358,-0.095768,0.823605,-0.213623,-85.571289,-2.960205,33.466797
15640,-11.736377,-1.077391,-2.346318,71.197510,-74.371338,15.991211,33.472656
15680,-12.363658,-1.177947,-3.859453,15.991211,-42.022705,42.694092,33.462891
15720,-13.244724,0.263362,-0.330400,-85.845947,-34.912109,41.717529,33.458984
15760,-14.240712,-0.555455,-3.284845,-297.943115,-183.197021,40.771484,33.468750
15800,-13.397953,-1.608904,-4.721366,-181.854248,227.874756,80.718994,33.472656
15840,-12.717999,-3.251326,0.397437,112.640381,241.790771,48.431396,33.443359
15880,-12.813767,-3.979163,2.097321,-186.614990,100.677490,61.645508,33.480469
15920,-13.958196,-4.644751,-0.407014,-350.128174,36.743164,87.371826,33.472656
15960,-11.046846,-1.958457,-0.148441,-45.013428,87.738037,89.477539,33.451172
16000,-6.641516,-0.105345,1.527501,53.497314,65.185547,100.311279,33.480469
16040,-2.983175,-1.029507,2.360683,97.167969,27.435303,77.636719,33.472656
16080,-2.116474,-2.169147,1.431733,105.377197,-11.199951,46.020508,33.484375
16120,-3.021482,-3.658340,-0.565032,104.034424,-39.276123,-29.693604,33.472656
16160,-7.326257,-2.288857,-5.664681,117.401123,-46.386719,-63.964844,33.466797
16200,-15.854403,7.728483,-11.870452,-42.480469,-22.735596,111.145020,33.464844
16240,-14.317327,5.760449,-8.815451,27.893066,18.432617,-43.457031,33.484375
16280,-12.938266,0.138864,0.081403,-214.111328,-48.095703,-91.278076,33.550781
16320,-11.003751,-3.193865,1.043872,-106.231689,-126.922607,-101.806641,33.537109
16360,-9.174581,-8.714894,2.082955,55.725098,-9.307861,-75.103760,33.564453
16400,-8.791509,-6.967127,0.493206,28.808594,-29.357910,-97.076416,33.531250
16440,-9.883265,-3.840300,2.456451,73.394775,13.885498,-88.012695,33.556641
16480,-9.792285,-1.685518,-0.172383,138.092041,-154.144287,-42.327881,33.537109
16520,-6.311116,1.268927,-3.533842,-34.912109,-92.407227,-32.379150,33.554688
16560,-4.237737,0.105345,-1.264138,-82.275391,-51.513672,-51.757812,33.539062
16600,-7.091625,-1.996764,1.110910,-17.669678,-59.631348,-65.551758,33.544922
16640,-11.252748,-0.402226,-1.345541,29.327393,-157.806396,-14.404297,33.550781
16680,-13.670892,0.881066,-0.488417,-16.754150,56.427002,15.441895,33.552734
16720,-15.327680,1.058237,1.455675,10.528564,-80.841064,38.574219,33.570312
16760,-14.662091,0.248997,-2.087744,31.616211,58.959961,77.117920,33.580078
16800,-14.097059,-1.766921,-2.547431,3.845215,229.431152,83.312988,33.546875
16840,-13.244724,-5.219360,1.891419,-41.839600,158.325195,78.216553,33.585938
16880,-13.206416,-6.335058,-0.770933,-191.711426,90.057373,81.390381,33.576172
16920,-13.101071,-4.601655,-0.009577,-102.447510,96.435547,84.228516,33.566406
16960,-9.332599,-0.244209,2.159570,-25.909424,82.183838,100.463867,33.568359
17000,-4.951209,-0.009577,2.834735,86.822510,52.032471,104.278564,33.576172
17040,-1.987187,-1.393425,2.130840,100.799561,14.404297,68.664551,33.570312
17080,-1.240196,-2.624045,0.325611,93.841553,-11.169434,-6.225586,33.564453
17120,-3.371036,-3.222595,-2.059013,120.178223,-58.349609,-95.764160,33.560547
17160,-11.429919,2.782062,-11.252748,75.439453,6.805420,78.765869,33.587891
17200,-15.442601,7.479486,-10.424355,33.966064,12.237549,15.197754,33.570312
17240,-11.702858,1.680730,-4.534618,-148.071289,-64.392090,-128.723145,33.558594
17280,-11.056423,-4.486734,-1.781286,-170.135498,-61.462402,-78.857422,33.580078
17320,-11.496957,-5.190629,3.203442,-128.814697,-101.409912,-96.466064,33.603516
17360,-10.433931,-5.717354,3.040636,16.418457,-47.698975,-80.963135,33.580078
17400,-9.830592,-5.224148,1.201889,74.096680,-38.116455,-65.643311,33.587891
17440,-9.782708,-3.160346,-0.047884,87.249756,-35.949707,-76.080322,33.583984
17480,-8.039729,-1.470040,-0.205901,71.716309,-46.936035,-38.482666,33.580078
17520,-5.573701,-0.981623,-1.053449,-44.189453,-86.547852,-52.215576,33.574219
17560,-4.596867,-2.422932,0.641646,-15.747070,-40.191650,-62.835693,33.593750
17600,-7.469909,-2.044648,1.278504,3.234863,-104.309082,-61.584473,33.595703
17640,-10.007763,-0.407014,-1.364695,4.760742,-77.392578,-6.408691,33.591797
17680,-12.492945,0.239420,0.407014,35.156250,-25.268555,7.995605,33.568359
17720,-13.326127,0.972046,-1.163582,3.417969,-27.740479,22.155762,33.589844
17760,-13.766660,0.521936,-2.772485,0.457764,125.610352,59.844971,33.609375
17800,-14.264654,-1.024718,0.292093,-9.765625,210.998535,87.280273,33.595703
17840,-14.255077,-3.490746,3.462016,0.122070,121.185303,78.308105,33.613281
17880,-15.399506,-4.601655,0.100556,-224.304199,49.255371,91.888428,33.582031
17920,-13.905523,-5.578490,-0.057461,-40.985107,97.625732,92.193604,33.570312
17960,-9.615114,-2.504335,0.675165,-29.846191,60.577393,69.793701,33.580078
18000,-5.430049,-0.440533,2.681506,106.658936,58.746338,90.179443,33.595703
18040,-2.298434,-0.804452,2.710236,125.610352,12.664795,60.852051,33.601562
18080,-1.058237,-2.772485,0.924162,118.194580,-17.089844,11.505127,33.585938
18120,-2.240973,-5.070919,-1.292869,135.009766,-12.023926,-55.114746,33.601562
18160,-8.844181,-1.474828,-8.561666,100.311279,9.185791,43.579102,33.593750
18200,-16.730682,8.269572,-11.027693,-33.355713,-45.349121,59.722900,33.605469
18240,-15.705963,5.722142,-6.502652,-56.976318,-38.574219,-59.600830,33.607422
18280,-13.991714,-1.484405,0.799663,-226.806641,-34.881592,-95.306396,33.675781
18320,-10.817003,-7.781156,4.965574,30.792236,-50.872803,-124.389648,33.662109
18360,-8.805874,-9.811439,3.031059,21.728516,-77.026367,-99.792480,33.681641
18400,-9.021352,-6.277597,1.479617,70.465088,-20.751953,-81.329346,33.660156
18440,-8.513782,-3.988740,-0.110133,195.068359,-97.564697,-58.197021,33.658203
18480,-6.224925,-0.397437,-2.059013,-1.983643,-37.475586,-48.370361,33.666016
18520,-4.443638,0.622492,-0.660800,-49.621582,-65.368652,-43.182373,33.671875
18560,-6.382942,-1.618480,1.091756,-0.457764,-166.259766,-57.373047,33.675781
18600,-10.462662,-1.187524,-1.039083,9.307861,-93.688965,-31.677246,33.683594
18640,-13.014880,-0.004788,0.694318,-15.380859,41.259766,8.331299,33.664062
18680,-13.436260,0.430956,2.647987,22.705078,-43.121338,32.867432,33.667969
18720,-13.910312,0.679953,-1.680730,0.000000,42.572021,70.648193,33.679688
18760,-14.542381,-0.732626,-1.977611,-61.981201,251.495361,98.663330,33.646484
18800,-15.255854,-4.525041,3.145981,53.100586,153.381348,87.127686,33.697266
18840,-15.461755,-5.961562,1.699883,-173.400879,84.838867,98.114014,33.679688
18880,-14.389153,-6.162675,-0.320823,-98.602295,94.024658,95.092773,33.689453
18920,-9.562442,-2.662352,1.034295,-36.529541,65.734863,78.063965,33.677734
18960,-5.190629,-0.081403,2.643199,75.714111,68.725586,103.302002,33.691406
19000,-2.226608,-0.814029,2.647987,121.765137,37.170410,76.293945,33.691406
19040,-1.642422,-2.442086,1.278504,110.137939,2.960205,30.883789,33.658203
19080,-2.834735,-4.841076,-1.230620,128.204346,-20.751953,-37.261963,33.701172
19120,-8.346188,-2.451663,-8.374918,46.447754,-16.906738,1.617432,33.681641
19160,-16.855181,7.920019,-10.855310,-33.325195,-34.362793,76.995850,33.677734
19200,-13.876793,5.669470,-7.455544,28.137207,47.485352,-41.595459,33.681641
19240,-11.152191,-1.374272,-0.526724,-193.054199,-84.381104,-128.601074,33.707031
19280,-10.812215,-4.659117,0.799663,-75.897217,-90.789795,-81.207275,33.675781
19320,-9.806650,-7.570466,2.901772,4.150391,-103.057861,-100.280762,33.687500
19360,-8.992621,-6.186617,0.699107,-39.581299,-68.786621,-101.104736,33.675781
19400,-8.724471,-4.726154,1.546654,32.470703,17.517090,-91.674805,33.697266
19440,-9.145850,-2.398990,0.454898,118.103027,-109.191895,-56.396484,33.701172
19480,-7.287950,-0.086191,-1.704672,-5.371094,-69.122314,-46.539307,33.701172
19520,-5.233725,0.335188,-1.168370,-60.424805,-45.074463,-30.670166,33.691406
19560,-6.234501,-2.279280,2.078167,-27.618408,-68.908691,-45.043945,33.701172
19600,-10.266336,-1.877054,1.359907,23.529053,-182.128906,-15.655518,33.687500
19640,-12.603078,-0.517148,-0.306458,6.469727,-10.650635,17.028809,33.722656
19680,-14.393941,-0.047884,1.211466,-2.838135,-30.883789,28.594971,33.701172
19720,-14.336480,-0.316035,-0.407014,-49.743652,30.303955,50.689697,33.681641
19760,-13.795390,-0.636858,-1.671153,-74.798584,175.537109,97.595215,33.703125
19800,-12.895170,-2.863465,0.598550,40.069580,189.331055,84.320068,33.708984
19840,-12.780249,-4.673482,1.881842,-109.710693,102.844238,90.118408,33.724609
19880,-13.804967,-4.501099,-0.263362,-176.940918,61.981201,95.581055,33.701172
19920,-11.583148,-2.015918,0.632069,-58.471680,66.162109,94.879150,33.714844
19960,-7.153875,-0.488417,2.217031,62.347412,62.225342,104.675293,33.720703
20000,-3.222595,-1.374272,2.528277,104.034424,32.836914,80.169678,33.705078
20040,-1.920150,-2.355895,1.618480,101.501465,-6.011963,31.707764,33.710938
20080,-2.600103,-3.711013,-0.828394,110.229492,-5.889893,-43.670654,33.720703
20120,-7.015011,-2.590526,-5.975927,181.396484,3.936768,-55.419922,33.701172
20160,-16.654066,8.274361,-10.754754,-51.361084,-49.743652,115.875244,33.707031
20200,-14.025233,7.196970,-7.584831,55.145264,64.971924,-18.524170,33.691406
20240,-10.132261,0.584185,1.771709,-216.369629,-108.520508,-228.851318,33.785156
20280,-9.897630,-5.142745,0.057461,-113.830566,-73.638916,-54.229736,33.787109
20320,-9.672575,-7.728483,2.154782,-4.669189,-89.538574,-105.102539,33.773438
20360,-9.907207,-6.722919,1.158794,-16.174316,-80.139160,-84.350586,33.787109
20400,-9.385271,-5.506664,2.274492,47.698975,4.821777,-84.289551,33.792969
20440,-9.198523,-2.485181,0.296881,131.042480,-47.637939,-57.952881,33.783203
20480,-7.824251,0.713472,-1.604115,49.987793,-61.309814,-45.654297,33.792969
20520,-5.243302,0.335188,-0.239420,-16.021729,-54.504395,-36.346436,33.798828
20560,-5.923255,-2.523489,2.078167,4.882812,-58.837891,-52.032471,33.792969
20600,-10.160992,-1.996764,-0.383072,36.682129,-113.830566,-27.465820,33.787109
20640,-13.115437,-0.727837,0.023942,14.465332,31.494141,12.481689,33.804688
20680,-13.675680,-0.474052,1.781286,29.724121,-51.025391,30.639648,33.794922
20720,-14.053964,-0.071826,-0.809240,-39.031982,22.918701,61.798096,33.800781
20760,-14.379576,-0.349553,-2.207454,-76.568604,240.203857,84.838867,33.812500
20800,-13.316550,-4.022259,1.029507,-0.610352,184.875488,65.277100,33.798828
20840,-12.334928,-5.497087,1.733402,-142.547607,82.946777,89.874268,33.792969
20880,-12.449849,-5.554548,-0.598550,-186.096191,65.216064,80.505371,33.787109
20920,-10.558430,-1.747767,0.775721,-69.366455,55.847168,80.352783,33.783203
20960,-6.708553,0.416591,1.810017,48.217773,43.518066,94.970703,33.787109
21000,-2.925714,-0.881066,1.968034,117.401123,27.313232,84.503174,33.814453
21040,-1.872266,-2.413355,1.240196,105.010986,-21.301270,34.637451,33.812500
21080,-3.371036,-3.916914,-0.952892,114.562988,-17.517090,-42.755127,33.792969
21120,-7.709330,-2.911349,-5.492299,171.142578,-20.904541,-55.328369,33.812500
21160,-16.429012,7.618350,-11.219229,-63.903809,-63.629150,115.173340,33.808594
21200,-14.221559,6.732495,-7.513005,38.299561,51.147461,-41.564941,33.808594
21240,-10.960655,-0.900220,2.078167,-195.861816,-67.199707,-191.558838,33.824219
21280,-10.022128,-5.276821,-1.163582,-32.928467,-76.202393,-24.353027,33.814453
21320,-8.963891,-8.638280,1.580173,-41.290283,-113.647461,-102.142334,33.806641
21360,-9.165004,-7.943961,1.805228,-19.287109,-76.080322,-90.911865,33.808594
21400,-9.179369,-6.411672,2.169147,78.308105,68.969727,-69.610596,33.822266
21440,-10.046070,-2.279280,0.086191,120.788574,-88.958740,-61.676025,33.835938
21480,-7.412448,0.948104,-1.867477,-7.934570,-70.312500,-47.149658,33.808594
21520,-4.802769,0.153229,-0.641646,-56.976318,-57.922363,-40.649414,33.812500
21560,-6.301539,-1.968034,1.814805,0.091553,-66.192627,-46.356201,33.802734
21600,-10.180145,-1.182736,0.584185,26.428223,-131.225586,-18.798828,33.808594
21640,-12.794614,-0.095768,0.220267,17.272949,3.997803,20.996094,33.814453
21680,-14.350845,0.100556,1.096544,10.131836,-43.487549,40.863037,33.833984
21720,-14.226347,-1.292869,-0.713472,-12.359619,9.185791,68.450928,33.818359
21760,-14.125790,-1.091756,-2.547431,-18.676758,204.345703,100.433350,33.833984
21800,-13.575124,-4.357447,0.277727,-27.130127,183.197021,80.383301,33.812500
21840,-12.794614,-6.512228,0.718261,-143.646240,83.557129,78.704834,33.845703
21880,-12.617443,-5.607220,-0.531513,-186.737061,75.561523,67.382812,33.833984
21920,-10.347740,-1.489193,1.465251,-56.579590,61.645508,88.012695,33.822266
21960,-6.272809,-0.325611,2.331953,36.529541,44.494629,102.813721,33.847656
22000,-2.638410,-1.766921,2.173935,96.313477,11.871338,80.078125,33.843750
22040,-2.164358,-2.355895,0.718261,80.963135,-33.172607,19.500732,33.826172
22080,-3.916914,-2.892196,-1.403002,97.229004,-28.808594,-59.600830,33.851562
22120,-9.016563,-0.100556,-7.809886,192.779541,74.829102,40.130615,33.843750
22160,-16.347609,8.729259,-10.386047,-43.121338,-11.077881,58.654785,33.837891
22200,-13.709199,3.327940,-7.570466,-25.054932,-16.052246,-59.234619,33.843750
22240,-12.038046,-2.671929,0.478840,-205.108643,-65.032959,-98.937988,33.908203
22280,-10.817003,-4.721366,2.250550,-68.420410,-93.322754,-105.682373,33.890625
22320,-9.236830,-8.116343,1.599327,-21.453857,-108.947754,-99.975586,33.908203
22360,-8.322245,-6.296751,1.187524,21.942139,0.549316,-102.355957,33.914062
22400,-8.710106,-3.840300,2.159570,42.175293,24.291992,-81.756592,33.927734
22440,-8.331821,-1.742979,0.239420,48.400879,-107.116699,-65.460205,33.908203
22480,-6.028600,-0.679953,-1.216254,-19.195557,-68.725586,-42.510986,33.910156
22520,-5.937620,-0.804452,-0.076614,-45.532227,-62.225342,-45.501709,33.906250
22560,-8.556877,-1.824382,1.489193,2.899170,-80.688477,-49.163818,33.912109
22600,-11.520899,-0.746991,-0.339977,13.336182,-80.902100,-14.617920,33.912109
22640,-13.172897,0.325611,-1.005565,-13.519287,15.991211,21.636963,33.910156
22680,-13.757083,-0.407014,0.335188,7.843018,-89.447021,42.144775,33.921875
22720,-13.493721,-1.000776,-1.857901,-41.198730,24.169922,67.108154,33.925781
22760,-13.330915,-1.666364,-2.078167,-60.394287,216.918945,78.491211,33.919922
22800,-12.837709,-3.912126,1.422156,-1.495361,165.435791,80.230713,33.931641
22840,-12.531252,-5.837064,0.828394,-161.773682,74.310303,93.292236,33.937500
22880,-12.789825,-5.564125,-0.521936,-159.912109,52.062988,79.437256,33.921875
22920,-10.074800,-1.872266,0.837971,-67.138672,51.696777,78.033447,33.923828
22960,-6.124368,-0.181959,1.843535,51.544189,41.839600,84.136963,33.906250
23000,-2.853889,-1.288081,2.145205,114.654541,24.658203,65.948486,33.925781
23040,-1.920150,-2.700660,1.077391,92.346191,-30.303955,12.145996,33.929688
23080,-3.495534,-4.165911,-1.019930,112.457275,-4.913330,-62.286377,33.939453
23120,-10.175357,-1.177947,-7.738060,140.106201,-15.533447,56.365967,33.927734
23160,-17.065870,9.404425,-9.658210,-50.018311,-29.052734,84.777832,33.923828
23200,-13.675680,4.898537,-6.181829,-6.469727,30.731201,-62.042236,33.908203
23240,-11.540052,-2.288857,1.508347,-186.187744,-73.211670,-130.279541,33.939453
23280,-10.386047,-5.329493,0.392649,28.625488,-58.135986,-80.200195,33.933594
23320,-9.030929,-8.398860,1.225831,17.364502,-100.921631,-100.677490,33.937500
23360,-8.231265,-7.513005,0.450110,-14.465332,-26.428223,-97.412109,33.923828
23400,-8.446744,-5.923255,1.632846,86.181641,29.235840,-74.066162,33.939453
23440,-8.901642,-2.595315,2.030283,115.692139,32.348633,-30.609131,33.939453
23480,-7.153875,0.785298,-1.857901,-28.289795,-98.663330,-34.240723,33.937500
23520,-6.272809,0.588974,-0.976834,-74.859619,-78.369141,-37.414551,33.937500
23560,-8.647857,-0.699107,0.608127,-27.435303,-85.540771,-46.691895,33.966797
23600,-10.931925,-0.507571,-1.479617,-3.997803,-103.668213,-34.271240,33.933594
23640,-12.090718,0.004788,-1.671153,-14.190674,22.155762,14.892578,33.939453
23680,-12.890382,-0.708684,1.388637,-37.597656,-19.531250,27.465820,33.955078
23720,-13.699622,-1.814805,-1.742979,2.532959,-121.185303,55.389404,33.937500
23760,-13.623008,-0.679953,-3.500323,-20.355225,209.625244,88.348389,33.943359
23800,-12.617443,-2.806004,-0.090980,-5.554199,205.352783,87.768555,33.957031
23840,-12.076353,-5.219360,1.484405,-112.457275,84.533691,92.987061,33.933594
23880,-13.493721,-5.770026,-0.948104,-224.578857,36.315918,80.017090,33.953125
23920,-11.894394,-1.522712,0.857124,-56.396484,64.270020,83.557129,33.960938
23960,-7.618350,0.225055,1.934515,45.349121,50.933838,93.658447,33.945312
24000,-3.055001,-1.359907,1.963245,118.865967,24.719238,83.374023,33.947266
24040,-1.230620,-2.753332,1.130063,118.377686,-37.322998,34.179688,33.957031
24080,-2.614468,-3.586514,-1.005565,113.311768,-16.265869,-46.112061,33.951172
24120,-7.896077,-2.059013,-5.770026,173.919678,7.781982,-43.914795,33.962891
24160,-16.922218,7.987057,-10.194510,-57.525635,-64.025879,95.092773,33.951172
24200,-14.652514,6.114791,-6.976704,28.045654,46.295166,-40.771484,33.970703
24240,-11.784261,-1.312023,1.642422,-159.210205,-39.367676,-141.662598,34.029297
24280,-10.544065,-5.382165,-0.272939,7.141113,-76.232910,-61.218262,34.009766
24320,-9.050082,-8.633492,0.790087,38.635254,-82.763672,-80.230713,34.009766
24360,-8.154651,-8.135497,0.938527,17.761230,5.432129,-101.409912,34.025391
24400,-9.572019,-5.616797,2.676718,118.743896,43.395996,-61.157227,34.033203
24440,-10.060435,-1.216254,1.599327,107.330322,-50.018311,-39.306641,34.029297
24480,-6.545747,0.890643,-2.188300,-33.050537,-112.670898,-59.143066,34.039062
24520,-4.156334,-0.866701,-1.742979,-33.386230,-62.042236,-34.515381,34.025391
24560,-7.015011,-2.121263,0.469264,-16.082764,-77.484131,-45.928955,34.033203
24600,-11.099519,-0.756568,-0.890643,-18.035889,-131.225586,-12.847900,34.035156
24640,-12.579136,-1.177947,-0.129287,10.803223,-17.608643,26.092529,34.052734
24680,-13.680469,-1.005565,1.695095,-21.697998,-62.866211,14.678955,34.029297
24720,-13.872005,-0.287304,-1.800440,-78.002930,-13.305664,66.436768,34.039062
24760,-13.330915,-1.010353,-2.317587,-50.415039,216.064453,94.726562,34.044922
24800,-13.330915,-3.174711,0.359130,-2.593994,187.561035,89.782715,34.048828
24840,-13.824121,-5.626374,1.388637,-110.534668,64.239502,93.322754,34.056641
24880,-13.546393,-5.851429,-1.149217,-128.967285,57.312012,82.122803,34.044922
24920,-10.002975,-2.667141,0.541090,-80.352783,58.929443,79.193115,34.046875
24960,-5.741296,-0.852336,2.250550,46.966553,51.208496,98.480225,34.035156
25000,-2.130840,-1.771709,2.312799,116.699219,4.638672,73.272705,34.048828
25040,-1.939303,-2.604892,0.991199,87.280273,-44.952393,20.874023,34.044922
25080,-4.266468,-3.730166,-1.742979,109.069824,-18.829346,-56.671143,34.060547
25120,-10.146626,-0.703895,-7.264008,142.730713,26.885986,7.507324,34.035156
25160,-16.668432,8.336611,-9.198523,-48.858643,-31.341553,40.069580,34.064453
25200,-14.341269,4.778827,-6.430826,-2.471924,-2.014160,-34.606934,34.039062
25240,-12.296620,-1.268927,1.149217,-204.467773,-68.572998,-95.886230,34.044922
25280,-9.916783,-6.052542,0.502782,63.934326,-32.501221,-58.410645,34.068359
25320,-8.049306,-9.356541,1.786075,-44.860840,-124.847412,-92.193604,34.064453
25360,-8.121132,-7.316680,1.623269,-4.913330,-49.255371,-91.583252,34.068359
25400,-8.101978,-5.458780,2.466028,71.777344,26.855469,-105.316162,34.082031
25440,-9.385271,-1.446098,1.584962,94.909668,-58.746338,-64.941406,34.054688
25480,-7.460332,1.661576,-2.149993,-35.308838,-97.839355,-52.307129,34.064453
25520,-5.904101,-0.134075,-0.847547,-16.326904,-48.553467,-34.118652,34.056641
25560,-7.785944,-1.685518,0.622492,15.167236,-54.962158,-33.111572,34.044922
25600,-10.563218,-1.307234,-0.143652,6.469727,-48.278809,-15.472412,34.060547
25640,-12.813767,-0.895431,-0.081403,22.094727,-11.718750,23.193359,34.080078
25680,-14.384364,-0.521936,2.327164,-30.151367,-13.793945,22.827148,34.072266
25720,-14.494497,-1.283292,-1.225831,-18.524170,7.629395,66.925049,34.056641
25760,-14.077906,-1.891419,-3.505111,-19.256592,208.770752,100.280762,34.058594
25800,-12.866440,-5.195418,0.464475,-68.939209,154.113770,75.164795,34.070312
25840,-11.631032,-7.824251,0.507571,-136.962891,78.063965,76.812744,34.064453
25880,-11.645397,-5.655105,-0.766145,-163.360596,67.321777,55.389404,34.070312
25920,-9.600749,-0.555455,1.666364,-69.671631,47.271729,94.543457,34.068359
25960,-5.449203,-0.430956,2.298434,51.086426,34.149170,102.661133,34.068359
26000,-2.389413,-1.944092,1.580173,81.268311,-12.420654,67.321777,34.052734
26040,-2.394202,-2.772485,0.248997,73.028564,-39.855957,1.312256,34.078125
26080,-4.572925,-3.150769,-1.719037,91.186523,-18.280029,-76.568604,34.062500
26120,-10.649409,0.368707,-8.015787,143.981934,38.757324,37.506104,34.080078
26160,-17.357962,8.461109,-9.021352,-31.127930,-10.620117,42.358398,34.074219
26200,-13.263878,2.968810,-5.233725,-62.072754,-5.706787,-102.813721,34.156250
26240,-11.185710,-3.940856,1.139640,-115.020752,-132.476807,-79.284668,34.130859
26280,-9.658210,-6.780379,0.636858,32.653809,-80.444336,-30.639648,34.136719
26320,-8.231265,-8.590396,2.193089,-22.460938,-76.629639,-83.251953,34.156250
26360,-8.973468,-6.828263,1.719037,25.573730,-39.581299,-82.214355,34.164062
26400,-9.145850,-4.170700,1.781286,76.568604,-5.706787,-84.045410,34.128906
26440,-8.504205,-1.101333,0.909797,62.347412,-73.577881,-60.363770,34.148438
26480,-6.133945,0.172383,-1.814805,-40.863037,-79.315186,-40.924072,34.142578
26520,-5.339070,-1.484405,-0.598550,-14.495850,-25.268555,-32.318115,34.152344
26560,-8.408437,-1.819593,1.254562,7.171631,-65.155029,-37.872314,34.142578
26600,-11.506534,-0.574608,1.072602,-0.579834,-55.084229,-13.977051,34.162109
26640,-13.110648,-0.138864,0.263362,-0.244141,-8.300781,17.883301,34.144531
26680,-13.809755,-0.454898,1.106121,-32.745361,-50.842285,40.740967,34.142578
26720,-14.101848,-1.235408,-2.183512,-72.814941,52.917480,84.960938,34.169922
26760,-13.699622,-2.470816,-2.331953,10.711670,232.025146,104.705811,34.152344
26800,-12.828133,-5.497087,1.312023,-40.069580,143.646240,71.136475,34.156250
26840,-13.072341,-6.416461,-0.196325,-178.161621,38.177490,79.711914,34.169922
26880,-12.469003,-4.534618,0.086191,-110.839844,69.152832,90.362549,34.142578
26920,-8.834604,-1.508347,1.939303,-11.779785,67.199707,93.841553,34.148438
26960,-4.654328,-1.110910,2.298434,45.227051,38.208008,83.740234,34.160156
27000,-2.087744,-2.078167,1.862689,86.547852,-3.112793,52.124023,34.160156
27040,-2.173935,-2.743755,0.229843,68.878174,-24.414062,-12.756348,34.152344
27080,-4.376601,-3.936068,-2.221819,111.968994,-7.995605,-78.155518,34.156250
27120,-11.717223,0.181959,-9.825804,70.922852,7.110596,49.621582,34.175781
27160,-17.204733,8.676587,-9.399636,-68.420410,-16.784668,15.991211,34.150391
27200,-12.588713,3.141193,-4.022259,-21.270752,-38.238525,-131.652832,34.169922
27240,-10.778696,-3.265691,2.006341,-124.603271,-137.847900,-40.954590,34.154297
27280,-9.524135,-6.320693,-0.474052,0.915527,-65.063477,-19.073486,34.177734
27320,-9.236830,-8.298303,1.762132,-52.032471,-83.618164,-83.557129,34.162109
27360,-9.208099,-7.522582,1.283292,19.561768,-15.655518,-61.187744,34.160156
27400,-9.246407,-5.305551,1.580173,34.820557,-11.016846,-81.451416,34.177734
27440,-8.485051,-2.303222,1.168370,31.341553,-78.613281,-68.054199,34.177734
27480,-6.315904,-0.933739,-0.378284,-31.585693,-63.812256,-52.429199,34.164062
27520,-6.713342,-0.794875,0.162806,-40.740967,-54.229736,-42.419434,34.185547
27560,-8.298303,-0.861913,0.536301,-37.811279,-70.007324,-45.867920,34.169922
27600,-9.490616,-0.885855,0.052672,-14.770508,-51.788330,-18.463135,34.201172
27640,-11.549629,-0.555455,0.320823,16.693115,-20.507812,25.878906,34.175781
27680,-13.067553,0.105345,2.102109,-19.592285,-16.510010,33.874512,34.181641
27720,-13.335704,-1.450886,-0.622492,27.648926,-43.792725,82.214355,34.164062
27760,-13.819332,-3.169923,-2.705448,-28.869629,165.710449,100.250244,34.169922
27800,-13.661315,-6.191406,-1.144428,-52.124023,171.630859,71.685791,34.201172
27840,-12.603078,-7.618350,0.306458,-162.200928,90.545654,60.028076,34.171875
27880,-10.855310,-6.497863,0.019154,-149.688721,61.859131,49.194336,34.166016
27920,-8.753201,-3.241749,1.120486,-80.047607,73.333740,59.814453,34.187500
27960,-6.536170,-0.727837,1.173159,-24.871826,45.989990,69.000244,34.189453
28000,-4.668694,-1.268927,0.804452,18.615723,-6.072998,52.886963,34.193359
28040,-4.855441,-1.958457,0.560243,14.373779,-51.483154,12.084961,34.189453
28080,-5.645528,-2.322376,-0.703895,3.082275,-37.139893,-45.562744,34.179688
28120,-6.062119,-3.275268,-2.427721,50.872803,-5.676270,-100.708008,34.166016
28160,-9.979033,-0.258574,-8.216900,14.160156,-32.745361,-41.290283,34.162109
28200,-15.998055,7.876924,-6.770802,-166.595459,-89.172363,19.592285,34.242188
28240,-13.728353,4.443638,-0.919373,-104.766846,21.026611,-72.418213,34.253906
28280,-10.333375,-2.782062,-1.991976,87.615967,-27.557373,38.452148,34.240234
28320,-9.888053,-6.919243,-0.258574,-39.825439,-79.803467,-4.669189,34.244141
28360,-8.470686,-9.165004,1.747767,-40.130615,-20.568848,-53.619385,34.234375
28400,-9.184157,-7.556100,3.136404,19.958496,-12.145996,-46.875000,34.248047
28440,-9.715671,-4.663905,2.394202,-15.380859,-36.773682,-60.333252,34.244141
28480,-9.275137,-2.250550,-0.320823,-4.821777,-40.618896,-55.847168,34.257812
28520,-8.125920,-1.005565,-0.450110,-16.693115,-33.386230,-44.952393,34.257812
28560,-7.934384,-1.307234,1.043872,-20.202637,-31.921387,-46.203613,34.257812
28600,-9.165004,-0.785298,0.392649,-15.319824,-74.951172,-39.794922,34.250000
28640,-10.074800,0.062249,-0.311246,25.848389,-23.803711,5.493164,34.250000
28680,-11.089942,0.344765,0.507571,8.148193,25.238037,4.730225,34.259766
28720,-11.377247,-0.751779,-0.110133,-19.287109,23.590088,11.840820,34.257812
28760,-12.028469,-2.743755,-0.905008,-1.892090,21.148682,63.262939,34.248047
28800,-12.440272,-3.653552,-3.567361,-72.875977,177.337646,87.768555,34.267578
28840,-11.362882,-4.721366,-1.671153,-55.664062,142.517090,53.039551,34.277344
28880,-9.955091,-5.358223,1.862689,-99.182129,33.996582,42.602539,34.287109
28920,-8.825027,-5.856217,1.517924,-41.961670,23.040771,40.985107,34.250000
28960,-8.959103,-3.213019,0.718261,-7.995605,22.308350,29.083252,34.273438
29000,-7.953538,-1.719037,0.675165,22.491455,-8.148193,12.573242,34.279297
29040,-6.162675,-2.236184,0.928950,54.504395,-28.900146,-39.886475,34.279297
29080,-5.928043,-2.284068,-0.435745,55.633545,-34.545898,-104.217529,34.257812
29120,-8.049306,-1.623269,-2.039860,113.342285,-11.901855,-69.824219,34.269531
29160,-11.128249,1.388637,-5.717354,25.909424,-12.420654,21.453857,34.267578
29200,-13.177686,0.837971,1.154005,-2.319336,-27.282715,-7.751465,34.289062
29240,-11.626244,-4.644751,-1.249773,43.548584,24.627686,4.150391,34.259766
29280,-9.686940,-5.214571,0.737414,112.274170,38.482666,-12.756348,34.291016
29320,-8.987833,-4.299986,2.097321,94.512939,-6.774902,-12.268066,34.271484
29360,-9.050082,-3.902549,0.292093,93.963623,-10.528564,-5.554199,34.259766
29400,-8.944737,-2.911349,-0.248997,110.290527,1.800537,-7.202148,34.263672
29440,-7.833828,-1.776498,-0.201113,77.117920,-4.394531,-17.089844,34.300781
29480,-7.685388,-2.202666,0.469264,69.580078,-22.918701,-25.177002,34.300781
29520,-9.543288,-2.293645,0.952892,97.564697,-47.058105,-21.362305,34.273438
29560,-10.582372,-1.446098,0.344765,88.867188,-15.991211,-27.526855,34.273438
29600,-10.228029,-0.766145,0.603339,50.506592,5.310059,-24.047852,34.294922
29640,-9.270349,-1.407791,1.556231,43.518066,-4.638672,-13.824463,34.283203
29680,-9.509769,-2.331953,1.675941,54.870605,-4.821777,-11.657715,34.289062
29720,-12.090718,-1.766921,1.833959,52.032471,-1.403809,6.103516,34.283203
29760,-13.350069,-0.387861,1.115698,60.638428,45.837402,18.585205,34.298828
29800,-11.310209,-1.144428,-2.145205,96.343994,76.202393,54.351807,34.291016
29840,-9.892841,-1.905785,-3.035848,-7.232666,150.482178,24.719238,34.296875
29880,-11.224017,-2.676718,-0.186748,7.476807,143.035889,48.370361,34.296875
29920,-11.405977,-3.227384,1.771709,-37.597656,68.389893,64.117432,34.296875
29960,-10.055647,-3.840300,0.464475,-24.963379,47.943115,73.699951,34.267578
30000,-8.944737,-3.236961,-0.282516,-15.289307,41.198730,71.899414,34.298828
30040,-7.967903,-1.872266,0.143652,-0.976562,10.620117,49.835205,34.273438
30080,-7.388506,-1.091756,0.134075,28.717041,-6.591797,38.513184,34.302734
30120,-6.708553,-1.513135,-0.622492,69.793701,-7.507324,12.969971,34.273438
30160,-6.248867,-2.327164,-1.388637,78.582764,-4.364014,-24.169922,34.335938
30200,-6.785168,-2.422932,-2.398990,83.374023,-2.166748,-45.257568,34.343750
30240,-8.997410,0.205901,-4.515464,21.179199,8.483887,-26.641846,34.339844
30280,-11.046846,1.747767,-5.056554,-18.310547,-5.187988,15.930176,34.337891
30320,-10.036493,0.517148,-3.744531,30.395508,-3.021240,20.385742,34.351562
30360,-8.465898,0.090980,-2.643199,38.665771,-4.913330,-5.462646,34.351562
30400,-8.547300,0.277727,-2.930503,26.092529,-26.336670,-76.110840,34.339844
30440,-12.325351,-2.293645,0.785298,-103.027344,-56.640625,-29.632568,34.332031
30480,-14.834474,-6.349423,-1.029507,-82.733154,-58.074951,-33.386230,34.349609
30520,-11.300632,-6.703765,0.828394,61.065674,-9.490967,-59.844971,34.357422
30560,-6.746861,-6.095637,5.746084,57.739258,-74.890137,-89.477539,34.353516
30600,-6.560112,-5.899313,4.381389,27.465820,10.772705,-6.256104,34.357422
30640,-10.817003,-2.777274,-0.067038,76.599121,-78.369141,-17.547607,34.355469
30680,-9.739613,1.230620,-3.964798,21.575928,-31.127930,6.408691,34.333984
30720,-8.379706,-0.292093,-0.723049,-33.447266,-46.722412,3.143311,34.376953
30760,-7.915231,-3.145981,0.239420,-19.714355,-36.987305,-20.965576,34.349609
30800,-9.169792,-2.485181,-0.397437,-27.679443,-41.534424,-22.491455,34.339844
30840,-9.720459,-1.283292,-0.517148,-52.368164,-35.369873,-0.488281,34.337891
30880,-10.093954,-2.054225,0.541090,-38.299561,-29.785156,-1.770020,34.337891
30920,-11.942278,-0.924162,2.523489,-17.578125,-45.257568,1.464844,34.367188
30960,-14.293385,1.335965,0.100556,35.186768,-115.234375,26.306152,34.371094
31000,-14.623784,1.728614,-2.087744,-2.319336,119.903564,63.171387,34.365234
31040,-12.301409,-1.680730,-2.537854,-19.531250,206.024170,61.309814,34.359375
31080,-11.501745,-5.425261,-0.292093,-50.384521,146.026611,67.291260,34.384766
31120,-11.554418,-6.703765,0.689530,-170.898438,48.583984,68.542480,34.353516
31160,-10.903194,-5.118803,-0.311246,-145.355225,60.150146,84.960938,34.365234
31200,-9.165004,-0.699107,0.866701,-31.127930,53.314209,110.534668,34.380859
31240,-6.148310,-0.057461,0.818817,42.083740,15.411377,96.527100,34.378906
31280,-4.707001,-0.876278,0.076614,71.258545,-7.629395,72.082520,34.359375
31320,-4.879383,-1.589750,-0.603339,34.332275,-30.578613,7.263184,34.373047
31360,-5.085284,-2.269703,-1.810017,53.558350,-8.666992,-54.840088,34.371094
31400,-6.737284,-0.775721,-5.358223,81.878662,4.333496,-58.624268,34.380859
31440,-13.330915,5.228937,-9.102755,-52.246094,-75.500488,33.782959,34.396484
31480,-14.705187,5.554548,-6.047753,34.790039,44.647217,-5.157471,34.392578
31520,-10.601525,1.393425,-0.430956,-120.025635,-5.950928,-163.452148,34.412109
31560,-9.969456,-4.611232,-1.273715,-2.960205,-224.639893,-24.078369,34.373047
31600,-9.179369,-7.354988,-0.928950,-55.908203,-63.354492,-35.675049,34.394531
31640,-9.399636,-7.077260,0.598550,-75.561523,-106.231689,-78.369141,34.386719
31680,-8.767567,-6.521805,0.665588,-31.524658,-60.180664,-75.317383,34.410156
31720,-9.112331,-3.864242,2.260126,47.271729,9.460449,-54.840088,34.386719
31760,-9.160215,-0.612916,2.078167,69.610596,-58.746338,-30.334473,34.392578
31800,-6.746861,-0.158017,-0.397437,-44.433594,-84.716797,-29.937744,34.402344
31840,-6.062119,-1.565808,0.239420,-49.957275,-60.699463,-32.470703,34.408203
31880,-8.686164,-1.872266,1.853112,-18.035889,-73.883057,-36.407471,34.404297
31920,-11.626244,-0.043096,1.307234,-33.050537,-60.485840,4.577637,34.423828
31960,-13.239936,-0.220267,1.010353,-28.594971,-45.989990,21.209717,34.380859
32000,-13.675680,-2.011129,-1.312023,-7.629395,-77.331543,58.990479,34.371094
32040,-14.532804,-1.795651,-2.408567,-96.191406,96.710205,76.934814,34.396484
32080,-13.819332,-3.117251,-2.547431,-131.225586,217.773438,81.787109,34.400391
32120,-13.172897,-4.778827,0.258574,-51.147461,185.760498,73.791504,34.392578
32160,-13.081918,-6.684611,0.186748,-251.617432,25.451660,85.052490,34.472656
32200,-11.836933,-5.837064,-0.536301,-159.637451,83.618164,97.656250,34.460938
32240,-8.968679,-1.896208,1.848324,-39.459229,71.136475,120.788574,34.468750
32280,-5.324705,-0.622492,1.704672,46.966553,42.175293,122.070312,34.457031
32320,-2.681506,-0.847547,1.221043,55.847168,6.225586,77.758789,34.445312
32360,-1.613692,-1.465251,0.129287,54.870605,9.521484,-3.387451,34.462891
32400,-2.820370,-1.877054,-2.887407,136.627197,35.949707,-77.575684,34.451172
32440,-12.502522,4.793192,-10.884041,-4.333496,-50.201416,66.131592,34.480469
32480,-20.317196,8.738836,-12.440272,46.600342,-35.125732,64.819336,34.455078
32520,-15.136143,1.273715,0.014365,-118.743896,13.916016,-58.593750,34.462891
32560,-6.105214,-7.441179,1.436521,-96.069336,4.364014,-240.692139,34.470703
32600,-7.484274,-8.743625,0.732626,-80.780029,-265.716553,-74.493408,34.470703
32640,-7.560889,-6.253655,0.440533,-75.561523,-78.430176,-139.190674,34.486328
32680,-9.888053,-3.677494,1.728614,-31.982422,-73.760986,-145.874023,34.474609
32720,-11.156980,-0.881066,1.249773,32.287598,-17.242432,-94.421387,34.486328
32760,-10.060435,1.580173,-0.272939,77.911377,-42.846680,-40.313721,34.478516
32800,-7.642292,1.450886,-0.426168,2.532959,-50.903320,-31.402588,34.476562
32840,-6.603208,-1.283292,0.526724,-24.475098,-71.075439,-36.529541,34.490234
32880,-8.341399,-2.868254,0.383072,8.697510,-56.823730,-29.968262,34.505859
32920,-12.263102,-1.747767,-0.009577,12.451172,-32.867432,21.911621,34.496094
32960,-15.102624,-0.071826,-1.446098,-21.575928,-47.241211,32.409668,34.496094
33000,-14.585477,0.799663,-3.145981,-104.705811,67.840576,63.934326,34.462891
33040,-13.215993,-1.498770,-1.810017,-97.351074,154.205322,63.842773,34.496094
33080,-13.043611,-3.983952,1.096544,-33.172607,162.414551,82.641602,34.498047
33120,-13.800179,-5.770026,0.742203,-132.141113,72.479248,103.942871,34.500000
33160,-13.010092,-6.186617,-1.254562,-171.783447,61.126709,99.853516,34.527344
33200,-8.614338,-4.319140,1.240196,-92.285156,38.818359,94.146729,34.503906
33240,-5.358223,-1.029507,1.948880,8.819580,-2.716064,115.905762,34.500000
33280,-3.280056,-0.033519,1.470040,112.365723,17.822266,107.666016,34.515625
33320,-2.341529,-1.077391,0.909797,105.682373,-6.896973,36.987305,34.513672
33360,-2.978387,-3.303998,-0.545878,120.910645,19.134521,-51.574707,34.486328
33400,-8.724471,-1.043872,-6.196194,192.718506,28.442383,-33.660889,34.484375
33440,-18.119318,9.141062,-9.533711,-44.097900,-80.841064,49.377441,34.474609
33480,-15.260642,5.276821,-5.995081,11.749268,36.621094,-31.433105,34.492188
33520,-12.028469,-2.068590,0.909797,-94.421387,-56.243896,-108.184814,34.488281
33560,-10.319010,-5.516241,0.287304,45.715332,-36.132812,-15.441895,34.515625
33600,-8.911219,-8.743625,1.503559,-9.826660,-160.400391,-51.727295,34.503906
33640,-8.039729,-6.818686,0.009577,-56.274414,-62.774658,-120.605469,34.486328
33680,-8.465898,-2.987964,0.430956,-12.603760,-15.655518,-138.397217,34.503906
33720,-8.154651,0.220267,0.986411,-37.078857,-86.151123,-138.183594,34.523438
33760,-6.124368,-0.028730,0.746991,18.524170,-59.631348,-59.906006,34.505859
33800,-6.143522,-0.632069,0.646434,17.639160,-42.449951,-47.668457,34.490234
33840,-8.236053,-0.914585,0.282516,17.181396,-44.219971,-35.278320,34.519531
33880,-9.854534,-2.111686,0.296881,67.626953,-35.186768,-17.303467,34.492188
33920,-12.071565,-2.255338,0.292093,0.305176,-11.260986,7.324219,34.501953
33960,-14.652514,-1.920150,1.283292,-20.172119,-18.157959,24.932861,34.535156
34000,-16.021997,-0.545878,-1.877054,-22.491455,34.454346,67.108154,34.490234
34040,-15.049952,-1.144428,-2.432509,-61.676025,173.370361,63.903809,34.517578
34080,-13.101071,-3.294421,-1.197101,-46.203613,195.648193,91.186523,34.513672
34120,-11.942278,-7.503428,0.205901,-86.059570,101.745605,132.781982,34.585938
34160,-11.631032,-6.215348,-1.288081,-131.530762,72.052002,95.916748,34.566406
34200,-9.385271,-2.245761,0.962469,-93.750000,58.715820,104.614258,34.566406
34240,-5.616797,-0.430956,1.944092,9.002686,27.099609,120.330811,34.556641
34280,-2.609680,-0.407014,1.762132,93.627930,27.648926,100.769043,34.562500
34320,-2.135628,-0.881066,0.976834,92.010498,-1.922607,45.532227,34.593750
34360,-3.471592,-2.796427,-1.024718,142.120361,-3.143311,-32.501221,34.595703
34400,-9.998186,0.536301,-8.523358,138.519287,3.723145,14.007568,34.593750
34440,-17.085024,9.366117,-12.105083,-21.606445,-46.325684,30.456543,34.583984
34480,-12.828133,4.304775,-7.785944,36.437988,68.817139,-30.364990,34.576172
34520,-9.768343,-1.795651,1.513135,-231.933594,-103.302002,-190.612793,34.572266
34560,-9.931149,-5.372589,-2.609680,-74.432373,-96.496582,-8.850098,34.607422
34600,-9.854534,-6.914454,0.454898,-55.633545,-139.678955,-60.821533,34.595703
34640,-8.983045,-5.951985,0.335188,-83.282471,-139.221191,-113.769531,34.585938
34680,-8.025364,-3.653552,1.369483,-13.244629,-12.451172,-107.696533,34.593750
34720,-7.977480,-0.814029,1.709460,23.651123,-6.469727,-95.886230,34.574219
34760,-7.015011,0.282516,0.646434,25.665283,-70.617676,-63.446045,34.587891
34800,-5.841852,-0.952892,0.325611,2.990723,-43.670654,-53.955078,34.587891
34840,-8.221688,-1.441309,0.866701,9.216309,-53.344727,-60.882568,34.595703
34880,-11.080365,-0.612916,-0.320823,2.471924,-27.160645,-32.501221,34.591797
34920,-13.239936,-0.531513,-1.225831,-33.508301,-17.547607,-9.033203,34.585938
34960,-14.341269,-0.560243,-0.675165,-15.045166,14.984131,21.545410,34.574219
35000,-14.101848,0.387861,-3.706224,-7.171631,23.010254,60.668945,34.605469
35040,-13.522451,-0.775721,-3.739743,-119.323730,162.445068,70.892334,34.593750
35080,-13.431472,-3.462016,1.091756,-63.293457,174.102783,87.463379,34.595703
35120,-14.116213,-7.493851,0.804452,-41.046143,8.361816,141.448975,34.585938
35160,-12.526464,-6.756437,-1.824382,-206.787109,45.928955,77.789307,34.591797
35200,-9.346964,-2.494758,1.474828,-50.476074,37.078857,94.421387,34.582031
35240,-5.722142,-0.316035,2.260126,55.328369,33.325195,124.023438,34.601562
35280,-2.149993,-0.905008,2.044648,113.616943,34.820557,76.812744,34.603516
35320,-0.641646,-1.604115,0.598550,152.099609,69.824219,12.359619,34.607422
35360,-2.882619,-3.433285,-2.078167,201.690674,-20.050049,-66.741943,34.597656
35400,-14.030022,4.525041,-11.142614,-22.583008,-54.687500,85.479736,34.603516
35440,-17.429789,8.264784,-10.108319,-7.385254,61.614990,-23.925781,34.593750
35480,-13.809755,1.005565,-1.795651,-171.203613,-40.222168,-133.575439,34.625000
35520,-11.104307,-5.750873,-0.129287,80.841064,-118.652344,22.552490,34.585938
35560,-8.825027,-7.857770,-0.004788,-69.641113,-130.432129,-66.528320,34.601562
35600,-8.532935,-7.115568,1.120486,-15.472412,-67.626953,-123.321533,34.601562
35640,-8.863335,-3.174711,0.407014,13.732910,-3.356934,-103.576660,34.597656
35680,-8.149862,-0.210690,1.886631,-24.444580,-46.325684,-106.994629,34.619141
35720,-5.956774,-1.321599,2.700660,-14.373779,-147.491455,-106.048584,34.617188
35760,-5.195418,-1.829170,-0.229843,39.398193,-120.513916,-29.113770,34.611328
35800,-6.761226,-1.604115,-1.441309,-10.467529,-34.515381,-60.211182,34.599609
35840,-9.988609,-1.795651,0.076614,-24.475098,-10.131836,-52.917480,34.603516
35880,-13.105860,-2.231396,1.302446,31.524658,27.893066,14.190674,34.597656
35920,-15.188815,-1.115698,1.685518,-7.629395,1.678467,18.035889,34.623047
35960,-14.863204,-0.325611,-1.359907,56.610107,-30.578613,61.676025,34.625000
36000,-13.848063,-0.751779,-3.222595,-86.578369,148.193359,69.152832,34.603516
36040,-13.005303,-2.202666,-0.723049,-55.358887,173.217773,79.437256,34.632812
36080,-12.454638,-5.817910,1.814805,-59.783936,104.675293,99.487305,34.628906
36120,-12.435484,-6.258443,-0.799663,-70.587158,74.493408,132.476807,34.666016
36160,-10.975020,-2.667141,0.526724,-60.180664,42.541504,97.473145,34.675781
36200,-7.048530,-1.235408,1.613692,4.180908,35.186768,96.862793,34.699219
36240,-3.452439,-1.977611,2.044648,92.681885,48.065186,67.199707,34.683594
36280,-2.782062,-1.647211,1.489193,89.080811,12.329102,44.189453,34.685547
36320,-2.973598,-3.179500,-1.134852,83.984375,6.744385,-21.697998,34.669922
36360,-6.651093,-2.494758,-6.876147,204.498291,50.903320,8.239746,34.689453
36400,-15.073894,7.034164,-10.108319,-45.166016,-30.364990,52.124023,34.689453
36440,-14.063540,5.535394,-8.240842,84.777832,66.589355,1.220703,34.677734
36480,-10.769119,-0.095768,-2.686294,-167.663574,-83.587646,-101.928711,34.675781
36520,-10.060435,-4.850653,-1.479617,-128.051758,-78.338623,-99.090576,34.689453
36560,-10.812215,-4.659117,1.776498,-7.293701,-120.117188,-29.144287,34.699219
36600,-8.939949,-5.717354,0.464475,-54.199219,-116.821289,-88.165283,34.666016
36640,-8.221688,-5.018247,1.110910,15.533447,-65.612793,-105.468750,34.673828
36680,-8.681376,-2.806004,1.656788,40.100098,-5.645752,-112.182617,34.687500
36720,-9.284714,0.253785,-0.239420,42.572021,-73.059082,-59.020996,34.689453
36760,-7.153875,0.536301,-1.321599,-9.765625,-70.373535,-29.235840,34.695312
36800,-5.937620,-2.044648,-0.641646,-26.763916,-55.206299,-38.208008,34.681641
36840,-8.034941,-2.317587,0.124498,8.148193,-50.476074,-44.342041,34.693359
36880,-10.481815,-1.192312,0.344765,31.799316,-41.198730,-11.291504,34.671875
36920,-12.775460,-0.526724,1.407791,19.989014,-27.923584,-0.183105,34.685547
36960,-14.250289,-0.569820,2.126051,-23.223877,-29.876709,12.420654,34.685547
37000,-14.480132,-1.431733,-2.983175,-53.283691,-30.242920,48.645020,34.689453
37040,-14.460979,-0.244209,-4.146757,-134.399414,175.323486,83.892822,34.693359
37080,-13.364434,-1.824382,-0.397437,-79.071045,156.280518,77.728271,34.707031
37120,-11.875240,-6.789956,1.829170,-58.624268,77.362061,79.681396,34.691406
37160,-11.865664,-6.459556,-0.737414,-190.551758,30.517578,74.829102,34.705078
37200,-10.654198,-2.346318,1.221043,-107.543945,29.998779,100.219727,34.699219
37240,-6.794744,-0.981623,2.097321,29.754639,41.076660,100.433350,34.687500
37280,-3.208230,-1.814805,1.699883,98.358154,42.968750,71.289062,34.703125
37320,-2.193089,-2.164358,1.058237,115.722656,18.493652,32.867432,34.712891
37360,-2.839523,-3.495534,-0.976834,122.070312,30.822754,-30.090332,34.685547
37400,-8.078036,-0.914585,-6.866570,173.431396,32.104492,-1.586914,34.701172
37440,-17.707516,8.552089,-9.619903,-68.115234,-64.239502,46.020508,34.693359
37480,-14.575900,5.233725,-6.670246,25.756836,78.460693,-46.844482,34.695312
37520,-11.377247,-0.909797,2.178724,-123.687744,-51.574707,-132.141113,34.697266
37560,-9.993398,-4.577713,-1.517924,103.088379,-101.104736,41.595459,34.714844
37600,-8.623915,-6.876147,-0.421380,-33.050537,-107.940674,-56.762695,34.708984
37640,-8.427590,-6.718130,0.952892,-13.275146,-81.634521,-99.975586,34.708984
37680,-8.087613,-4.510676,1.393425,38.574219,-12.634277,-99.243164,34.730469
37720,-8.853758,-1.379060,1.915361,3.662109,-84.472656,-99.487305,34.732422
37760,-7.201759,-0.311246,-0.478840,45.501709,-94.604492,-21.545410,34.712891
37800,-5.037400,-2.054225,-0.799663,-16.113281,-48.889160,-58.563232,34.734375
37840,-6.847417,-2.561796,0.804452,10.742188,-29.937744,-72.113037,34.734375
37880,-10.414778,-1.393425,1.034295,31.219482,-32.592773,-33.386230,34.693359
37920,-12.646173,-1.024718,0.593762,36.193848,17.303467,6.469727,34.732422
37960,-13.996503,-0.890643,1.216254,-13.427734,0.488281,13.885498,34.705078
38000,-13.742718,-1.580173,-0.603339,27.862549,-22.216797,40.924072,34.722656
38040,-13.924677,-0.909797,-3.394978,-83.557129,118.194580,66.162109,34.705078
38080,-13.479356,-0.885855,-2.260126,-101.501465,182.983398,79.437256,34.767578
38120,-13.053187,-4.161122,2.126051,-82.916260,92.956543,75.256348,34.769531
38160,-11.540052,-7.680599,0.090980,-80.474854,27.252197,123.138428,34.761719
38200,-10.261548,-5.046977,-0.172383,-127.777100,28.411865,59.783936,34.791016
38240,-8.652645,-0.426168,1.915361,-5.218506,15.167236,104.492188,34.777344
38280,-4.960786,-1.187524,1.810017,91.339111,33.508301,91.613770,34.769531
38320,-2.619257,-2.355895,1.479617,130.645752,35.186768,42.999268,34.771484
38360,-2.973598,-2.624045,-0.114922,112.274170,27.862549,-11.077881,34.779297
38400,-4.764462,-3.825934,-3.533842,156.280518,41.381836,-72.998047,34.785156
38440,-12.885593,2.585738,-10.400413,-22.705078,-24.291992,52.642822,34.804688
38480,-16.797720,7.551312,-7.843405,9.277344,34.362793,19.073486,34.794922
38520,-12.248735,2.154782,-2.806004,-77.606201,-45.928955,-111.297607,34.796875
38560,-9.811439,-3.854665,1.015141,61.004639,-146.759033,-24.749756,34.787109
38600,-8.896853,-5.793968,-1.403002,22.277832,-39.337158,-19.226074,34.814453
38640,-8.978256,-7.618350,0.445322,-6.774902,-71.166992,-84.838867,34.787109
38680,-8.307879,-7.388506,0.105345,32.684326,-8.422852,-104.156494,34.785156
38720,-9.265560,-5.042189,0.905008,60.272217,-5.157471,-93.139648,34.792969
38760,-9.816227,-0.684742,1.522712,47.607422,-92.742920,-59.875488,34.767578
38800,-6.727707,-0.090980,-0.794875,17.639160,-102.020264,-43.029785,34.806641
38840,-5.473145,-1.517924,-1.221043,7.232666,-51.971436,-35.003662,34.794922
38880,-8.283937,-1.915361,-0.301669,26.855469,-100.982666,-27.709961,34.787109
38920,-10.821792,-1.264138,-0.790087,-2.319336,-78.765869,-25.268555,34.781250
38960,-12.330139,-0.775721,0.440533,32.989502,12.939453,9.613037,34.794922
39000,-13.316550,-1.302446,1.010353,-20.782471,-43.731689,28.747559,34.771484
39040,-14.283808,-1.699883,-0.569820,-97.290039,17.578125,70.159912,34.785156
39080,-14.978126,-1.470040,-2.839523,-213.317871,188.568115,101.898193,34.810547
39120,-14.020445,-3.074155,-1.465251,-39.031982,230.072021,1.220703,34.804688
39160,-11.841722,-7.053318,0.416591,4.577637,96.923828,86.120605,34.798828
39200,-12.076353,-8.944737,-1.168370,-92.864990,166.168213,24.291992,34.808594
39240,-8.633492,-4.185065,-0.670376,-18.737793,20.721436,14.465332,34.800781
39280,-4.711789,0.009577,0.679953,55.847168,8.605957,134.429932,34.810547
39320,-3.236961,-1.948880,1.168370,36.834717,-38.726807,106.689453,34.816406
39360,-2.892196,-2.346318,0.454898,85.540771,-13.183594,34.545898,34.796875
39400,-2.193089,-3.529053,-0.785298,79.315186,19.927979,-10.345459,34.814453
39440,-6.028600,-2.451663,-5.200206,35.522461,-68.298340,93.536377,34.820312
39480,-19.220652,9.749189,-9.883265,-61.920166,-62.530518,100.372314,34.800781
39520,-14.216769,5.793968,-6.459556,37.841797,2.166748,-12.603760,34.802734
39560,-10.577583,-1.125275,2.461239,-33.233643,79.254150,-76.904297,34.826172
39600,-8.825027,-5.985504,-1.527501,-52.795410,-241.546631,-29.571533,34.826172
39640,-8.159439,-8.518570,0.210690,94.360352,-57.495117,-120.391846,34.812500
39680,-10.931925,-6.789956,2.509123,97.778320,-103.576660,-117.584229,34.816406
39720,-9.471462,-3.988740,3.615245,-26.977539,95.489502,-33.630371,34.820312
39760,-9.524135,-0.737414,1.939303,183.654785,-127.838135,3.997803,34.812500
39800,-7.292738,2.346318,1.321599,168.884277,-192.840576,-37.292480,34.822266
39840,-6.775591,0.995988,0.272939,-67.291260,-91.461182,22.277832,34.806641
39880,-8.528147,-0.320823,0.172383,-52.307129,-65.429688,-12.054443,34.816406
39920,-9.533711,-0.296881,-0.062249,-12.756348,-64.025879,-23.742676,34.812500
39960,-10.505757,0.368707,0.478840,17.822266,-19.989014,-15.441895,34.839844
40000,-12.334928,0.718261,2.173935,-50.018311,-5.310059,19.348145,34.820312
40040,-13.728353,1.891419,-0.325611,74.645996,148.040771,14.801025,34.820312
40080,-14.374787,1.498770,-3.600879,-128.143311,180.236816,74.462891,34.867188
40120,-12.938266,0.086191,-0.244209,-67.657471,245.910645,98.846436,34.875000
40160,-14.805743,-2.944868,3.213019,-16.235352,42.175293,53.619385,34.886719
40200,-18.612524,-7.216124,-1.795651,-22.705078,76.263428,-15.686035,34.859375
40240,-8.944737,-6.718130,0.780510,6.225586,-18.524170,46.661377,34.867188
40280,-6.967127,1.810017,3.045424,-1.922607,125.793457,97.564697,34.898438
40320,-6.574478,0.780510,2.810793,200.897217,58.471680,84.411621,34.886719
40360,-1.106121,-2.293645,3.174711,82.977295,45.562744,57.128906,34.876953
40400,0.392649,-3.615245,0.497994,73.852539,-55.145264,-0.274658,34.873047
40440,-4.007894,-3.945644,-1.532289,117.309570,-44.647217,-34.179688,34.878906
40480,-19.373880,7.096414,-13.000515,-31.280518,19.958496,95.947266,34.880859
40520,-13.891158,6.651093,-10.002975,66.253662,-36.010742,-6.896973,34.867188
40560,-7.680599,-0.857124,1.819593,-33.874512,-96.466064,-108.520508,34.912109
40600,-14.475344,-5.832275,2.557007,-367.492676,-140.747070,-65.673828,34.884766
40640,-10.007763,-7.354988,0.201113,-51.116943,-138.366699,-47.698975,34.882812
40680,-9.246407,-5.861006,1.589750,116.851807,111.328125,-103.179932,34.892578
40720,-11.166556,-2.489970,1.800440,211.029053,125.976562,-36.407471,34.876953
40760,-10.855310,1.331176,0.871489,239.746094,-170.837402,0.885010,34.888672
40800,-6.449979,2.389413,0.258574,194.915771,-121.795654,-4.058838,34.902344
40840,-4.999093,0.459687,0.067038,67.504883,-107.604980,25.604248,34.896484
40880,-6.727707,-1.134852,1.053449,-205.993652,-120.605469,27.282715,34.896484
40920,-9.366117,-1.086968,1.838747,-204.101562,-78.765869,20.538330,34.886719
40960,-12.157756,-0.378284,-1.446098,164.825439,-7.843018,-41.992188,34.914062
41000,-13.804967,2.700660,0.038307,45.898438,-18.188477,17.028809,34.908203
41040,-14.393941,1.896208,-2.264915,-125.885010,70.312500,61.065674,34.884766
41080,-14.279019,-0.114922,-3.960010,-189.575195,219.543457,75.286865,34.902344
41120,-12.876017,-1.704672,-0.057461,4.425049,237.640381,49.926758,34.910156
41160,-15.318103,-5.961562,3.581726,-68.298340,42.907715,-14.862061,34.900391
41200,-16.864758,-4.730943,0.287304,-7.232666,103.668213,31.005859,34.908203
41240,-12.028469,2.240973,0.699107,-115.905762,114.776611,80.963135,34.917969
41280,-6.871359,-0.435745,1.513135,51.116943,81.207275,66.345215,34.933594
41320,-2.901772,-2.035071,3.337517,86.822510,60.974121,62.683105,34.896484
41360,-0.770933,-2.130840,2.437297,77.819824,-4.364014,47.760010,34.917969
41400,-0.814029,-2.446874,-0.114922,72.601318,-75.744629,-8.789062,34.902344
41440,-6.143522,-1.838747,-2.968810,173.675537,-75.683594,-32.897949,34.925781
41480,-19.766529,8.073248,-13.072341,-24.932861,3.173828,57.952881,34.917969
41520,-13.991714,3.165135,-9.184157,79.193115,-35.491943,-13.275146,34.921875
41560,-14.111424,-1.513135,1.374272,-130.035400,-23.834229,-33.081055,34.921875
41600,-7.082048,-4.754885,2.451663,-123.229980,-92.681885,-8.850098,34.947266
41640,-8.451532,-8.489840,2.422932,-131.103516,-172.363281,-99.578857,34.945312
41680,-9.639056,-5.343858,2.695871,-60.913086,13.061523,-120.452881,34.917969
41720,-11.702858,-1.862689,2.906561,149.475098,211.822510,-28.411865,34.912109
41760,-11.099519,3.083732,1.292869,359.405518,-220.092773,-34.149170,34.935547
41800,-7.311892,2.418144,-1.340753,-105.926514,-78.460693,-13.793945,34.921875
41840,-6.272809,1.297657,-2.035071,143.035889,-137.298584,-6.805420,34.929688
41880,-7.144298,0.593762,0.100556,36.407471,-82.702637,-9.338379,34.937500
41920,-8.935161,-1.254562,0.253785,-88.043213,-67.962646,-6.103516,34.935547
41960,-11.631032,-0.933739,-0.536301,45.471191,24.841309,-12.695312,34.941406
42000,-13.560759,2.197877,1.034295,5.157471,-23.284912,25.573730,34.923828
42040,-14.915876,1.493982,-3.098097,-123.168945,100.006104,52.978516,35.001953
42080,-14.211981,0.450110,-3.811569,-230.529785,241.302490,95.764160,35.001953
42120,-13.067553,-2.044648,1.968034,109.680176,208.160400,39.489746,34.980469
42160,-16.510414,-6.047753,1.283292,-129.302979,36.590576,-16.479492,35.001953
42200,-15.150508,-1.857901,0.191536,-6.866455,65.826416,109.161377,34.982422
42240,-10.448297,2.193089,1.230620,-10.711670,78.582764,87.554932,34.988281
42280,-5.530606,-0.861913,2.475605,96.954346,60.577393,64.086914,34.980469
42320,-2.408567,-2.231396,3.466804,92.681885,17.364502,58.502197,34.990234
42360,-0.699107,-2.585738,1.781286,78.552246,-46.722412,31.097412,35.000000
42400,-1.934515,-3.840300,-0.464475,80.017090,-72.631836,-31.036377,34.986328
42440,-10.127473,-0.584185,-5.142745,91.156006,63.751221,-9.735107,35.001953
42480,-19.033903,8.748413,-13.101071,-7.507324,-43.609619,49.835205,34.994141
42520,-13.326127,4.386178,-5.185841,46.356201,-68.389893,-24.169922,35.019531
42560,-14.336480,-0.866701,3.380613,-175.384521,32.714844,-25.604248,35.005859
42600,-6.603208,-7.738060,1.771709,-130.767822,-189.270020,-5.889893,35.017578
42640,-8.125920,-9.270349,2.255338,-112.884521,-98.663330,-115.997314,35.027344
42680,-9.634268,-4.917690,2.513912,-100.952148,78.399658,-113.922119,35.005859
42720,-12.579136,-1.532289,2.212242,400.817871,96.099854,-23.437500,34.996094
42760,-9.078813,3.500323,0.952892,405.456543,-173.645020,-23.925781,35.005859
42800,-6.363788,2.729390,-1.498770,-32.409668,-106.903076,11.657715,35.021484
42840,-6.991069,1.661576,-1.125275,66.680908,-120.666504,12.268066,35.037109
42880,-8.212111,0.253785,0.627281,-64.544678,-102.203369,18.798828,35.000000
42920,-10.137050,-1.278504,-0.124498,-85.662842,-31.951904,0.061035,35.029297
42960,-12.545617,-0.976834,-0.363919,-19.195557,-1.220703,6.378174,34.998047
43000,-13.340492,1.972822,0.148441,-33.111572,7.629395,36.682129,35.017578
43040,-13.795390,0.976834,-4.295198,-184.936523,146.179199,63.964844,35.042969
43080,-12.660539,-1.077391,-2.485181,-34.423828,255.798340,63.537598,35.013672
43120,-13.862428,-3.356671,2.868254,98.388672,142.303467,6.195068,35.013672
43160,-18.928558,-5.770026,0.225055,-208.618164,36.376953,41.656494,35.023438
43200,-14.322115,-0.871489,0.114922,-106.719971,71.258545,103.454590,35.019531
43240,-8.427590,0.162806,1.024718,-1.434326,60.485840,62.622070,35.019531
43280,-4.453215,-1.642422,2.456451,74.005127,25.665283,54.901123,35.035156
43320,-1.556231,-1.738190,3.615245,109.405518,17.944336,51.757812,35.041016
43360,-0.253785,-1.115698,1.000776,55.175781,-29.022217,15.228271,35.009766
43400,-2.576161,-2.489970,-1.072602,105.865479,-63.720703,-41.229248,35.027344
43440,-12.473791,2.059013,-8.245630,100.860596,119.659424,27.374268,35.029297
43480,-17.223886,7.536947,-13.254301,-25.817871,-41.351318,19.439697,35.023438
43520,-8.801085,-0.890643,-4.759673,42.663574,-63.934326,-39.764404,35.037109
43560,-13.785813,-3.155558,1.939303,-255.401611,-41.931152,-44.616699,35.031250
43600,-10.840945,-4.922479,2.035071,-152.954102,-164.123535,-28.259277,35.031250
43640,-9.897630,-5.942409,2.628834,-59.600830,-41.107178,-120.544434,35.046875
43680,-10.663774,-2.887407,3.002329,81.420898,160.797119,-92.864990,35.035156
43720,-12.880805,1.537078,1.848324,302.581787,-79.010010,-18.127441,35.017578
43760,-8.159439,2.106898,0.536301,196.899414,-110.992432,-5.187988,35.019531
43800,-4.836287,0.799663,-0.689530,99.822998,-86.303711,26.580811,35.052734
43840,-5.386954,0.105345,-0.009577,-92.498779,-133.392334,19.195557,35.039062
43880,-7.982268,-1.077391,1.005565,-288.665771,-166.503906,12.634277,35.027344
43920,-10.611102,-1.259350,-2.686294,162.567139,-99.487305,-58.227539,35.048828
43960,-12.756307,1.656788,-1.426944,25.360107,-33.996582,-6.195068,35.056641
44000,-14.580688,4.041412,-2.427721,-132.812500,28.839111,49.499512,35.041016
44040,-15.514427,2.662352,-4.414908,-74.645996,199.707031,61.370850,35.093750
44080,-14.437037,0.478840,-1.268927,-83.984375,282.318115,85.998535,35.072266
44120,-17.563864,-4.314352,2.964022,-2.716064,164.398193,-24.871826,35.105469
44160,-21.720198,-8.135497,-1.613692,-37.567139,28.625488,45.745850,35.101562
44200,-16.338032,2.217031,2.039860,-132.476807,145.050049,186.920166,35.085938
44240,-9.706094,0.368707,2.671929,177.307129,150.177002,126.770020,35.083984
44280,-3.696647,-2.442086,5.185841,191.223145,146.606445,102.752686,35.083984
44320,2.106898,-3.485958,2.422932,132.995605,27.587891,51.422119,35.097656
44360,3.217807,-3.380613,-1.546654,196.960449,16.113281,5.523682,35.091797
44400,-5.664681,4.156334,-10.376471,12.237549,1.464844,127.593994,35.087891
44440,-23.060951,10.065224,-18.152838,155.273438,84.014893,-32.623291,35.087891
44480,-20.647596,2.475605,-1.795651,-131.866455,-62.652588,46.691895,35.107422
44520,2.624045,-12.488156,0.756568,-1.983643,-222.412109,-56.457520,35.089844
44560,-1.355118,-10.788273,5.717354,-214.233398,-177.825928,-176.361084,35.082031
44600,-14.432248,-3.596091,7.694964,-105.743408,-137.542725,-104.858398,35.085938
44640,-16.721106,4.932055,1.288081,-426.788330,-168.670654,-116.180420,35.101562
44680,-15.030798,5.133168,-2.820370,56.091309,-10.375977,-77.667236,35.121094
44720,-10.515334,3.337517,-3.165135,356.964111,19.653320,-83.709717,35.103516
44760,-7.283162,2.207454,-0.569820,307.403564,-35.858154,-59.295654,35.082031
44800,-6.598420,2.365471,0.325611,173.126221,-111.511230,-22.338867,35.095703
44840,-7.110779,2.011129,0.426168,184.112549,-141.021729,-10.223389,35.107422
44880,-8.456321,-1.675941,1.680730,40.557861,-118.011475,-2.685547,35.105469
44920,-8.547300,-2.762909,2.154782,-6.774902,-37.231445,6.805420,35.085938
44960,-10.084377,1.173159,2.049437,113.830566,-8.514404,-3.723145,35.087891
45000,-12.775460,0.569820,-1.671153,-3.204346,143.463135,4.516602,35.105469
45040,-14.202404,-0.057461,-2.571373,-45.715332,139.587402,26.977539,35.095703
45080,-13.560759,0.995988,-0.708684,-16.540527,225.921631,40.252686,35.111328
45120,-14.666880,-3.131616,3.634398,45.684814,123.504639,35.980225,35.091797
45160,-15.184027,-4.850653,1.752556,-138.458252,91.522217,44.403076,35.109375
45200,-11.176133,-0.646434,0.033519,-81.268311,101.684570,92.803955,35.105469
45240,-8.044518,0.708684,0.900220,-19.866943,65.063477,87.677002,35.111328
45280,-6.382942,-0.742203,1.958457,111.755371,88.867188,68.603516,35.125000
45320,-4.017470,-1.647211,1.833959,83.831787,37.353516,52.429199,35.113281
45360,-2.365471,-2.370260,0.512359,47.637939,-59.173584,29.571533,35.115234
45400,-2.743755,-2.815581,-0.670376,58.898926,-114.410400,-13.916016,35.125000
45440,-8.451532,-0.047884,-4.534618,115.600586,-37.445068,-39.093018,35.109375
45480,-19.153614,8.159439,-13.378799,74.645996,1.525879,40.588379,35.111328
45520,-15.140931,2.983175,-7.996634,41.046143,1.007080,21.636963,35.101562
45560,-12.574347,-3.074155,1.513135,-163.116455,-20.385742,-12.786865,35.105469
45600,-4.821922,-8.552089,4.060566,-130.523682,-98.724365,-40.222168,35.107422
45640,-9.744401,-10.031705,3.845088,-10.772705,-182.647705,-125.701904,35.115234
45680,-10.998962,-3.102885,4.692636,15.197754,-43.029785,-128.631592,35.126953
45720,-13.235147,2.657564,3.596091,-127.197266,-49.285889,-7.598877,35.117188
45760,-10.663774,3.442862,-1.197101,-27.526855,-80.535889,-24.475098,35.130859
45800,-6.636727,1.690306,-2.183512,133.575439,-54.321289,-21.270752,35.136719
45840,-6.272809,2.140416,-0.014365,84.289551,-92.010498,-4.394531,35.115234
45880,-8.082825,1.125275,0.962469,-60.638428,-100.006104,7.904053,35.123047
45920,-9.509769,-1.091756,0.847547,-123.870850,-39.978027,-1.373291,35.123047
45960,-11.760319,-1.604115,0.588974,40.954590,16.082764,-21.270752,35.140625
46000,-14.207192,2.547431,-1.790863,87.707520,22.216797,16.967773,35.177734
46040,-16.036364,4.017470,-3.198653,-128.326416,183.563232,86.822510,35.160156
46080,-15.203181,-0.761356,-2.183512,206.695557,215.759277,32.836914,35.181641
46120,-15.629349,-7.838616,2.743755,-25.665283,115.020752,-14.923096,35.173828
46160,-16.496050,-4.635174,1.177947,-192.718506,79.071045,37.841797,35.183594
46200,-11.784261,0.349553,1.493982,-72.814941,137.054443,103.881836,35.193359
46240,-7.541735,0.545878,2.422932,87.768555,135.925293,62.042236,35.164062
46280,-3.667917,-0.071826,2.432509,98.083496,81.146240,51.513672,35.169922
46320,-0.502782,-1.417367,2.135628,43.518066,-0.244141,43.151855,35.183594
46360,-0.565032,-2.207454,0.272939,48.004150,-70.983887,21.606445,35.197266
46400,-3.744531,-2.370260,-2.188300,132.293701,-67.291260,-29.541016,35.177734
46440,-16.093824,2.954445,-13.402741,-68.054199,-40.679932,38.482666,35.197266
46480,-15.265430,6.871359,-11.401189,65.856934,-21.118164,2.563477,35.208984
46520,-8.643068,1.086968,-0.335188,-28.533936,-95.886230,-26.702881,35.203125
46560,-12.569559,-4.276044,3.462016,-374.908447,-33.111572,-21.057129,35.218750
46600,-9.519346,-8.504205,-0.914585,-39.428711,-135.070801,-70.373535,35.179688
46640,-9.988609,-6.200983,2.968810,72.998047,-111.755371,-114.929199,35.216797
46680,-11.745954,-1.254562,3.653552,-219.604492,6.408691,-67.382812,35.191406
46720,-11.947066,0.268151,3.045424,120.758057,64.270020,-19.500732,35.183594
46760,-8.216900,3.141193,0.699107,-49.865723,-228.881836,-18.615723,35.226562
46800,-6.133945,1.905785,-1.460463,-17.578125,-52.215576,-14.495850,35.207031
46840,-6.852205,1.144428,-0.679953,-0.701904,-85.571289,-7.415771,35.199219
46880,-8.494628,-1.312023,-0.632069,40.527344,-63.537598,-36.315918,35.197266
46920,-10.639832,-1.977611,-0.004788,95.916748,-12.390137,-51.727295,35.218750
46960,-12.799402,2.169147,1.561020,-123.962402,-20.416260,19.287109,35.207031
47000,-13.790602,3.059790,-1.819593,51.910400,33.325195,37.414551,35.222656
47040,-14.326903,0.038307,-3.375824,-74.981689,190.063477,75.622559,35.191406
47080,-13.014880,-1.403002,-2.748544,29.785156,292.114258,85.510254,35.195312
47120,-13.192051,-3.610456,1.776498,-2.990723,195.556641,66.650391,35.222656
47160,-15.892711,-4.146757,-0.392649,-325.897217,-54.443359,-0.152588,35.218750
47200,-11.693281,-0.450110,-1.795651,58.288574,76.812744,61.889648,35.212891
47240,-9.878476,3.409343,0.713472,57.098389,104.492188,88.043213,35.226562
47280,-6.071695,-0.349553,2.365471,143.890381,49.041748,49.621582,35.226562
47320,-2.619257,-1.570596,3.059790,50.323486,-36.254883,27.008057,35.214844
47360,-0.842759,-3.442862,0.565032,24.597168,-91.308594,5.981445,35.205078
47400,-3.457227,-3.193865,-2.370260,58.105469,-63.812256,-12.481689,35.207031
47440,-16.122555,7.867347,-9.270349,73.883057,2.319336,27.191162,35.228516
47480,-15.169662,7.441179,-9.227253,17.944336,12.512207,-19.317627,35.220703
47520,-11.702858,-0.588974,-2.226608,44.464111,-58.990479,-58.349609,35.222656
47560,-10.347740,-2.533065,3.648763,-101.226807,56.030273,-55.664062,35.228516
47600,-8.255207,-4.668694,2.063802,70.281982,-147.277832,-109.558105,35.214844
47640,-10.615891,-3.821146,2.691083,73.577881,-145.233154,-94.604492,35.203125
47680,-11.717223,-0.866701,3.069367,23.529053,56.549072,-44.738770,35.216797
47720,-11.429919,0.895431,-0.430956,-78.399658,-31.250000,1.983643,35.226562
47760,-7.589619,-0.727837,-3.102885,200.286865,-68.939209,-57.647705,35.230469
47800,-5.985504,0.253785,-1.929727,381.408691,-117.248535,-77.270508,35.207031
47840,-6.177041,1.403002,0.627281,265.228271,-78.430176,-45.593262,35.222656
47880,-7.723695,-0.028730,2.896984,128.631592,-72.021484,-27.465820,35.226562
47920,-9.868899,-1.355118,2.327164,-77.056885,-12.695312,2.777100,35.220703
47960,-13.254301,0.335188,-0.349553,-140.441895,27.160645,43.365479,35.244141
48000,-13.632585,2.092532,-1.168370,-152.160645,75.622559,55.328369,35.236328
48040,-14.298173,0.220267,-5.382165,-208.862305,184.539795,100.677490,35.210938
48080,-13.527240,-1.786075,-3.495534,79.772949,273.925781,77.514648,35.240234
48120,-14.231135,-5.027823,2.475605,-123.413086,146.606445,42.755127,35.228516
48160,-15.385140,-4.376601,-1.197101,-247.589111,-51.727295,51.513672,35.251953
48200,-11.314998,1.268927,-1.680730,76.354980,27.740479,64.361572,35.285156
48240,-8.987833,2.274492,1.632846,45.196533,69.366455,110.443115,35.259766
48280,-5.348647,-1.015141,3.026271,80.444336,34.851074,63.171387,35.283203
48320,-2.825158,-1.628057,2.173935,109.924316,-0.793457,24.719238,35.259766
48360,-1.063026,-3.529053,0.814029,72.662354,-71.380615,8.209229,35.277344
48400,-4.003105,-4.477157,-0.723049,105.560303,-65.093994,-13.641357,35.257812
48440,-16.462530,5.487510,-8.829816,-46.051025,-11.718750,112.243652,35.285156
48480,-15.524004,10.534488,-10.333375,92.895508,16.204834,-23.895264,35.269531
48520,-6.009446,1.211466,-1.053449,62.042236,-134.185791,-74.859619,35.287109
48560,-10.184934,-5.406107,7.733272,-358.123779,54.687500,-79.284668,35.269531
48600,-13.560759,-5.942409,-1.015141,-149.780273,-67.047119,-57.830811,35.292969
48640,-11.434708,-2.849100,-1.283292,160.064697,-241.058350,-71.105957,35.291016
48680,-10.587160,-1.661576,5.755661,-171.356201,-3.143311,-10.375977,35.283203
48720,-10.735600,-1.924938,3.552995,151.580811,75.195312,-64.300537,35.294922
48760,-8.437167,-0.919373,-0.780510,68.664551,-45.318604,-37.048340,35.289062
48800,-5.157111,-0.210690,-0.392649,74.127197,41.076660,-24.261475,35.285156
48840,-5.908890,-0.277727,0.818817,-41.259766,-98.358154,-41.473389,35.310547
48880,-8.240842,-0.450110,0.928950,23.406982,-140.228271,-63.629150,35.277344
48920,-10.572795,1.297657,-1.470040,-82.885742,-75.531006,-23.895264,35.304688
48960,-12.229582,2.149993,0.723049,-60.394287,27.648926,16.876221,35.330078
49000,-13.244724,2.853889,-0.526724,-8.178711,28.228760,43.487549,35.294922
49040,-14.384364,1.029507,-2.853889,-70.129395,163.848877,87.707520,35.294922
49080,-13.603854,-0.411803,-3.888184,7.263184,300.354004,122.100830,35.320312
49120,-13.709199,-3.720589,0.229843,-44.281006,224.456787,113.281250,35.291016
49160,-16.342821,-5.353435,-1.082179,-230.865479,51.269531,-11.993408,35.304688
49200,-13.613431,-1.101333,-2.619257,-31.799316,-91.308594,33.111572,35.310547
49240,-8.571242,3.639187,0.191536,70.587158,74.249268,97.381592,35.310547
49280,-5.913678,-0.292093,1.771709,129.638672,41.412354,78.979492,35.281250
49320,-2.940080,-1.747767,2.240973,135.070801,-12.207031,20.690918,35.300781
49360,-0.028730,-3.615245,1.513135,50.537109,-104.278564,7.202148,35.285156
49400,-2.279280,-3.294421,-0.612916,31.555176,-57.739258,-19.622803,35.300781
49440,-15.768212,5.554548,-8.355764,75.195312,-9.368896,2.777100,35.302734
49480,-17.247829,10.400413,-9.581595,39.825439,-2.441406,-32.318115,35.310547
49520,-13.713987,-0.751779,-2.427721,58.776855,-94.421387,-44.494629,35.316406
49560,-11.070788,-4.922479,4.151546,-150.451660,56.243896,-30.761719,35.304688
49600,-5.023035,-9.203311,2.255338,77.514648,-141.418457,-64.331055,35.326172
49640,-12.119449,-5.291186,3.208230,9.429932,-194.396973,-84.259033,35.302734
49680,-11.860875,-0.416591,3.706224,-160.888672,-50.964355,-21.209717,35.322266
49720,-10.869676,0.215478,1.896208,-45.501709,0.061035,-47.454834,35.316406
49760,-7.723695,-0.052672,-1.326388,88.104248,-30.487061,-56.793213,35.304688
49800,-5.592855,0.392649,-0.067038,120.452881,-62.316895,-42.114258,35.320312
49840,-6.143522,1.479617,1.034295,-24.414062,-92.773438,-20.965576,35.320312
49880,-8.475474,0.186748,0.162806,20.019531,-65.002441,-29.602051,35.332031
49920,-10.702082,-0.718261,0.368707,-69.641113,-36.804199,-10.772705,35.328125
49960,-12.698846,1.048660,1.570596,-42.266846,37.078857,18.432617,35.343750
50000,-13.536817,2.221819,-0.186748,98.052979,12.603760,30.517578,35.333984
50040,-14.518439,1.465251,-2.403779,-48.248291,213.684082,98.388672,35.332031
50080,-13.828909,-0.943315,-2.422932,71.411133,252.624512,106.506348,35.330078
50120,-15.231912,-6.828263,1.493982,-19.714355,168.365479,39.642334,35.332031
50160,-16.165649,-5.530606,-0.785298,-107.635498,-49.316406,69.763184,35.365234
50200,-11.353305,3.055001,-0.143652,-55.389404,67.565918,117.370605,35.349609
50240,-7.560889,0.871489,1.896208,71.990967,89.599609,83.679199,35.355469
50280,-4.376601,-0.694318,2.576161,144.683838,64.727783,50.354004,35.373047
50320,-1.244985,-1.900996,2.628834,85.632324,-7.202148,37.628174,35.369141
50360,-1.005565,-3.691859,0.608127,49.896240,-83.160400,14.556885,35.367188
50400,-5.195418,-3.174711,-2.106898,105.957031,-86.975098,-13.366699,35.373047
50440,-17.994820,7.958326,-10.970232,9.368896,3.387451,77.728271,35.386719
50480,-13.795390,7.331046,-10.127473,56.152344,-25.238037,-35.797119,35.375000
50520,-12.009315,-0.919373,-0.689530,-35.095215,-64.483643,-34.729004,35.380859
50560,-11.731588,-4.017470,3.567361,-211.090088,20.416260,-64.697266,35.376953
50600,-6.914454,-9.691729,4.185065,62.011719,-158.752441,-170.898438,35.376953
50640,-12.674904,-3.840300,6.392519,-197.052002,-185.791016,-72.845459,35.388672
50680,-12.004527,0.450110,3.830723,-211.914062,-23.284912,-54.992676,35.376953
50720,-11.267113,1.091756,0.119710,-29.235840,-39.642334,-55.084229,35.398438
50760,-7.307104,1.072602,-1.091756,183.654785,-33.020020,-54.382324,35.382812
50800,-5.832275,1.086968,0.263362,92.895508,-26.977539,-26.611328,35.400391
50840,-7.268796,1.015141,0.972046,8.331299,-49.835205,-30.792236,35.359375
50880,-9.141062,-0.751779,0.943315,22.430420,-70.861816,-44.891357,35.382812
50920,-10.596737,-0.574608,0.703895,15.960693,-46.539307,-34.820557,35.382812
50960,-12.320562,2.643199,1.388637,-87.951660,7.049561,27.465820,35.398438
51000,-13.412318,2.236184,-1.326388,8.178711,57.373047,44.860840,35.375000
51040,-13.757083,0.325611,-2.983175,-62.225342,172.271729,81.787109,35.380859
51080,-12.804191,-0.785298,-2.772485,38.360596,300.964355,105.285645,35.375000
51120,-14.547170,-4.189853,0.938527,-39.764404,193.298340,84.533691,35.394531
51160,-17.022774,-7.043741,-2.063802,-255.432129,-81.726074,26.031494,35.392578
51200,-11.070788,-1.929727,-1.154005,27.557373,8.056641,45.440674,35.369141
51240,-8.432379,4.486734,2.092532,-22.125244,44.158936,110.260010,35.410156
51280,-5.621585,0.201113,2.173935,131.347656,38.391113,76.568604,35.396484
51320,-2.652776,-2.116474,2.135628,161.315918,15.716553,39.642334,35.398438
51360,-1.211466,-4.070143,1.709460,31.860352,-60.211182,28.594971,35.402344
51400,-3.960010,-4.199430,-1.379060,105.895996,-88.409424,-13.275146,35.400391
51440,-16.879122,7.187394,-8.848969,-80.810547,-25.817871,91.613770,35.410156
51480,-15.806520,10.994174,-9.773131,124.389648,48.004150,-24.200439,35.384766
51520,-6.095637,1.364695,-1.565808,46.661377,-149.780273,-71.716309,35.384766
51560,-11.611878,-4.817134,6.191406,-408.416748,53.405762,-45.166016,35.404297
51600,-11.990162,-7.259220,-0.416591,-57.739258,-82.397461,-78.826904,35.388672
51640,-10.898406,-4.630386,1.766921,2.105713,-197.479248,-113.555908,35.400391
51680,-11.468226,-2.968810,4.750096,-234.008789,-112.945557,-32.348633,35.390625
51720,-10.251971,-2.102109,2.705448,52.246094,30.731201,-79.986572,35.406250
51760,-8.504205,-1.029507,-0.339977,129.577637,6.469727,-67.413330,35.386719
51800,-5.975927,1.230620,-0.263362,168.060303,-23.498535,-42.572021,35.382812
51840,-6.679823,0.426168,0.957681,43.212891,-19.134521,-41.473389,35.396484
51880,-8.710106,-1.063026,1.752556,25.543213,-72.723389,-61.431885,35.458984
51920,-10.160992,1.364695,0.823605,-142.364502,-97.412109,-20.690918,35.439453
51960,-11.496957,2.212242,0.493206,-66.345215,40.191650,16.845703,35.441406
52000,-12.861651,1.982399,-0.287304,-33.172607,32.287598,55.267334,35.431641
52040,-13.618219,-0.172383,-2.288857,-50.262451,108.734131,75.805664,35.453125
52080,-13.177686,0.009577,-4.055778,-47.546387,284.210205,118.316650,35.447266
52120,-13.201628,-1.747767,-1.584962,91.094971,222.625732,111.389160,35.460938
52160,-16.749836,-5.262455,0.349553,-239.410400,93.597412,54.656982,35.455078
52200,-14.618996,-2.892196,-3.069367,-80.657959,-90.911865,45.593262,35.449219
52240,-9.251195,2.806004,0.598550,35.186768,11.901855,103.698730,35.458984
52280,-7.077260,0.981623,1.805228,136.566162,66.314697,88.500977,35.464844
52320,-3.433285,-1.517924,2.413355,200.592041,25.909424,43.334961,35.445312
52360,-0.828394,-3.270479,2.585738,59.356689,-63.354492,27.404785,35.474609
52400,-1.910573,-4.371812,-0.387861,73.364258,-55.145264,-13.885498,35.449219
52440,-11.372458,0.948104,-5.377377,5.218506,-45.196533,37.078857,35.455078
52480,-19.191921,11.415554,-9.816227,52.062988,48.339844,1.678467,35.455078
52520,-9.979033,3.457227,-5.837064,115.112305,-41.320801,-42.999268,35.451172
52560,-11.348516,-2.705448,4.649539,-277.557373,-26.733398,-40.557861,35.445312
52600,-9.983821,-7.910442,1.939303,-156.585693,-94.482422,-79.925537,35.447266
52640,-9.562442,-5.808333,2.116474,14.831543,-162.658691,-124.542236,35.464844
52680,-12.363658,-1.594538,4.553771,-203.277588,-133.117676,-42.877197,35.470703
52720,-10.534488,-2.695871,1.977611,-88.378906,-23.956299,-83.740234,35.488281
52760,-9.806650,-0.699107,-0.608127,138.244629,31.341553,-70.281982,35.488281
52800,-6.746861,1.570596,0.363919,126.251221,-33.905029,-55.297852,35.484375
52840,-6.435614,0.914585,1.431733,52.032471,-51.361084,-32.745361,35.480469
52880,-8.149862,-0.914585,1.441309,8.483887,-64.453125,-51.055908,35.486328
52920,-9.385271,0.818817,0.162806,-50.506592,-72.845459,-40.466309,35.480469
52960,-10.333375,1.661576,0.579397,-39.764404,17.272949,-5.767822,35.466797
53000,-11.889606,1.881842,1.537078,-29.388428,-6.439209,31.280518,35.478516
53040,-13.263878,0.756568,-1.005565,3.234863,65.063477,54.595947,35.484375
53080,-13.651738,0.397437,-3.246537,-64.636230,233.276367,109.436035,35.468750
53120,-13.081918,-0.411803,-2.935291,133.056641,246.734619,127.471924,35.484375
53160,-15.729905,-4.534618,1.086968,-93.750000,187.530518,92.163086,35.470703
53200,-16.548721,-7.010222,-1.747767,-252.593994,-135.223389,42.175293,35.474609
53240,-10.568007,1.628057,0.086191,30.700684,-21.453857,82.061768,35.480469
53280,-8.159439,2.226608,1.024718,88.409424,73.364258,97.534180,35.509766
53320,-4.697424,-0.924162,2.068590,219.726562,55.053711,56.152344,35.468750
53360,-1.575385,-2.571373,3.404555,74.737549,-26.611328,36.712646,35.474609
53400,-1.244985,-4.807557,0.517148,29.296875,-81.054688,3.753662,35.488281
53440,-6.406884,-3.150769,-3.174711,77.178955,-72.631836,-3.509521,35.501953
53480,-19.709068,12.124237,-10.366894,3.417969,31.768799,43.823242,35.490234
53520,-12.382812,6.449979,-8.030152,36.804199,-17.150879,-22.430420,35.500000
53560,-9.093178,-2.576161,2.106898,-84.838867,-64.361572,-95.001221,35.519531
53600,-11.908759,-5.928043,2.873042,-190.887451,-12.878418,-87.677002,35.507812
53640,-9.643845,-6.636727,3.026271,111.846924,-126.007080,-160.034180,35.513672
53680,-12.387600,-1.824382,5.066131,-250.762939,-228.576660,-25.299072,35.498047
53720,-10.443508,-2.796427,3.256114,-186.645508,-30.029297,-57.006836,35.505859
53760,-9.744401,-1.843535,0.071826,143.127441,28.594971,-72.326660,35.498047
53800,-7.096414,0.943315,0.062249,202.575684,-43.151855,-68.267822,35.523438
53840,-6.191406,2.149993,1.115698,18.096924,-41.748047,-19.195557,35.521484
53880,-7.762002,-0.387861,0.981623,10.894775,-93.750000,-45.043945,35.531250
53920,-9.495404,0.861913,1.139640,28.656006,-80.596924,-46.844482,35.550781
53960,-10.400413,2.135628,1.541866,-55.694580,-25.268555,0.244141,35.560547
54000,-11.420342,1.537078,2.284068,-31.768799,51.422119,45.104980,35.541016
54040,-13.077129,-0.708684,0.866701,-164.672852,61.584473,70.098877,35.544922
54080,-13.608643,-0.560243,-4.453215,-99.395752,242.675781,92.803955,35.541016
54120,-11.798626,-0.134075,-4.256891,33.081055,287.628174,117.828369,35.552734
54160,-14.274231,-3.213019,0.402226,-111.236572,259.765625,84.747314,35.552734
54200,-18.071434,-3.878607,-2.370260,-273.925781,-135.223389,-11.566162,35.570312
54240,-12.473791,-1.321599,-3.112462,57.708740,34.362793,56.884766,35.560547
54280,-7.891289,2.705448,1.407791,-21.575928,-28.411865,93.200684,35.541016
54320,-5.511452,-0.067038,0.675165,196.441650,32.318115,53.649902,35.546875
54360,-2.571373,-1.786075,2.389413,158.752441,-27.404785,21.667480,35.542969
54400,0.421380,-4.496311,2.063802,6.317139,-69.244385,16.448975,35.566406
54440,-3.485958,-3.691859,-1.867477,30.364990,-65.307617,-7.934570,35.562500
54480,-19.393034,9.332599,-10.400413,36.132812,15.380859,58.135986,35.556641
54520,-15.485697,9.030929,-8.896853,81.939697,37.109375,-25.543213,35.562500
54560,-8.911219,-1.714248,-0.181959,39.215088,-88.195801,-94.116211,35.585938
54600,-12.253524,-6.349423,3.457227,-272.369385,-36.437988,-32.714844,35.560547
54640,-8.427590,-7.762002,1.776498,84.747314,-71.990967,-103.790283,35.550781
54680,-12.852075,-2.839523,1.867477,51.147461,-204.345703,-91.766357,35.570312
54720,-9.246407,-2.327164,6.105214,-285.034180,-171.905518,8.087158,35.552734
54760,-9.753978,-1.838747,4.568137,-141.174316,135.986328,-79.284668,35.539062
54800,-8.566454,0.770933,-3.141193,168.731689,-36.834717,-63.110352,35.566406
54840,-5.928043,0.972046,-1.019930,162.078857,-13.366699,-38.543701,35.580078
54880,-6.842628,0.684742,2.829947,-116.363525,-53.558350,-26.000977,35.574219
54920,-9.548077,-0.560243,0.272939,-84.472656,-108.062744,-66.772461,35.580078
54960,-10.170568,1.302446,0.038307,5.523682,11.718750,-45.410156,35.552734
55000,-10.975020,2.212242,1.671153,-44.830322,6.225586,22.888184,35.566406
55040,-12.808979,0.545878,-0.009577,15.808105,34.912109,45.471191,35.582031
55080,-14.010868,-0.751779,-1.479617,-64.086914,118.133545,78.430176,35.576172
55120,-13.101071,0.909797,-3.643975,5.920410,254.028320,133.758545,35.556641
55160,-12.847286,-2.006341,-1.288081,105.773926,198.516846,110.565186,35.589844
55200,-16.735470,-5.616797,0.430956,-219.970703,73.760986,39.550781,35.560547
55240,-14.015656,-2.509123,-1.675941,-132.171631,-47.729492,50.354004,35.582031
55280,-9.346964,3.184288,0.502782,62.225342,-38.269043,89.508057,35.601562
55320,-6.205771,0.210690,1.441309,120.513916,69.122314,87.554932,35.566406
55360,-3.514688,-2.116474,1.853112,214.447021,24.353027,53.314209,35.585938
55400,-1.407791,-3.825934,2.116474,57.525635,-71.014404,31.829834,35.560547
55440,-2.681506,-4.237737,-0.541090,47.393799,-68.054199,-14.556885,35.593750
55480,-12.823344,2.892196,-7.153875,98.419189,-12.115479,9.490967,35.572266
55520,-17.855957,11.094730,-9.251195,50.079346,38.330078,-4.028320,35.591797
55560,-11.803414,2.753332,-3.404555,42.602539,-81.054688,-51.208496,35.595703
55600,-11.310209,-4.070143,4.323928,-311.401367,49.438477,-71.075439,35.591797
55640,-7.153875,-10.764331,1.436521,80.963135,-107.574463,-103.729248,35.593750
55680,-12.459426,-6.129156,3.246537,102.203369,-222.259521,-126.373291,35.599609
55720,-10.769119,-1.221043,6.890512,-323.852539,-144.226074,1.312256,35.615234
55760,-10.840945,-1.096544,1.244985,-85.144043,47.180176,-67.962646,35.609375
55800,-8.116343,1.163582,-3.514688,282.867432,-31.646729,-70.861816,35.589844
55840,-5.458780,1.498770,0.469264,90.484619,-10.192871,-32.043457,35.640625
55880,-6.569689,0.459687,2.006341,23.651123,-111.724854,-39.978027,35.648438
55920,-9.337387,-0.483629,0.608127,-91.644287,-49.377441,-26.672363,35.634766
55960,-11.003751,-0.114922,-0.330400,-33.630371,-25.878906,-32.897949,35.642578
56000,-12.325351,2.025495,1.637634,-16.326904,29.388428,18.249512,35.667969
56040,-13.163321,3.021482,-0.814029,36.621094,42.724609,64.941406,35.666016
56080,-13.594277,0.483629,-2.260126,-34.545898,202.667236,111.389160,35.648438
56120,-13.388376,-1.412579,-2.001553,79.925537,261.352539,117.950439,35.660156
56160,-15.811308,-5.717354,1.446098,-78.765869,91.156006,71.350098,35.660156
56200,-16.864758,-6.014235,-1.580173,-103.027344,-34.240723,97.198486,35.658203
56240,-11.698070,1.225831,0.220267,-0.396729,50.720215,66.345215,35.652344
56280,-7.618350,0.809240,1.920150,28.533936,50.292969,90.850830,35.650391
56320,-4.386178,-1.795651,2.480393,139.831543,47.729492,53.283691,35.654297
56360,-1.675941,-2.408567,2.537854,83.709717,-10.894775,32.440186,35.662109
56400,-1.029507,-3.983952,0.129287,70.312500,-56.732178,6.042480,35.666016
56440,-5.913678,-3.323152,-2.801216,159.973145,-81.176758,-12.176514,35.671875
56480,-18.646044,10.673351,-10.577583,-2.685547,26.397705,88.867188,35.648438
56520,-12.143391,6.914454,-8.820239,61.492920,-24.383545,-16.967773,35.664062
56560,-6.086061,-1.800440,1.991976,74.554443,-134.765625,-138.763428,35.640625
56600,-16.256630,-3.950433,3.332729,-403.259277,-10.650635,-55.694580,35.656250
56640,-8.657434,-8.590396,0.339977,20.385742,-102.386475,-97.259521,35.662109
56680,-11.841722,-5.674258,2.169147,46.020508,-142.303467,-119.171143,35.697266
56720,-11.942278,-0.900220,4.893748,-155.334473,-54.016113,-41.809082,35.681641
56760,-10.620679,0.225055,3.189077,-12.939453,-69.335938,-43.365479,35.681641
56800,-6.655881,-0.052672,-0.636858,0.091553,-38.726807,-40.283203,35.667969
56840,-5.530606,-0.866701,-0.584185,63.232422,7.141113,-38.940430,35.652344
56880,-7.441179,0.842759,1.398214,-113.494873,-37.261963,-23.742676,35.667969
56920,-9.514558,0.445322,0.009577,-62.103271,-148.986816,-53.192139,35.652344
56960,-10.611102,1.158794,-0.574608,66.131592,31.005859,-34.515381,35.662109
57000,-11.501745,1.987187,2.729390,-32.623291,38.421631,24.017334,35.667969
57040,-12.765883,0.138864,-0.277727,7.293701,7.751465,32.928467,35.664062
57080,-13.848063,-0.282516,-1.608904,-80.749512,99.975586,84.686279,35.691406
57120,-12.679692,0.497994,-3.763685,-4.608154,267.456055,147.766113,35.681641
57160,-12.694057,-3.055001,-1.216254,2.655029,256.011963,131.866455,35.658203
57200,-16.007633,-5.846641,0.067038,-260.650635,130.249023,0.640869,35.671875
57240,-13.824121,-1.446098,-1.790863,-144.561768,-134.399414,11.840820,35.681641
57280,-9.792285,3.653552,-1.699883,120.300293,98.175049,64.941406,35.673828
57320,-6.718130,0.751779,1.690306,116.699219,-13.641357,75.134277,35.695312
57360,-2.705448,-3.088520,2.748544,112.243652,-47.332764,43.731689,35.677734
57400,-1.201889,-3.605668,0.799663,108.154297,-79.772949,-5.401611,35.669922
57440,-1.728614,-3.581726,-0.296881,28.167725,-45.410156,-21.667480,35.671875
57480,-12.737153,2.456451,-7.062895,101.348877,29.235840,-43.762207,35.677734
57520,-18.602947,11.362882,-8.815451,44.372559,-1.556396,3.234863,35.693359
57560,-10.903194,2.164358,-3.347094,123.657227,-116.302490,-74.462891,35.691406
57600,-13.848063,-3.754108,5.358223,-330.078125,23.925781,56.243896,35.687500
57640,-7.733272,-8.025364,-0.972046,-101.562500,-85.540771,-52.581787,35.701172
57680,-10.625467,-10.165780,0.656011,259.582520,-152.252197,-191.436768,35.687500
57720,-11.559206,-3.643975,2.384625,23.529053,-24.108887,-77.789307,35.697266
57760,-11.535264,1.599327,3.634398,10.009766,1.892090,-20.019531,35.691406
57800,-7.718906,1.929727,2.145205,-97.473145,-81.512451,-33.081055,35.751953
57840,-5.497087,-0.727837,-1.144428,77.423096,-1.800537,-35.156250,35.736328
57880,-6.143522,0.196325,-0.158017,-8.575439,-94.421387,-31.738281,35.746094
57920,-8.389283,0.052672,-0.469264,7.659912,-62.072754,-39.367676,35.750000
57960,-10.544065,-0.493206,0.105345,-15.899658,-39.367676,-33.142090,35.759766
58000,-12.320562,0.785298,1.101333,-4.486084,46.173096,2.349854,35.759766
58040,-12.957419,2.715025,-0.124498,5.859375,5.249023,44.738770,35.753906
58080,-13.900735,1.072602,-2.336741,-25.787354,126.586914,93.139648,35.761719
58120,-13.685257,-0.325611,-2.973598,17.089844,264.221191,139.556885,35.736328
58160,-14.523228,-4.860229,1.608904,23.071289,224.029541,82.153320,35.746094
58200,-16.419436,-8.422802,0.057461,-315.155029,-118.225098,42.297363,35.765625
58240,-12.828133,0.038307,-0.143652,-55.358887,20.721436,77.148438,35.767578
58280,-8.791509,2.461239,0.574608,49.713135,46.020508,89.385986,35.759766
58320,-4.936844,-0.881066,1.752556,172.027588,5.859375,58.166504,35.763672
58360,-1.197101,-2.437297,3.189077,67.779541,2.655029,21.636963,35.746094
58400,-0.086191,-4.165911,0.770933,27.740479,-87.524414,-1.251221,35.748047
58440,-4.596867,-3.758897,-1.757344,69.396973,-63.629150,-25.756836,35.765625
58480,-18.684351,9.184157,-7.900866,32.928467,-24.688721,32.440186,35.765625
58520,-13.000515,8.245630,-7.584831,-8.575439,-12.847900,-40.832520,35.753906
58560,-9.198523,-1.752556,2.308010,153.656006,-2.746582,-138.885498,35.769531
58600,-15.116989,-5.832275,4.199430,-353.881836,-82.946777,16.052246,35.759766
58640,-8.896853,-7.125144,0.794875,50.384521,-87.921143,-65.917969,35.730469
58680,-11.362882,-4.127604,1.503559,93.170166,-31.372070,-81.146240,35.732422
58720,-11.262324,-2.494758,4.390966,3.143311,-44.952393,-47.332764,35.771484
58760,-9.830592,-2.437297,2.336741,-22.857666,-52.764893,-52.215576,35.773438
58800,-7.426814,-2.197877,0.095768,18.585205,-36.804199,-63.476562,35.763672
58840,-7.077260,-1.043872,-0.186748,23.284912,-48.645020,-53.527832,35.765625
58880,-7.522582,-0.363919,0.378284,-54.412842,-71.105957,-35.766602,35.765625
58920,-9.006987,0.143652,0.775721,-85.571289,-22.094727,-19.073486,35.775391
58960,-10.505757,1.345541,1.292869,-68.786621,-18.981934,2.410889,35.781250
59000,-11.022904,2.901772,-0.105345,-145.965576,51.788330,53.314209,35.783203
59040,-12.253524,2.384625,-3.706224,-39.276123,131.469727,111.694336,35.753906
59080,-14.925453,0.703895,-3.552995,28.228760,159.759521,155.548096,35.775391
59120,-17.185579,-2.633622,0.138864,117.797852,56.335449,68.908691,35.767578
59160,-14.757859,-4.692636,2.892196,18.035889,55.145264,37.597656,35.785156
59200,-9.768343,1.192312,3.921702,-126.861572,-1.373291,139.251709,35.763672
59240,-8.336611,1.867477,-1.278504,82.977295,77.911377,111.450195,35.753906
59280,-5.793968,-2.063802,-2.269703,103.759766,34.118652,70.220947,35.781250
59320,-5.396531,-0.402226,-0.038307,93.109131,-0.335693,34.820557,35.767578
59360,-9.246407,-0.234632,-1.628057,64.819336,24.932861,-3.662109,35.779297
59400,-10.170568,-2.494758,-3.198653,68.756104,11.260986,-21.911621,35.757812
59440,-8.461109,-3.864242,-3.864242,20.538330,-22.766113,-45.104980,35.792969
59480,-7.053318,-3.825934,-3.088520,9.796143,-41.870117,-57.800293,35.785156
59520,-7.053318,-2.370260,-3.902549,-19.592285,-9.124756,-46.875000,35.773438
59560,-8.082825,1.733402,-5.214571,20.629883,9.979248,-8.392334,35.796875
59600,-10.256760,9.193734,-4.132392,-4.211426,-72.570801,-40.313721,35.779297
59640,-8.465898,9.619903,1.316811,-129.730225,-150.054932,-73.120117,35.765625
59680,-13.929465,0.354342,0.507571,-347.656250,-44.769287,-11.474609,35.792969
59720,-13.939042,-6.469133,-4.515464,50.048828,-55.633545,-31.951904,35.792969
59760,-9.208099,-6.248867,0.086191,90.515137,-142.089844,-91.735840,35.789062
59800,-10.093954,-3.457227,3.811569,43.121338,-36.712646,-84.289551,35.851562
59840,-10.405201,-1.335965,4.084508,94.177246,-16.937256,-54.870605,35.847656
59880,-8.686164,-0.536301,3.394978,127.685547,-64.727783,-46.264648,35.865234
59920,-6.789956,0.268151,0.143652,-58.715820,9.216309,-24.475098,35.828125
59960,-6.967127,0.483629,-0.794875,38.299561,-49.224854,-9.552002,35.837891
60000,-8.408437,1.005565,1.034295,-43.518066,-93.383789,-4.669189,35.861328
60040,-9.543288,-0.565032,0.957681,-0.701904,-108.093262,-29.479980,35.828125
60080,-9.935937,-0.521936,0.469264,74.615479,10.925293,-21.514893,35.853516
60120,-12.181698,-0.100556,0.972046,-69.793701,20.904541,26.275635,35.837891
60160,-13.129802,-0.339977,0.306458,-121.124268,2.044678,35.980225,35.855469
60200,-13.627796,0.421380,-2.600103,19.989014,134.094238,57.220459,35.853516
60240,-12.512098,-0.100556,-1.829170,-61.248779,224.945068,117.919922,35.845703
60280,-12.167333,-3.169923,1.709460,5.401611,165.252686,89.111328,35.843750
60320,-15.404294,-5.295974,0.895431,-199.066162,97.900391,20.538330,35.857422
60360,-13.623008,-0.627281,-0.756568,-82.214355,86.364746,46.997070,35.841797
60400,-9.931149,1.742979,-0.186748,60.150146,74.737549,87.982178,35.859375
60440,-6.344635,-0.861913,1.441309,106.201172,41.656494,71.289062,35.865234
60480,-3.059790,-1.891419,1.853112,110.595703,11.627197,41.259766,35.861328
60520,-1.556231,-2.873042,1.082179,46.752930,-59.722900,11.322021,35.863281
60560,-2.964022,-2.365471,-0.550666,82.214355,-41.046143,-18.951416,35.876953
60600,-12.717999,4.544195,-6.785168,70.404053,-6.744385,3.387451,35.873047
60640,-15.840038,7.675811,-10.754754,7.843018,-51.696777,-13.885498,35.853516
60680,-12.291832,-1.747767,-3.945644,62.805176,-78.887939,-70.190430,35.869141
60720,-11.674128,-5.090073,3.725378,-318.511963,5.523682,-3.906250,35.867188
60760,-6.502652,-8.010999,1.149217,48.248291,-131.378174,-70.220947,35.847656
60800,-12.713211,-5.003881,2.236184,173.156738,-161.010742,-139.709473,35.847656
60840,-11.626244,-1.321599,4.592079,-158.966064,-40.527344,-20.812988,35.865234
60880,-10.376471,0.541090,4.141969,35.705566,-83.679199,-48.645020,35.847656
60920,-7.134721,0.100556,-0.368707,-51.055908,-4.913330,-49.926758,35.859375
60960,-5.755661,0.162806,-1.948880,162.902832,-66.040039,-47.363281,35.847656
61000,-6.301539,1.455675,0.684742,-47.790527,-84.625244,-12.634277,35.880859
61040,-9.054871,-0.450110,0.311246,-2.746582,-54.992676,-27.374268,35.869141
61080,-11.176133,-0.900220,0.766145,-42.999268,-19.958496,-14.862061,35.876953
61120,-12.775460,1.489193,1.589750,15.533447,15.960693,19.073486,35.857422
61160,-13.742718,2.236184,-0.517148,55.786133,42.144775,48.461914,35.849609
61200,-14.058752,0.143652,-2.351106,-48.248291,196.960449,103.942871,35.888672
61240,-12.540829,-1.173159,-1.613692,58.044434,230.926514,113.433838,35.888672
61280,-14.274231,-5.497087,2.336741,-9.429932,136.505127,34.637451,35.859375
61320,-16.615759,-4.031836,-0.450110,-110.290527,-9.704590,65.704346,35.871094
61360,-11.827356,1.144428,-0.397437,-40.527344,55.633545,93.902588,35.884766
61400,-7.699753,-0.421380,1.632846,25.909424,64.605713,85.601807,35.878906
61440,-4.127604,-1.058237,2.557007,126.495361,41.015625,47.119141,35.884766
61480,-1.393425,-1.699883,2.499547,63.995361,-30.212402,31.036377,35.857422
61520,-1.254562,-3.394978,0.603339,51.208496,-77.545166,0.305176,35.884766
61560,-5.908890,-2.892196,-1.814805,162.780762,-65.093994,-32.867432,35.855469
61600,-18.545486,9.375694,-10.132261,28.564453,38.787842,84.625244,35.863281
61640,-13.029245,6.880936,-9.562442,110.351562,-23.193359,-28.808594,35.884766
61680,-11.482592,-0.043096,2.394202,-83.465576,-94.573975,-53.192139,35.890625
61720,-11.894394,-4.936844,2.365471,-308.776855,37.048340,-48.553467,35.884766
61760,-6.181829,-11.056423,0.569820,165.435791,-112.091064,-155.090332,35.919922
61800,-13.833697,-5.142745,3.122039,-23.040771,-146.057129,-104.431152,35.919922
61840,-11.846510,0.057461,3.792415,-129.974365,-42.602539,-30.792236,35.910156
61880,-11.051635,1.479617,1.896208,-98.907471,-34.362793,-28.533936,35.910156
61920,-6.770802,1.039083,-1.666364,74.737549,-30.975342,-37.292480,35.906250
61960,-5.535394,0.464475,-0.646434,124.694824,12.451172,-37.231445,35.929688
62000,-7.220912,0.541090,1.771709,-74.462891,-93.658447,-23.742676,35.927734
62040,-9.500193,-1.350330,-0.435745,11.810303,-84.991455,-51.483154,35.931641
62080,-11.243171,0.679953,0.397437,-59.112549,-14.892578,-6.286621,35.931641
62120,-12.923901,2.509123,0.689530,7.354736,-1.068115,27.069092,35.925781
62160,-13.694834,1.910573,-1.647211,-3.082275,61.859131,66.131592,35.925781
62200,-13.326127,0.076614,-3.591303,-62.835693,217.773438,123.657227,35.925781
62240,-12.416330,-2.303222,-0.928950,70.617676,237.670898,108.581543,35.933594
62280,-15.878345,-5.726931,1.355118,-182.922363,69.000244,66.986084,35.917969
62320,-16.381128,-5.195418,-2.015918,-56.396484,-34.362793,59.082031,35.929688
62360,-10.716447,2.810793,-0.459687,45.227051,51.452637,85.021973,35.906250
62400,-7.225701,0.823605,2.073379,45.288086,51.177979,78.582764,35.923828
62440,-3.653552,-1.139640,2.408567,111.663818,25.665283,35.278320,35.941406
62480,-1.125275,-2.145205,2.035071,59.600830,-35.003662,20.568848,35.943359
62520,-0.766145,-3.605668,0.234632,40.008545,-90.515137,-2.441406,35.933594
62560,-6.670246,-2.303222,-2.729390,102.294922,-76.965332,-7.049561,35.957031
62600,-20.068199,13.144167,-10.333375,26.123047,47.760010,66.253662,35.943359
62640,-11.937490,6.799533,-7.943961,69.274902,-31.005859,-31.463623,35.933594
62680,-9.662998,-3.878607,4.568137,-40.863037,-100.402832,-109.863281,35.939453
62720,-13.081918,-5.559336,1.675941,-319.854736,6.988525,-38.757324,35.933594
62760,-7.852982,-8.901642,-0.023942,119.659424,-125.244141,-173.980713,35.923828
62800,-13.340492,-2.566584,3.289633,-91.094971,-188.476562,-64.910889,35.929688
62840,-11.741165,-0.737414,5.128380,-71.289062,-10.467529,-52.734375,35.955078
62880,-9.758766,0.316035,1.393425,-69.244385,-11.871338,-44.311523,35.943359
62920,-6.052542,-0.349553,-1.575385,84.106445,-36.712646,-49.377441,35.923828
62960,-5.971139,0.043096,0.105345,53.405762,6.011963,-40.008545,35.933594
63000,-7.752425,1.283292,1.757344,-71.014404,-62.774658,-34.637451,35.947266
63040,-9.370906,0.062249,0.569820,-57.922363,-115.600586,-57.586670,35.953125
63080,-10.678140,0.416591,0.339977,43.853760,24.017334,-21.362305,35.945312
63120,-12.612655,1.297657,1.029507,2.227783,-9.124756,23.437500,35.933594
63160,-14.250289,1.005565,-0.732626,-48.736572,67.413330,68.389893,35.949219
63200,-14.341269,1.225831,-3.189077,-87.066650,185.180664,133.392334,35.958984
63240,-12.928689,-2.470816,-3.299210,62.957764,210.388184,132.049561,35.958984
63280,-15.193604,-6.239290,0.828394,-195.220947,178.527832,144.348145,35.964844
63320,-14.753071,-2.403779,-0.723049,-179.901123,-69.427490,2.929688,35.968750
63360,-11.027693,3.078943,-1.857901,174.224854,101.593018,36.773682,35.953125
63400,-7.105990,0.306458,1.613692,112.182617,79.254150,86.364746,35.945312
63440,-3.462016,-1.915361,2.489970,78.582764,31.616211,60.607910,35.953125
63480,-1.786075,-2.442086,0.948104,120.544434,-29.815674,24.169922,35.966797
63520,-1.426944,-3.213019,-0.478840,56.304932,-81.420898,-12.817383,35.943359
63560,-7.264008,-0.593762,-3.634398,28.717041,-87.280273,-58.380127,35.943359
63600,-18.090588,9.356541,-10.453085,43.212891,-33.935547,-5.767822,35.951172
63640,-13.934254,2.676718,-8.757990,63.537598,-28.778076,-37.872314,35.958984
63680,-13.881581,-2.111686,2.772485,-114.685059,-25.115967,-1.678467,35.943359
63720,-6.617573,-4.707001,1.963245,-253.967285,-87.707520,-23.193359,35.955078
63760,-7.350199,-8.418014,1.206678,124.816895,-145.965576,-161.621094,35.990234
63800,-13.249513,-2.911349,2.336741,-48.095703,-76.873779,-99.243164,36.011719
63840,-12.301409,0.550666,2.035071,32.806396,-54.290771,-38.574219,36.029297
63880,-9.308656,1.398214,1.450886,45.989990,4.669189,-49.774170,36.007812
63920,-5.937620,-1.125275,-0.028730,132.324219,-46.508789,-55.908203,35.990234
63960,-5.880159,0.167594,1.580173,-59.112549,-44.494629,-14.160156,36.017578
64000,-7.627927,-0.656011,-0.253785,-98.449707,-119.964600,-29.327393,35.994141
64040,-9.907207,-1.738190,-0.608127,62.927246,-42.175293,-69.946289,36.017578
64080,-12.378023,0.995988,1.106121,-45.440674,1.312256,-3.479004,35.988281
64120,-13.666103,2.734178,0.196325,-4.211426,28.503418,38.757324,35.996094
64160,-13.891158,1.987187,-1.086968,-35.003662,111.053467,81.359863,36.017578
64200,-13.522451,0.766145,-3.337517,-7.843018,226.440430,142.822266,36.005859
64240,-13.220781,-4.304775,-0.368707,82.855225,167.694092,104.125977,36.007812
64280,-15.825673,-7.173028,1.335965,-240.417480,65.002441,6.988525,36.011719
64320,-13.651738,-0.785298,-1.139640,-62.591553,66.925049,62.011719,36.007812
