MS,Accel X (m/s²),Accel Y (m/s²),Accel Z (m/s²),Gyro X (°/s),Gyro Y (°/s),Gyro Z (°/s),Temp (°C)
2200,-9.160215,-3.227384,-0.067038,-3.601074,-4.608154,2.258301,30.929688
2240,-9.294291,-3.193865,0.272939,3.875732,-4.089355,2.532959,30.939453
2280,-9.313444,-3.059790,0.330400,1.861572,-6.958008,2.777100,30.937500
2320,-9.323022,-3.078943,0.148441,-8.392334,-11.535645,0.885010,30.933594
2360,-9.275137,-3.246537,0.277727,0.488281,-9.796143,-3.143311,30.935547
2400,-9.437943,-3.160346,0.684742,15.869141,-5.279541,-4.669189,30.964844
2440,-9.662998,-2.384625,0.541090,19.927979,-7.049561,2.105713,30.949219
2480,-9.461885,-1.757344,0.047884,2.716064,-19.226074,7.385254,30.947266
2520,-9.318233,-1.996764,0.023942,-64.483643,-33.081055,10.162354,30.953125
2560,-9.232041,-2.777274,0.411803,-39.154053,-25.482178,3.387451,30.941406
2600,-9.165004,-2.935291,0.842759,-0.122070,-25.360107,-1.068115,30.949219
2640,-9.361329,-2.427721,0.775721,4.608154,-37.109375,2.227783,30.962891
2680,-9.385271,-2.030283,0.335188,10.711670,-39.184570,1.892090,30.978516
2720,-9.548077,-1.699883,0.000000,6.591797,-37.506104,-1.739502,30.972656
2760,-9.624691,-1.987187,0.272939,-27.923584,-23.651123,-3.936768,30.953125
2800,-9.514558,-2.523489,0.799663,-37.963867,-15.319824,-6.805420,30.978516
2840,-9.816227,-2.303222,1.628057,4.486084,-12.847900,-7.568359,30.976562
2880,-10.788273,-2.054225,1.268927,-30.609131,-112.396240,2.532959,30.992188
2920,-11.621455,-2.288857,-0.306458,-40.863037,20.477295,-3.906250,30.992188
2960,-11.875240,-0.976834,-0.081403,-7.476807,52.612305,3.387451,31.001953
3000,-11.784261,-0.272939,-0.090980,-18.585205,74.371338,25.329590,30.970703
3040,-10.472239,-2.403779,-1.599327,-70.220947,110.076904,35.522461,31.005859
3080,-9.370906,-4.874595,-1.647211,-142.242432,83.221436,41.137695,30.990234
3120,-9.595961,-5.822699,0.727837,-140.258789,67.779541,47.119141,30.970703
3160,-10.496181,-3.725378,1.005565,-98.327637,34.423828,48.126221,30.984375
3200,-10.836157,-0.478840,-0.076614,-164.001465,-49.346924,68.359375,31.009766
3240,-9.461885,-1.604115,-1.230620,1.678467,39.245605,73.822021,30.988281
3280,-8.293514,-1.661576,-0.837971,64.300537,64.514160,64.483643,31.001953
3320,-7.259220,-2.154782,-0.349553,40.985107,10.681152,50.079346,30.994141
3360,-6.497863,-2.336741,-0.742203,47.210693,-19.775391,25.878906,30.996094
3400,-5.837064,-2.269703,-1.522712,61.035156,-22.674561,-7.995605,30.994141
3440,-6.497863,-1.498770,-2.523489,85.296631,-17.395020,-34.973145,31.000000
3480,-9.892841,1.771709,-4.132392,62.408447,-14.953613,-14.984131,31.013672
3520,-13.254301,4.577713,-4.730943,-0.915527,-6.958008,17.364502,31.017578
3560,-11.362882,2.638410,-3.495534,33.142090,-5.065918,19.561768,31.013672
3600,-9.524135,-0.311246,-1.872266,27.282715,-56.915283,-19.897461,31.025391
3640,-12.076353,-3.888184,-1.244985,-36.346436,4.394531,-26.275635,31.033203
3680,-10.793061,-5.008670,-0.627281,24.444580,-25.665283,-14.007568,31.023438
3720,-7.608773,-4.979939,0.081403,16.967773,-133.056641,-41.931152,31.017578
3760,-8.652645,-4.515464,1.613692,76.599121,57.189941,-74.401855,31.046875
3800,-8.920795,-3.907337,2.298434,109.832764,51.757812,-81.054688,31.033203
3840,-9.035717,-4.003105,2.528277,116.699219,9.887695,-63.903809,31.031250
3880,-9.725247,-2.537854,1.867477,104.919434,-10.223389,-30.487061,31.031250
3920,-9.299079,-1.355118,-0.766145,-41.961670,-81.787109,-17.669678,31.039062
3960,-9.064447,-0.928950,-1.795651,49.713135,-10.284424,-12.817383,31.046875
4000,-9.227253,-0.857124,-0.794875,40.985107,-7.812500,-11.413574,31.070312
4040,-9.232041,-1.747767,0.316035,-60.516357,-31.585693,-7.293701,31.046875
4080,-9.141062,-2.561796,-0.057461,-63.140869,-24.017334,-11.474609,31.042969
4120,-9.217676,-2.217031,-0.287304,31.463623,0.671387,-8.087158,31.019531
4160,-10.093954,-0.636858,0.497994,18.066406,-18.707275,11.169434,31.166016
4200,-11.765107,-0.665588,1.493982,-66.345215,-68.054199,31.494141,31.162109
4240,-12.397177,-3.318364,-2.221819,-240.478516,-153.198242,32.043457,31.173828
4280,-12.224793,-2.887407,-2.576161,-111.694336,89.752197,17.639160,31.175781
4320,-11.314998,0.363919,-2.705448,-100.585938,151.855469,78.277588,31.166016
4360,-11.262324,-2.920926,-1.503559,-32.470703,126.037598,99.304199,31.162109
4400,-12.756307,-7.876924,1.565808,-134.918213,32.135010,70.129395,31.173828
4440,-10.749966,-5.655105,1.173159,-145.385742,-19.866943,64.971924,31.167969
4480,-10.170568,1.288081,0.335188,-161.804199,-10.375977,94.055176,31.185547
4520,-8.169016,-1.043872,-1.383849,60.607910,72.570801,73.852539,31.191406
4560,-6.483498,-2.082955,0.531513,91.766357,79.376221,60.974121,31.177734
4600,-5.406107,-2.020706,0.842759,47.760010,-11.901855,23.773193,31.177734
4640,-4.328717,-2.810793,-1.134852,79.193115,-47.332764,-11.016846,31.183594
4680,-4.869806,-2.442086,-2.523489,99.609375,-67.352295,-49.835205,31.197266
4720,-10.496181,1.805228,-4.572925,56.243896,-31.738281,-18.463135,31.208984
4760,-16.361975,7.939173,-5.363012,1.464844,21.972656,18.096924,31.214844
4800,-11.133038,3.466804,-3.165135,47.546387,-6.683350,4.547119,31.220703
4840,-6.809110,-1.881842,0.809240,60.150146,-29.876709,-95.306396,31.197266
4880,-14.427460,-6.679823,-1.862689,-202.850342,-47.485352,-44.036865,31.210938
4920,-10.946290,-7.168240,-1.072602,164.581299,-29.571533,-60.913086,31.193359
4960,-7.398083,-5.693412,1.546654,77.484131,-33.111572,-82.275391,31.195312
5000,-8.997410,-4.371812,2.533065,111.968994,60.638428,-77.880859,31.210938
5040,-9.016563,-2.011129,4.137180,64.331055,-7.110596,-33.660889,31.230469
5080,-8.561666,-2.255338,2.987964,51.818848,3.723145,-18.371582,31.216797
5120,-8.882488,-2.456451,-0.162806,-65.093994,-91.644287,-6.439209,31.228516
5160,-9.059659,-1.101333,-1.551443,-25.573730,-52.734375,-6.103516,31.220703
5200,-9.241618,-0.732626,-0.976834,16.174316,-20.477295,-19.409180,31.226562
5240,-9.337387,-1.546654,0.086191,-35.308838,-33.721924,-19.989014,31.236328
5280,-9.203311,-2.485181,0.043096,-78.704834,-38.696289,-17.761230,31.214844
5320,-9.174581,-2.063802,0.095768,26.306152,21.087646,-11.474609,31.244141
5360,-10.007763,-0.426168,1.058237,104.705811,6.591797,4.486084,31.232422
5400,-11.832145,-0.751779,2.183512,-49.987793,-76.782227,26.336670,31.244141
5440,-12.986150,-2.705448,-1.134852,-224.334717,-56.121826,39.978027,31.228516
5480,-13.182474,-0.876278,-3.217807,-131.744385,105.682373,55.480957,31.242188
5520,-11.496957,-2.121263,-3.983952,-36.376953,149.169922,106.506348,31.244141
5560,-11.401189,-7.278373,0.134075,-78.155518,44.097900,78.948975,31.236328
5600,-11.444284,-5.999869,2.097321,-153.747559,54.107666,65.765381,31.246094
5640,-11.319786,-0.028730,-0.301669,-104.675293,-34.515381,77.392578,31.248047
5680,-9.433155,-0.320823,-0.703895,4.730225,52.734375,79.345703,31.248047
5720,-7.038953,-2.533065,-0.258574,108.093262,78.399658,66.436768,31.246094
5760,-5.937620,-1.982399,0.837971,78.460693,47.119141,50.598145,31.265625
5800,-5.066131,-2.437297,-0.067038,58.135986,-25.421143,17.486572,31.261719
5840,-4.611232,-2.710236,-1.877054,81.024170,-45.318604,-21.667480,31.267578
5880,-5.755661,-1.709460,-3.538630,104.461670,-60.974121,-38.726807,31.261719
5920,-13.795390,4.620809,-7.019799,6.500244,-12.573242,22.399902,31.255859
5960,-14.724340,6.397307,-6.019023,24.810791,15.319824,18.615723,31.255859
6000,-11.243171,1.091756,-2.513912,26.519775,-44.860840,-14.617920,31.244141
6040,-12.761095,-3.576937,1.369483,-101.226807,11.505127,-21.118164,31.253906
6080,-8.394072,-6.253655,-0.871489,29.693604,-30.609131,-48.553467,31.259766
6120,-8.341399,-7.407660,-0.483629,69.519043,-100.067139,-83.099365,31.283203
6160,-8.820239,-5.746084,1.642422,103.240967,36.407471,-100.616455,31.380859
6200,-7.738060,-4.812346,3.394978,65.216064,-50.506592,-94.146729,31.390625
6240,-9.897630,-1.776498,4.515464,100.769043,-8.453369,-47.637939,31.369141
6280,-10.342952,0.225055,1.905785,-35.919189,-147.979736,-14.251709,31.373047
6320,-9.730036,-0.612916,-1.077391,-166.992188,-89.538574,-7.843018,31.384766
6360,-9.466674,-0.330400,-2.068590,-0.427246,-42.297363,-23.742676,31.365234
6400,-9.385271,-0.684742,-0.804452,60.150146,-15.106201,-27.099609,31.388672
6440,-8.810662,-1.383849,0.574608,5.065918,-40.008545,-18.859863,31.390625
6480,-8.954314,-2.489970,0.986411,-55.816650,-32.897949,-9.735107,31.406250
6520,-9.959879,-1.776498,0.248997,27.191162,-5.706787,-1.251221,31.400391
6560,-11.559206,-0.780510,0.679953,22.399902,5.249023,15.930176,31.394531
6600,-13.498509,-1.977611,0.746991,-180.938721,-34.881592,37.139893,31.404297
6640,-13.704411,-1.422156,-1.110910,-189.056396,65.216064,60.028076,31.423828
6680,-12.004527,-0.550666,-4.103662,-41.412354,174.011230,116.485596,31.408203
6720,-12.090718,-5.262455,-0.339977,-66.406250,44.036865,95.306396,31.410156
6760,-12.215217,-6.564901,2.456451,-111.450195,81.176758,89.294434,31.404297
6800,-11.295844,-0.335188,0.057461,-116.455078,23.193359,97.045898,31.408203
6840,-9.141062,-0.598550,0.033519,-19.287109,48.553467,91.033936,31.419922
6880,-7.445967,-2.236184,-0.086191,123.809814,62.316895,72.509766,31.437500
6920,-5.726931,-1.886631,1.134852,94.848633,44.128418,56.488037,31.419922
6960,-4.606444,-2.226608,0.555455,70.800781,-31.982422,17.333984,31.441406
7000,-3.873818,-2.676718,-1.259350,81.878662,-49.835205,-21.545410,31.423828
7040,-5.525817,-1.321599,-3.634398,114.349365,-62.561035,-55.267334,31.423828
7080,-15.160085,6.153099,-7.671022,22.064209,-13.916016,20.904541,31.439453
7120,-15.169662,6.593631,-5.420473,18.890381,12.939453,16.876221,31.421875
7160,-13.215993,-0.138864,-1.398214,20.294189,-39.306641,-25.024414,31.439453
7200,-10.979809,-4.572925,2.111686,-78.369141,36.468506,-19.927979,31.423828
7240,-5.650316,-6.756437,-1.173159,-34.118652,-77.209473,-63.323975,31.439453
7280,-9.825804,-7.436390,-0.976834,132.629395,-22.583008,-115.722656,31.437500
7320,-9.117120,-5.128380,0.900220,186.340332,-54.321289,-129.943848,31.447266
7360,-8.475474,-2.964022,5.669470,36.407471,36.926270,-65.032959,31.458984
7400,-10.524911,0.124498,3.825934,67.749023,-91.857910,-24.261475,31.437500
7440,-9.591172,-0.124498,-0.464475,-217.956543,-156.494141,-5.828857,31.443359
7480,-9.083601,-1.446098,-2.892196,-96.221924,-54.779053,-23.040771,31.458984
7520,-9.227253,-0.809240,-2.480393,117.675781,-1.892090,-37.475586,31.449219
7560,-9.390059,-1.197101,0.407014,68.969727,-23.132324,-40.161133,31.455078
7600,-9.035717,-1.106121,1.010353,13.214111,-16.448975,-23.254395,31.451172
7640,-9.538500,0.000000,0.976834,89.782715,20.812988,1.373291,31.451172
7680,-11.295844,0.679953,1.364695,37.475586,6.347656,19.592285,31.453125
7720,-12.785037,-1.130063,1.666364,-232.574463,-61.248779,42.297363,31.468750
7760,-13.268666,-4.419696,-1.948880,-160.278320,46.844482,35.827637,31.468750
7800,-11.856087,-0.258574,-3.246537,-106.964111,115.020752,97.595215,31.460938
7840,-11.233594,-3.730166,-1.503559,-66.955566,105.163574,114.807129,31.464844
7880,-12.636597,-7.431602,1.177947,-117.004395,54.748535,87.677002,31.472656
7920,-12.502522,-3.409343,-0.320823,-136.932373,24.047852,86.242676,31.468750
7960,-9.811439,0.708684,-0.430956,-21.423340,23.620605,87.371826,31.468750
8000,-7.431602,-1.154005,0.248997,66.345215,71.350098,77.392578,31.470703
8040,-5.597643,-1.862689,0.842759,129.272461,54.534912,53.894043,31.476562
8080,-4.893748,-2.197877,1.374272,55.694580,-22.338867,32.409668,31.474609
8120,-4.367024,-2.394202,-0.742203,89.019775,-69.885254,-6.103516,31.492188
8160,-4.812346,-2.221819,-2.710236,111.846924,-62.774658,-57.739258,31.570312
8200,-12.808979,3.596091,-7.067683,98.602295,-13.000488,-4.760742,31.582031
8240,-16.658855,8.523358,-6.636727,-23.681641,14.251709,27.832031,31.574219
8280,-9.011775,2.020706,-1.843535,34.210205,-34.912109,-35.583496,31.583984
8320,-10.625467,-6.133945,3.169923,121.948242,-104.583740,-95.306396,31.589844
8360,-12.445061,-6.708553,0.253785,-185.852051,-42.755127,-25.909424,31.591797
8400,-7.522582,-6.938396,-1.498770,-7.354736,-192.932129,-78.094482,31.609375
8440,-9.481039,-5.276821,1.292869,213.775635,111.877441,-102.813721,31.574219
8480,-9.399636,-4.678270,3.734955,55.053711,27.984619,-67.138672,31.597656
8520,-9.356541,-2.734178,3.715801,221.527100,30.517578,-48.675537,31.589844
8560,-7.943961,-0.675165,0.186748,33.294678,-74.371338,-27.984619,31.589844
8600,-7.560889,0.076614,-1.369483,-18.402100,-99.456787,0.854492,31.599609
8640,-8.164227,-0.766145,-0.550666,-2.197266,-62.927246,-15.625000,31.601562
8680,-9.442732,-2.762909,0.517148,-61.767578,-67.413330,-31.127930,31.597656
8720,-10.347740,-1.958457,-0.019154,-82.824707,-47.088623,-18.188477,31.617188
8760,-11.693281,0.407014,-0.378284,61.248779,10.101318,10.925293,31.595703
8800,-13.163321,1.972822,1.771709,-98.724365,-28.625488,55.389404,31.603516
8840,-14.451402,-1.470040,-0.450110,-223.907471,23.803711,85.662842,31.607422
8880,-13.201628,-2.624045,-5.195418,-127.746582,138.061523,107.940674,31.607422
8920,-12.607866,-7.125144,-1.728614,-103.729248,97.229004,85.784912,31.623047
8960,-12.167333,-7.594408,2.169147,-167.785645,87.188721,83.343506,31.617188
9000,-12.880805,-0.713472,-1.048660,-107.330322,44.982910,93.048096,31.607422
9040,-9.289502,-1.192312,0.081403,-45.562744,44.281006,97.473145,31.613281
9080,-6.114791,-2.657564,0.847547,46.478271,54.016113,78.033447,31.623047
9120,-4.232949,-1.944092,0.727837,92.803955,31.646729,49.316406,31.613281
9160,-3.366248,-2.178724,0.502782,53.588867,-44.494629,15.594482,31.621094
9200,-3.399766,-2.274492,-1.187524,73.760986,-65.155029,-26.214600,31.628906
9240,-5.975927,-1.623269,-3.567361,165.008545,-51.055908,-52.093506,31.638672
9280,-16.768990,7.034164,-7.939173,21.423340,20.660400,62.805176,31.630859
9320,-14.456190,6.818686,-6.483498,31.280518,12.084961,10.284424,31.636719
9360,-8.374918,1.292869,-1.877054,-14.007568,-66.162109,-46.600342,31.623047
9400,-10.869676,-5.267244,1.920150,-14.526367,-41.259766,-102.874756,31.626953
9440,-11.640609,-7.785944,-0.550666,-46.325684,-91.979980,-51.666260,31.623047
9480,-8.288726,-7.915231,-0.114922,62.255859,-107.666016,-103.424072,31.632812
9520,-8.518570,-6.095637,1.489193,146.026611,19.134521,-108.978271,31.638672
9560,-9.078813,-2.882619,4.065354,-1.281738,-11.077881,-66.986084,31.630859
9600,-9.777920,-1.446098,4.788404,99.090576,-34.179688,-45.471191,31.642578
9640,-8.418014,-1.039083,1.546654,-10.559082,-58.319092,-31.860352,31.632812
9680,-8.221688,-0.584185,-0.636858,-53.863525,-76.049805,-8.880615,31.642578
9720,-9.241618,0.239420,-0.847547,-20.568848,-52.612305,-15.167236,31.648438
9760,-9.854534,-0.316035,-0.344765,-31.066895,-43.914795,-23.193359,31.642578
9800,-9.639056,-1.431733,-0.205901,-9.338379,-32.531738,-23.986816,31.658203
9840,-9.926360,-0.900220,0.225055,16.021729,41.687012,2.075195,31.666016
9880,-11.875240,0.541090,1.249773,-88.531494,-23.956299,23.406982,31.646484
9920,-13.053187,-1.077391,2.571373,-225.585938,-114.624023,60.241699,31.669922
9960,-13.029245,-1.216254,-3.725378,-230.773926,91.278076,83.801270,31.656250
10000,-12.181698,-0.067038,-4.022259,60.241699,143.615723,136.657715,31.667969
10040,-14.302961,-6.253655,0.986411,31.188965,63.903809,95.794678,31.671875
10080,-15.322891,-6.919243,2.054225,-167.541504,71.228027,117.706299,31.658203
10120,-11.726800,-1.182736,-0.579397,-14.678955,57.861328,99.151611,31.769531
10160,-8.307879,-1.000776,0.517148,26.153564,65.765381,99.243164,31.767578
10200,-5.602432,-2.652776,0.928950,132.354736,63.171387,73.638916,31.773438
10240,-3.825934,-2.633622,1.417367,106.750488,27.130127,52.429199,31.748047
10280,-3.227384,-2.968810,0.110133,81.726074,-51.177979,14.129639,31.769531
10320,-3.040636,-2.901772,-1.594538,79.772949,-58.837891,-31.677246,31.761719
10360,-9.165004,0.497994,-5.506664,105.957031,-60.638428,-1.556396,31.771484
10400,-18.195932,9.303867,-7.891289,-17.608643,-3.143311,33.264160,31.769531
10440,-11.176133,5.343858,-4.707001,-23.376465,-36.712646,-17.578125,31.781250
10480,-9.327810,-2.624045,1.776498,45.471191,14.648438,-169.769287,31.787109
10520,-13.139379,-8.753201,1.120486,-118.591309,-82.702637,-26.489258,31.785156
10560,-8.087613,-7.532158,-0.780510,-83.496094,-219.085693,-49.163818,31.791016
10600,-8.422802,-6.373365,1.163582,38.543701,28.686523,-107.757568,31.769531
10640,-8.312668,-6.708553,2.427721,160.339355,8.300781,-125.579834,31.798828
10680,-9.466674,-3.002329,5.511452,217.376709,63.842773,-75.927734,31.806641
10720,-9.409213,1.249773,3.418920,33.752441,-93.841553,-20.690918,31.791016
10760,-8.231265,1.211466,-0.067038,-109.466553,-113.891602,3.997803,31.804688
10800,-8.767567,0.632069,-1.158794,-139.007568,-127.380371,-0.244141,31.779297
10840,-9.859323,-1.039083,-1.163582,-148.681641,-69.519043,-17.333984,31.802734
10880,-10.175357,-1.972822,-0.967257,-61.248779,1.800537,-26.611328,31.794922
10920,-11.295844,-0.387861,-0.416591,124.847412,21.820068,1.464844,31.816406
10960,-12.334928,1.795651,1.077391,-66.558838,-1.770020,49.652100,31.806641
11000,-13.148955,-1.254562,-0.660800,-232.604980,38.299561,73.455811,31.785156
11040,-12.516887,-1.063026,-3.567361,-201.507568,130.371094,130.584717,31.812500
11080,-13.675680,-3.620033,-2.288857,35.583496,125.549316,146.118164,31.818359
11120,-16.687586,-8.379706,1.747767,-59.661865,54.931641,55.999756,31.806641
11160,-13.115437,-5.995081,-0.162806,-155.822754,32.135010,109.741211,31.818359
11200,-8.528147,-0.268151,0.000000,-45.684814,32.379150,99.426270,31.810547
11240,-6.483498,-1.479617,0.272939,80.413818,37.017822,73.303223,31.792969
11280,-4.228160,-2.753332,1.254562,89.019775,32.684326,45.349121,31.810547
11320,-3.179500,-2.940080,0.617704,68.786621,-43.548584,6.652832,31.812500
11360,-2.456451,-3.236961,-0.972046,76.110840,-41.564941,-33.203125,31.816406
11400,-5.453991,-2.446874,-2.829947,141.418457,-32.928467,-34.210205,31.828125
11440,-18.224663,9.002198,-7.541735,-9.704590,27.313232,64.117432,31.822266
11480,-14.398729,8.255207,-6.076484,20.141602,-13.336182,3.753662,31.824219
11520,-8.422802,-0.186748,0.090980,45.227051,-28.045654,-118.011475,31.806641
11560,-13.287820,-5.650316,0.727837,-213.226318,-104.125977,-38.940430,31.849609
11600,-10.031705,-8.355764,-0.732626,10.498047,-91.827393,-39.764404,31.847656
11640,-8.480263,-6.593631,0.225055,35.552979,-51.391602,-91.186523,31.855469
11680,-8.207323,-5.573701,1.972822,100.341797,18.402100,-126.434326,31.847656
11720,-8.753201,-5.410896,3.979163,212.280273,67.230225,-99.853516,31.841797
11760,-9.974244,-0.770933,3.883395,119.262695,-116.943359,-40.161133,31.849609
11800,-8.892065,1.541866,0.148441,-237.030029,-113.250732,5.706787,31.849609
11840,-8.446744,-0.153229,-2.111686,-34.118652,-45.379639,-30.242920,31.847656
11880,-9.351752,-1.532289,-0.632069,51.635742,-32.867432,-43.792725,31.847656
11920,-9.892841,-1.331176,1.599327,-94.421387,-42.877197,-33.447266,31.859375
11960,-9.830592,-0.632069,-0.426168,43.914795,-0.244141,-16.235352,31.869141
12000,-10.615891,0.766145,0.253785,154.632568,31.677246,3.479004,31.859375
12040,-12.258312,1.058237,2.537854,-95.062256,1.129150,45.593262,31.861328
12080,-13.642161,-2.829947,0.569820,-221.588135,-11.474609,46.569824,31.855469
12120,-12.459426,-0.895431,-2.475605,-143.341064,101.440430,94.146729,31.941406
12160,-11.463438,-2.183512,-3.500323,-21.118164,128.082275,142.028809,31.941406
12200,-13.306973,-7.053318,0.545878,2.746582,88.775635,87.341309,31.962891
12240,-14.097059,-4.817134,1.489193,-164.062500,28.594971,89.599609,31.960938
12280,-9.753978,-0.536301,-0.871489,-87.310791,-0.671387,101.257324,31.966797
12320,-7.929596,-1.355118,-0.177171,63.507080,42.175293,89.080811,31.945312
12360,-5.339070,-1.872266,0.842759,112.976074,39.978027,65.826416,31.951172
12400,-3.797204,-1.968034,1.522712,94.604492,-1.251221,32.012939,31.966797
12440,-3.423708,-2.537854,0.033519,95.062256,-64.910889,-10.711670,31.972656
12480,-4.611232,-2.212242,-2.260126,139.587402,-40.618896,-59.265137,31.933594
12520,-14.686033,4.175488,-7.814674,108.734131,12.847900,28.472900,31.949219
12560,-17.444153,8.279149,-7.005434,1.129150,34.637451,40.405273,31.962891
12600,-9.026140,1.254562,-3.184288,0.915527,-62.866211,-40.252686,31.970703
12640,-12.071565,-4.812346,3.529053,-42.938232,-21.118164,-49.987793,31.966797
12680,-10.093954,-6.258443,-0.368707,-127.807617,-59.173584,-56.793213,31.990234
12720,-7.493851,-8.231265,-0.890643,96.221924,-112.792969,-133.758545,31.970703
12760,-9.203311,-6.986280,1.211466,81.359863,-46.173096,-113.250732,31.960938
12800,-8.987833,-4.510676,3.687071,46.356201,-12.420654,-91.339111,31.970703
12840,-10.371682,-1.235408,4.448427,127.410889,-30.059814,-54.473877,31.957031
12880,-9.543288,2.169147,1.302446,-132.781982,-141.448975,-11.993408,31.982422
12920,-7.982268,0.047884,-1.446098,-38.238525,-66.375732,-31.005859,31.988281
12960,-8.212111,-1.264138,-1.728614,104.736328,-5.401611,-48.431396,31.974609
13000,-9.040505,-2.643199,0.972046,42.388916,-31.890869,-51.818848,31.992188
13040,-9.916783,-1.584962,1.958457,-53.405762,-31.097412,-21.636963,31.992188
13080,-11.659762,-0.368707,0.837971,35.949707,18.585205,4.943848,31.982422
13120,-12.545617,1.628057,1.163582,-33.172607,13.427734,37.292480,31.994141
13160,-12.990938,-0.469264,0.359130,-142.944336,39.367676,61.828613,31.980469
13200,-12.172121,-0.924162,-1.733402,-163.482666,112.731934,108.032227,31.996094
13240,-12.330139,-4.046201,-2.762909,6.317139,97.412109,128.051758,32.005859
13280,-13.986926,-8.130709,1.905785,-90.179443,74.829102,95.275879,31.982422
13320,-13.862428,-4.060566,0.588974,-246.490479,25.238037,121.154785,32.000000
13360,-9.270349,-1.810017,-1.896208,-29.510498,-3.112793,100.524902,32.003906
13400,-7.575254,-0.909797,0.277727,52.459717,39.672852,86.639404,32.001953
13440,-5.506664,-2.466028,1.048660,97.869873,41.656494,66.406250,31.996094
13480,-3.806781,-2.609680,1.034295,95.794678,-8.850098,29.296875,32.017578
13520,-2.983175,-2.853889,-0.344765,85.754395,-55.786133,-8.941650,31.992188
13560,-4.481946,-2.724602,-2.346318,141.418457,-43.853760,-63.751221,31.990234
13600,-15.500062,5.626374,-6.938396,63.903809,4.577637,54.840088,32.005859
13640,-17.348385,9.797073,-5.990293,32.135010,42.083740,36.529541,32.015625
13680,-8.810662,2.389413,-2.485181,-8.148193,-68.267822,-39.703369,32.013672
13720,-10.381259,-4.424485,3.356671,-48.309326,-10.894775,-111.267090,32.021484
13760,-11.051635,-7.963115,-0.124498,-71.899414,-87.921143,-33.752441,32.001953
13800,-9.136273,-7.527370,0.330400,66.864014,-149.902344,-111.480713,32.023438
13840,-8.719683,-5.731719,3.069367,-106.506348,-98.358154,-114.166260,32.009766
13880,-8.499416,-5.142745,3.552995,26.306152,-71.899414,-81.909180,32.021484
13920,-9.567230,-3.634398,2.485181,205.078125,-11.962891,-118.774414,32.015625
13960,-9.083601,0.804452,1.149217,-14.526367,-28.808594,-36.254883,32.039062
14000,-7.862558,1.642422,1.000776,40.191650,-26.611328,-29.785156,32.042969
14040,-8.130709,-0.114922,1.316811,18.585205,-17.425537,-25.970459,32.042969
14120,-9.653421,-2.504335,1.374272,-50.323486,-28.167725,-28.930664,32.111328
14160,-11.257536,-0.526724,1.086968,87.677002,21.575928,-11.444092,32.113281
14200,-12.109872,1.034295,1.493982,-1.556396,32.775879,30.151367,32.115234
14240,-12.914324,0.014365,1.249773,-195.007324,31.860352,62.072754,32.115234
14280,-12.627020,-1.139640,-1.589750,-225.189209,120.635986,92.834473,32.115234
14320,-11.793838,-1.766921,-3.160346,-36.010742,126.312256,144.165039,32.123047
14360,-13.747506,-6.387730,1.029507,-45.654297,60.363770,99.304199,32.121094
14400,-14.662091,-5.789180,1.436521,-250.579834,26.947021,107.299805,32.117188
14440,-10.572795,-0.665588,-1.565808,18.096924,-3.692627,113.220215,32.111328
14480,-7.522582,-0.301669,0.574608,37.963867,50.567627,101.074219,32.123047
14520,-6.009446,-1.580173,0.675165,159.027100,36.956787,58.380127,32.162109
14560,-4.357447,-2.217031,1.996764,124.084473,3.967285,38.787842,32.146484
14600,-3.672705,-3.524265,0.670376,89.233398,-63.385010,1.800537,32.140625
14640,-4.041412,-3.658340,-2.039860,115.417480,-47.271729,-46.447754,32.132812
14680,-12.717999,2.245761,-6.770802,72.418213,-2.807617,25.695801,32.132812
14720,-18.018763,10.390836,-6.406884,21.423340,29.876709,40.771484,32.134766
14760,-8.762778,4.410120,-2.523489,-11.627197,-40.374756,-26.824951,32.123047
14800,-8.408437,-4.012682,3.213019,71.166992,-13.153076,-194.732666,32.140625
14840,-12.966996,-10.304645,1.206678,-136.810303,-71.624756,-36.468506,32.136719
14880,-8.475474,-7.991845,-0.995988,-65.032959,-108.062744,-83.801270,32.140625
14920,-9.495404,-6.028600,0.339977,105.957031,23.315430,-105.926514,32.136719
14960,-9.126697,-5.070919,2.552219,221.679688,2.624512,-92.620850,32.152344
15000,-9.495404,-2.585738,3.136404,275.726318,-67.718506,-77.697754,32.134766
15040,-8.595184,0.780510,1.431733,-68.054199,-82.336426,-10.406494,32.148438
15080,-7.345411,1.015141,0.105345,-9.704590,-56.304932,-8.117676,32.142578
15120,-8.475474,-0.100556,1.326388,-59.906006,-76.629639,-7.324219,32.152344
15160,-10.098742,-1.843535,1.417367,-181.457520,-103.881836,-10.772705,32.146484
15200,-10.208876,-2.015918,-0.660800,-83.435059,-25.787354,-21.606445,32.152344
15240,-11.434708,0.158017,-0.847547,153.411865,22.277832,-11.505127,32.154297
15280,-12.066776,1.623269,1.446098,-25.695801,30.120850,39.581299,32.185547
15320,-12.368446,-0.928950,0.679953,-226.287842,21.179199,58.563232,32.166016
15360,-11.846510,-2.039860,-1.872266,-247.192383,128.204346,89.569092,32.164062
15400,-11.563994,-0.962469,-2.719813,-3.967285,129.669189,150.268555,32.173828
15440,-14.346057,-5.252879,1.086968,35.003662,87.707520,88.470459,32.175781
15480,-15.806520,-5.315128,2.518700,-234.252930,-7.781982,91.796875,32.177734
15520,-11.032481,0.296881,-0.474052,-117.614746,-13.427734,132.751465,32.181641
15560,-8.710106,-1.024718,-1.019930,121.948242,41.900635,106.597900,32.164062
15600,-6.449979,-1.958457,1.441309,143.615723,41.046143,65.795898,32.181641
15640,-4.587290,-3.007117,2.499547,140.930176,8.056641,41.931152,32.166016
15680,-3.222595,-4.486734,0.727837,100.250244,-52.246094,-1.037598,32.175781
15720,-3.667917,-4.242526,-2.365471,102.172852,-43.487549,-44.158936,32.164062
15760,-12.694057,3.586514,-7.469909,115.325928,0.946045,7.965088,32.166016
15800,-16.505627,9.959879,-5.295974,-3.692627,-17.883301,15.350342,32.193359
15840,-9.648633,4.395754,-0.804452,-5.950928,-32.806396,-62.286377,32.160156
15880,-12.205640,-4.721366,3.481169,61.035156,-33.142090,-131.713867,32.179688
15920,-11.252748,-8.542512,0.368707,-190.582275,0.610352,-36.102295,32.193359
15960,-7.484274,-7.441179,-1.972822,-12.481689,-74.737549,-95.214844,32.189453
16000,-10.304645,-5.219360,0.000000,258.666992,110.137939,-127.868652,32.199219
16040,-11.458650,0.445322,1.857901,86.853027,-78.125000,-114.868164,32.173828
16080,-5.798757,-1.441309,2.609680,-85.601807,-144.744873,72.113037,32.263672
16120,-6.143522,-7.139510,1.594538,156.768799,4.852295,-63.232422,32.253906
16160,-8.470686,-2.413355,0.263362,182.525635,-145.629883,-41.961670,32.285156
16200,-9.979033,1.699883,0.138864,-135.467529,-89.904785,-9.552002,32.273438
16240,-10.735600,-0.191536,0.009577,-41.992188,-47.943115,-52.001953,32.281250
16280,-10.534488,-1.556231,-0.316035,10.986328,-8.087158,-32.104492,32.261719
16320,-11.525687,0.248997,0.885855,104.400635,23.223877,-8.209229,32.275391
16360,-12.143391,1.584962,1.824382,-77.423096,42.846680,57.586670,32.296875
16400,-13.292608,-0.823605,-0.794875,-225.433350,22.705078,63.995361,32.291016
16440,-11.559206,-2.025495,-2.686294,-78.094482,111.236572,74.829102,32.287109
16480,-10.658986,-0.723049,-0.646434,-35.247803,119.201660,135.772705,32.296875
16520,-13.814544,-4.103662,1.800440,19.927979,92.498779,98.693848,32.287109
16560,-15.452178,-4.711789,2.461239,-193.267822,21.301270,105.865479,32.306641
16600,-11.085154,-1.498770,-1.086968,-30.975342,26.275635,104.248047,32.300781
16640,-8.149862,-1.671153,-0.196325,110.229492,49.896240,98.022461,32.292969
16680,-7.019799,-1.345541,1.695095,139.587402,41.351318,78.369141,32.292969
16720,-5.243302,-2.466028,1.891419,129.791260,12.145996,43.212891,32.277344
16760,-4.012682,-3.672705,0.339977,133.270264,-27.221680,19.317627,32.316406
16800,-3.495534,-4.299986,-1.709460,101.623535,-48.736572,-28.839111,32.287109
16840,-8.226477,-0.316035,-4.381389,83.923340,-52.032471,-35.888672,32.296875
16880,-16.759413,8.552089,-7.493851,28.472900,2.258301,23.498535,32.291016
16920,-13.728353,6.033388,-4.223372,36.071777,-3.662109,15.472412,32.322266
16960,-12.612655,0.244209,1.292869,-42.999268,-30.151367,-39.031982,32.304688
17000,-10.630256,-5.085284,-0.450110,-177.642822,-50.018311,-13.763428,32.304688
17040,-7.335834,-7.920019,-1.963245,18.798828,-75.683594,-87.524414,32.328125
17080,-8.513782,-8.006210,0.478840,35.797119,-21.606445,-163.574219,32.304688
17120,-10.414778,-3.672705,2.111686,63.903809,8.087158,-183.410645,32.304688
17160,-9.433155,0.023942,3.591303,48.400879,-38.238525,-68.939209,32.291016
17200,-4.247314,-5.837064,2.499547,296.020508,79.162598,37.506104,32.298828
17240,-9.016563,-2.604892,0.814029,311.401367,-43.426514,-46.875000,32.318359
17280,-10.477027,2.839523,-0.933739,-123.992920,-162.475586,14.282227,32.326172
17320,-9.974244,0.086191,-1.580173,-232.849121,-86.578369,-3.936768,32.300781
17360,-9.653421,-2.466028,-1.273715,-63.079834,-87.585449,-22.552490,32.304688
17400,-10.874464,-1.106121,-0.699107,30.700684,6.042480,-2.227783,32.326172
17440,-11.827356,1.651999,0.837971,9.124756,36.010742,39.459229,32.330078
17480,-12.957419,1.015141,0.742203,-202.606201,39.001465,98.083496,32.330078
17520,-13.852851,-2.604892,-3.730166,-225.921631,119.689941,114.013672,32.324219
17560,-13.752295,-7.843405,-3.878607,-61.584473,122.161865,86.364746,32.335938
17600,-12.516887,-10.874464,0.512359,-205.535889,62.866211,71.868896,32.333984
17640,-11.176133,-3.371036,-0.574608,-189.086914,-5.706787,87.280273,32.326172
17680,-8.920795,0.014365,-0.924162,-77.606201,6.988525,88.500977,32.351562
17720,-7.163452,-2.619257,0.186748,4.943848,45.562744,78.887939,32.343750
17760,-5.176264,-2.801216,-0.019154,65.093994,0.244141,42.419434,32.345703
17800,-3.926491,-2.398990,-0.201113,39.886475,-62.957764,6.591797,32.324219
17840,-3.591303,-2.968810,-1.182736,35.278320,-82.305908,-32.226562,32.349609
17880,-5.616797,-3.414132,-1.671153,112.548828,-85.632324,-103.454590,32.335938
17920,-16.270994,4.381389,-4.697424,-10.284424,-25.939941,58.013916,32.308594
17960,-16.318878,10.606314,-5.453991,-108.825684,-7.263184,11.566162,32.343750
18000,-11.257536,0.421380,-1.417367,-4.638672,-37.109375,-88.043213,32.345703
18040,-13.311762,-7.101202,-1.675941,-74.981689,-4.119873,-7.995605,32.347656
18080,-9.045294,-7.675811,-1.091756,-32.806396,-96.618652,-50.109863,32.406250
18120,-9.533711,-6.315904,0.665588,76.110840,18.218994,-89.385986,32.445312
18160,-6.684611,-6.191406,0.986411,119.689941,90.606689,-83.221436,32.435547
18200,-6.866570,-6.378153,2.245761,181.671143,29.602051,-95.581055,32.431641
18240,-9.030929,-2.935291,4.209007,131.622314,-50.506592,-67.108154,32.414062
18280,-8.815451,-0.201113,3.514688,-64.025879,-23.498535,-52.825928,32.419922
18320,-10.079589,-1.833959,0.426168,-59.783936,14.190674,-46.630859,32.425781
18360,-9.844957,-1.661576,-0.593762,172.576904,81.207275,-29.907227,32.451172
18400,-10.146626,-0.440533,-1.719037,79.437256,-93.109131,-7.263184,32.443359
18440,-9.370906,-0.033519,-3.720589,-28.930664,-116.088867,9.613037,32.437500
18480,-8.212111,0.665588,-3.093309,-72.998047,-74.523926,66.986084,32.453125
18520,-11.386824,-1.819593,-1.403002,-153.594971,-126.434326,73.486328,32.447266
18560,-13.201628,-7.934384,-2.140416,-237.854004,-21.301270,26.489258,32.437500
18600,-11.563994,-4.831499,-3.394978,-252.136230,93.383789,36.926270,32.427734
18640,-10.635044,-4.050989,-5.027823,-214.508057,162.628174,92.803955,32.429688
18680,-12.545617,-6.272809,-2.691083,78.887939,158.569336,37.780762,32.439453
18720,-14.690822,-5.717354,1.972822,-352.416992,133.911133,35.919189,32.460938
18760,-11.027693,-2.365471,0.991199,-389.007568,-158.843994,86.364746,32.455078
18800,-7.120356,-2.877831,-2.681506,-159.698486,-21.118164,97.198486,32.451172
18840,-6.019023,-2.863465,-1.182736,18.249512,56.335449,79.528809,32.458984
18880,-4.601655,-0.770933,0.569820,42.083740,-10.803223,38.970947,32.470703
18920,-3.787627,-0.847547,0.148441,58.593750,-65.551758,-13.488770,32.457031
18960,-4.515464,-1.498770,-2.087744,144.317627,-16.204834,-45.623779,32.455078
19000,-13.048399,4.544195,-7.264008,53.985596,-48.370361,68.634033,32.474609
19040,-15.160085,8.595184,-6.449979,-29.510498,31.646729,12.145996,32.447266
19080,-9.615114,0.689530,-1.240196,-9.582520,10.009766,-41.839600,32.474609
19120,-10.716447,-6.224925,-4.070143,80.352783,-15.716553,-120.025635,32.458984
19160,-13.474567,-3.926491,-0.100556,105.346680,-112.335205,-154.388428,32.478516
19200,-11.731588,-2.389413,2.566584,102.478027,7.019043,-95.672607,32.447266
19240,-8.245630,-3.452439,2.509123,139.862061,51.757812,-86.730957,32.472656
19280,-7.920019,-2.437297,2.001553,271.759033,-3.479004,-94.665527,32.478516
19320,-7.613562,-0.756568,1.398214,158.691406,2.502441,-35.217285,32.474609
19360,-6.732495,-0.785298,0.311246,133.911133,8.941650,2.899170,32.480469
19400,-6.847417,-2.662352,-0.138864,142.120361,72.052002,-1.464844,32.484375
19440,-8.647857,-4.362236,-0.517148,78.308105,35.064697,-15.777588,32.501953
19480,-9.399636,-3.045424,0.474052,-93.780518,-7.812500,-53.009033,32.451172
19520,-9.552865,-2.528277,-0.483629,-54.931641,25.329590,-58.563232,32.476562
19560,-10.199299,-3.227384,-1.910573,84.716797,-25.482178,4.547119,32.480469
19600,-11.726800,-2.327164,-0.521936,32.440186,-15.655518,14.434814,32.464844
19640,-13.891158,-2.245761,-1.886631,17.944336,49.987793,15.686035,32.490234
19680,-13.005303,-1.623269,-5.300763,-125.366211,35.675049,-19.561768,32.478516
19720,-10.352529,-1.924938,-6.023811,-108.032227,199.584961,40.283203,32.480469
19760,-10.826580,-5.904101,-3.605668,-3.875732,128.326416,79.742432,32.505859
19800,-12.239159,-5.200206,0.665588,-70.251465,-44.219971,78.582764,32.488281
19840,-11.123461,-2.600103,2.796427,-123.321533,-195.007324,124.664307,32.527344
19880,-8.820239,-2.039860,2.303222,-76.934814,64.208984,148.712158,32.496094
19920,-7.388506,-1.948880,-0.517148,79.864502,121.826172,125.122070,32.492188
19960,-5.918467,-1.948880,1.048660,30.090332,17.974854,59.387207,32.496094
20000,-4.888960,-2.868254,0.162806,55.267334,-34.942627,24.902344,32.496094
20040,-3.960010,-4.271256,-2.159570,142.852783,-25.238037,-12.756348,32.576172
20080,-7.196970,-2.188300,-2.791639,65.856934,-88.073730,-49.621582,32.576172
20120,-15.782578,5.051765,-9.902418,-93.994141,0.244141,60.150146,32.580078
20160,-13.962984,5.837064,-5.789180,61.950684,7.049561,45.898438,32.574219
20200,-11.291056,0.928950,0.359130,69.458008,-130.096436,-89.111328,32.568359
20240,-11.918336,-2.997540,2.126051,-102.111816,43.365479,-86.090088,32.585938
20280,-9.557653,-5.267244,-0.612916,-52.093506,67.626953,-118.865967,32.574219
20320,-7.661446,-7.570466,-1.867477,89.538574,222.351074,-97.473145,32.580078
20360,-6.224925,-8.116343,-0.861913,243.164062,-94.268799,21.270752,32.593750
20400,-7.718906,-3.519476,1.307234,127.593994,-118.225098,-34.545898,32.595703
20440,-9.083601,-0.316035,1.776498,79.345703,11.474609,-22.583008,32.582031
20480,-8.418014,0.033519,-0.282516,-59.448242,40.771484,-31.555176,32.578125
20520,-8.465898,-0.746991,-2.408567,-63.049316,72.113037,-28.228760,32.607422
20560,-8.590396,-1.719037,-3.921702,-12.786865,7.202148,-13.610840,32.615234
20600,-8.561666,-2.360683,-4.194642,-21.697998,51.574707,-22.430420,32.605469
20640,-8.935161,-2.035071,-5.295974,-45.989990,100.341797,-11.352539,32.623047
20680,-10.697293,-1.508347,-5.803545,-64.544678,-45.379639,-21.179199,32.597656
20720,-11.832145,-3.366248,-4.108450,-27.160645,32.684326,15.686035,32.582031
20760,-11.415554,-4.410120,-6.976704,39.184570,157.562256,65.155029,32.605469
20800,-8.566454,-1.728614,-11.022904,-38.726807,144.622803,-14.984131,32.615234
20840,-5.497087,-2.006341,-11.880029,-93.597412,142.333984,-0.427246,32.625000
20880,-9.567230,-5.391742,-7.967903,-40.008545,34.637451,30.059814,32.587891
20920,-11.516110,-6.373365,-1.541866,-99.700928,25.482178,19.653320,32.605469
20960,-8.470686,-2.164358,-3.624821,-271.789551,-60.882568,-32.257080,32.607422
21000,-5.535394,-0.536301,-5.635951,-2.105713,-89.965820,118.011475,32.625000
21040,-4.932055,-1.110910,-1.948880,-19.165039,-178.955078,99.395752,32.626953
21080,-2.753332,-2.149993,0.043096,28.167725,-216.522217,23.834229,32.642578
21120,-4.343082,-3.591303,-0.962469,75.225830,-38.696289,-21.270752,32.617188
21160,-6.751649,-2.226608,-5.181053,140.869141,-53.375244,-78.796387,32.597656
21200,-14.441825,3.639187,-13.024457,-156.677246,-191.314697,45.257568,32.626953
21240,-13.642161,4.592079,-7.781156,31.524658,17.547607,6.317139,32.626953
21280,-11.204864,-0.785298,-1.541866,185.546875,40.863037,-67.474365,32.628906
21320,-11.161768,-2.772485,0.646434,-94.573975,-38.513184,-68.634033,32.640625
21360,-9.294291,-4.946421,-0.325611,-130.767822,73.913574,-53.039551,32.630859
21400,-7.431602,-8.288726,-1.513135,76.782227,-6.072998,-64.086914,32.630859
21440,-8.480263,-5.846641,0.828394,240.356445,-229.187012,-35.919189,32.611328
21480,-7.891289,-2.351106,4.759673,42.358398,8.087158,-41.625977,32.617188
21520,-7.307104,-1.881842,1.944092,-93.902588,189.453125,-31.555176,32.652344
21560,-6.555324,-1.005565,-2.068590,12.237549,230.773926,-41.778564,32.626953
21600,-7.105990,-0.694318,-4.429273,-14.617920,141.967773,-35.003662,32.634766
21640,-8.432379,-1.407791,-6.153099,5.310059,-55.114746,-29.174805,32.630859
21680,-7.896077,-1.915361,-6.962338,2.471924,103.027344,-24.963379,32.646484
21720,-8.025364,-1.000776,-8.916007,-26.092529,10.803223,-26.275635,32.634766
21760,-9.730036,-0.981623,-8.379706,-79.315186,-94.726562,-44.097900,32.623047
21800,-11.415554,-3.217807,-7.474698,-5.493164,27.740479,20.843506,32.648438
21840,-10.184934,-2.844312,-8.925584,63.385010,149.353027,84.716797,32.630859
21880,-6.603208,-0.488417,-10.462662,-43.426514,170.745850,9.246826,32.640625
21920,-5.540183,-2.729390,-11.362882,-94.268799,61.187744,24.230957,32.636719
21960,-10.443508,-6.402095,-6.670246,-44.586182,24.139404,38.665771,32.646484
22000,-10.295067,-4.860229,-3.040636,-197.509766,-8.758545,2.380371,32.656250
22040,-5.951985,-0.900220,-6.703765,-64.819336,-60.760498,63.323975,32.728516
22080,-5.315128,-0.248997,-3.821146,28.839111,-132.995605,134.765625,32.748047
22120,-4.175488,-1.259350,-0.416591,0.366211,-195.495605,44.860840,32.710938
22160,-2.595315,-2.604892,0.009577,61.706543,-280.120850,-11.901855,32.726562
22200,-4.367024,-4.209007,-1.043872,117.065430,21.697998,-54.534912,32.730469
22240,-10.002975,-1.891419,-9.878476,-88.836670,-133.483887,-17.822266,32.750000
22280,-15.835250,5.578490,-12.258312,53.588867,-60.089111,53.070068,32.736328
22320,-12.191275,1.948880,-6.095637,77.575684,28.625488,-13.397217,32.734375
22360,-12.085930,-1.417367,-0.459687,38.726807,29.083252,-30.487061,32.732422
22400,-10.280702,-3.849876,0.067038,-120.422363,-84.838867,-42.968750,32.732422
22440,-8.868123,-7.192182,-0.852336,40.161133,52.459717,-59.814453,32.730469
22480,-7.805098,-6.636727,-0.478840,55.328369,-166.809082,-58.044434,32.738281
22520,-7.953538,-3.371036,3.323152,28.198242,-193.023682,-58.990479,32.748047
22560,-6.833052,-2.518700,5.090073,-37.353516,42.297363,-26.855469,32.746094
22600,-7.637504,-2.030283,1.407791,-76.324463,159.606934,-40.344238,32.763672
22640,-7.747637,-0.335188,-2.317587,-37.200928,121.337891,-35.858154,32.761719
22680,-8.389283,-0.349553,-3.136404,-33.966064,-64.636230,-58.349609,32.751953
22720,-8.939949,-1.340753,-2.691083,9.521484,84.838867,-46.752930,32.750000
22760,-9.370906,-0.995988,-4.548983,-18.768311,188.842773,-53.955078,32.742188
22800,-10.070012,-0.689530,-7.053318,-22.125244,102.050781,-41.809082,32.757812
22840,-10.534488,-1.125275,-8.025364,-37.353516,13.763428,-20.629883,32.748047
22880,-10.295067,-2.149993,-9.701305,10.009766,67.169189,32.562256,32.738281
22920,-8.791509,-1.594538,-9.849746,28.015137,156.585693,67.901611,32.742188
22960,-7.790732,-2.260126,-10.553641,-60.516357,131.408691,19.653320,32.759766
23000,-8.786720,-5.027823,-9.232041,-28.808594,76.080322,94.268799,32.767578
23040,-10.821792,-5.023035,-5.104438,-180.572510,-37.506104,-1.159668,32.755859
23080,-8.188169,-0.847547,-6.014235,-131.286621,-94.299316,52.673340,32.765625
23120,-6.129156,0.000000,-4.922479,70.251465,-149.047852,188.293457,32.779297
23160,-4.955997,-1.015141,-0.708684,92.285156,-147.766113,88.836670,32.775391
23200,-3.816358,-1.584962,1.786075,32.745361,-226.043701,-0.762939,32.798828
23240,-3.902549,-4.501099,1.441309,-17.700195,-92.987061,-1.403809,32.775391
23280,-4.572925,-6.138733,-2.456451,137.573242,-23.010254,-29.235840,32.789062
23320,-13.493721,0.948104,-11.089942,-296.997070,-210.479736,59.967041,32.771484
23360,-17.046717,9.414001,-8.700529,20.904541,20.751953,67.016602,32.785156
23400,-8.820239,3.835511,0.268151,57.495117,-69.183350,-47.607422,32.791016
23440,-10.386047,-4.697424,4.582502,97.320557,-84.289551,-99.273682,32.785156
23480,-13.268666,-8.078036,1.177947,-173.828125,-26.458740,-98.327637,32.791016
23520,-10.342952,-7.225701,-2.231396,268.127441,67.382812,-88.928223,32.777344
23560,-8.092402,-4.261679,-2.250550,204.925537,-1.312256,-57.556152,32.783203
23600,-7.450756,-4.118027,1.474828,-236.389160,-327.026367,106.872559,32.771484
23640,-5.808333,-2.992752,6.392519,117.462158,-16.387939,-79.498291,32.775391
23680,-6.780379,-0.186748,4.836287,93.841553,-69.396973,-83.129883,32.781250
23720,-8.475474,1.833959,3.720589,-20.080566,-60.852051,-17.944336,32.798828
23760,-10.769119,2.288857,2.116474,-60.394287,-208.038330,30.426025,32.781250
23800,-10.879252,-0.627281,-0.943315,-428.283691,-16.296387,55.358887,32.781250
23840,-11.817780,-1.010353,-2.662352,-184.783936,1.892090,8.239746,32.787109
23880,-12.536040,0.177171,-0.737414,175.598145,18.493652,-17.486572,32.785156
23920,-12.310986,2.149993,0.335188,-53.649902,54.595947,73.608398,32.796875
23960,-12.674904,2.427721,-0.948104,-181.976318,159.271240,108.123779,32.785156
24000,-13.345281,-1.910573,-2.063802,72.998047,154.815674,112.976074,32.833984
24040,-15.629349,-7.125144,2.461239,-99.212646,83.007812,86.120605,32.865234
24080,-15.447390,-5.602432,1.034295,-328.308105,-38.879395,91.308594,32.849609
24120,-10.821792,0.574608,-0.809240,13.519287,26.275635,102.020264,32.875000
24160,-8.212111,-0.229843,0.392649,101.135254,39.031982,88.409424,32.869141
24200,-4.932055,-2.279280,2.097321,155.059814,44.738770,63.781738,32.861328
24240,-2.695871,-4.046201,2.140416,92.742920,-12.573242,45.623779,32.865234
24280,-2.226608,-4.074931,-0.296881,72.174072,-39.337158,-1.770020,32.900391
24320,-3.576937,-3.438074,-2.298434,133.972168,-31.311035,-37.353516,32.869141
24360,-15.528792,6.938396,-7.201759,15.045166,-6.774902,9.674072,32.875000
24400,-16.855181,11.022904,-5.827487,11.016846,-2.899170,2.014160,32.884766
24440,-7.896077,3.452439,-0.339977,20.599365,-31.555176,-59.722900,32.890625
24480,-8.283937,-4.434062,2.839523,133.575439,-111.053467,-155.364990,32.875000
24520,-16.706739,-10.826580,3.275268,-9.460449,-220.855713,-28.076172,32.896484
24560,-8.154651,-7.723695,1.786075,-223.815918,29.083252,-18.127441,32.917969
24600,-7.671022,-5.966351,0.651223,-5.096436,116.516113,-30.578613,32.863281
24640,-11.128249,-3.864242,0.459687,374.664307,112.182617,-93.902588,32.912109
24680,-9.394848,-0.545878,2.403779,396.942139,-38.543701,-70.800781,32.896484
24720,-6.823475,1.221043,2.039860,12.542725,-127.899170,-10.070801,32.886719
24760,-7.024588,1.072602,1.005565,-78.552246,-85.906982,12.207031,32.882812
24800,-8.585608,0.703895,1.096544,-148.101807,-93.170166,25.573730,32.882812
24840,-10.251971,-1.168370,0.000000,-271.118164,-119.873047,22.033691,32.906250
24880,-11.654974,-1.168370,-1.072602,-195.922852,-39.550781,3.295898,32.904297
24920,-12.315774,0.143652,-2.188300,55.908203,-8.239746,13.793945,32.898438
24960,-13.048399,1.072602,-1.628057,17.059326,38.482666,29.663086,32.894531
25000,-13.206416,0.158017,-0.244209,-259.246826,89.172363,62.286377,32.894531
25040,-12.339716,0.852336,-2.772485,-75.164795,148.620605,122.161865,32.910156
25080,-13.637373,-2.901772,-0.617704,155.761719,152.618408,91.888428,32.906250
25120,-15.097836,-5.281609,3.222595,-63.354492,78.369141,68.481445,32.914062
25160,-13.043611,0.885855,2.020706,-244.079590,12.878418,137.115479,32.904297
25200,-9.299079,0.186748,-0.598550,54.870605,51.879883,110.565186,32.925781
25240,-6.904878,-1.915361,0.828394,140.045166,52.551270,84.930420,32.908203
25280,-4.678270,-2.269703,1.939303,128.570557,18.066406,57.159424,32.912109
25320,-3.983952,-3.265691,1.604115,84.564209,-44.891357,20.294189,32.890625
25360,-3.356671,-4.060566,-1.024718,90.576172,-60.150146,-31.951904,32.906250
25400,-6.957550,-1.881842,-3.236961,126.281738,-79.345703,-64.453125,32.906250
25440,-16.836027,6.933608,-9.208099,-31.616211,-9.674072,27.709961,32.892578
25480,-12.646173,8.954314,-5.875371,6.622314,-36.956787,7.263184,32.916016
25520,-6.200983,3.835511,3.031059,63.507080,-43.884277,-84.991455,32.919922
25560,-12.612655,-5.224148,4.434062,117.309570,-208.160400,-102.722168,32.917969
25600,-13.814544,-8.585608,1.872266,-344.757080,2.410889,34.515381,32.931641
25640,-7.972692,-7.015011,-1.374272,-86.578369,-174.682617,-37.445068,32.916016
25680,-8.628703,-5.861006,0.612916,110.290527,103.302002,-54.565430,32.933594
25720,-10.553641,-5.224148,2.628834,207.550049,40.893555,-102.050781,32.929688
25760,-10.232818,-1.565808,3.864242,250.366211,5.920410,-90.850830,32.937500
25800,-8.379706,2.173935,1.695095,121.765137,-90.911865,-38.665771,32.921875
25840,-7.910442,1.517924,-0.028730,-150.329590,-85.632324,15.197754,32.949219
25880,-8.499416,-0.751779,-0.220267,-124.420166,-92.437744,2.380371,32.929688
25920,-9.576807,-1.455675,-0.229843,-113.159180,-57.861328,-20.172119,32.910156
25960,-10.228029,0.186748,-0.383072,18.798828,-2.288818,-15.533447,32.941406
26000,-10.769119,1.288081,1.283292,81.024170,-1.739502,-1.556396,32.988281
26040,-11.712435,1.460463,1.637634,-161.315918,-20.751953,47.332764,32.994141
26080,-12.861651,-2.379837,-1.561020,-197.967529,14.343262,36.010742,32.964844
26120,-12.655750,-1.474828,-2.260126,-203.155518,109.191895,90.667725,33.003906
26160,-12.497733,-0.119710,-2.609680,33.630371,138.183594,154.266357,32.990234
26200,-14.585477,-5.468357,0.679953,35.766602,113.281250,64.697266,33.011719
26240,-13.560759,-5.075707,1.584962,-212.280273,56.549072,91.522217,32.998047
26280,-10.314221,0.430956,-0.067038,-117.523193,40.466309,123.687744,33.000000
26320,-8.825027,-1.048660,-0.167594,139.739990,91.552734,118.957520,32.990234
26360,-6.607996,-1.685518,1.604115,117.950439,101.989746,111.419678,33.000000
26400,-4.639963,-1.623269,1.584962,34.973145,-8.636475,44.921875,33.017578
26440,-3.169923,-2.154782,-0.225055,77.545166,-55.969238,-4.211426,33.001953
26480,-3.490746,-1.403002,-2.360683,108.123779,-85.906982,-59.509277,33.013672
26520,-10.386047,3.835511,-7.120356,17.852783,-64.697266,-37.353516,33.005859
26560,-17.195156,10.510546,-8.164227,39.337158,9.155273,7.110596,33.013672
26600,-12.708423,3.347094,-4.879383,1.770020,-36.895752,-19.714355,33.009766
26640,-12.636597,-3.165135,1.470040,-118.835449,-43.212891,-37.536621,33.029297
26680,-8.753201,-5.702989,1.240196,-33.508301,-70.434570,-53.741455,32.990234
26720,-9.514558,-5.698200,0.454898,1.129150,-153.381348,-108.551025,33.027344
26760,-9.701305,-4.616021,1.556231,43.182373,-13.397217,-99.121094,33.019531
26800,-8.504205,-3.404555,2.087744,150.238037,-3.753662,-123.809814,33.027344
26840,-8.791509,-1.541866,4.735731,283.874512,60.058594,-107.788086,33.033203
26880,-9.375694,1.470040,2.695871,-101.379395,-211.029053,15.655518,33.023438
26920,-8.868123,0.881066,-0.713472,-238.159180,-78.704834,19.439697,33.023438
26960,-9.572019,-0.076614,-2.025495,-38.879395,-38.391113,-21.484375,33.015625
27000,-9.998186,-1.149217,-1.019930,55.725098,-35.522461,-41.473389,33.019531
27040,-9.538500,-0.675165,0.742203,18.920898,-28.259277,-28.289795,33.009766
27080,-9.844957,0.641646,1.182736,81.604004,6.378174,-7.659912,33.050781
27120,-10.711658,1.709460,3.107674,26.672363,-5.493164,28.839111,33.025391
27160,-12.454638,-0.057461,2.059013,-164.611816,-8.361816,48.950195,33.019531
27200,-13.536817,-3.337517,-1.786075,-127.441406,56.579590,23.956299,33.035156
27240,-11.506534,0.699107,-1.819593,-109.802246,119.018555,90.911865,33.042969
27280,-11.587936,-0.440533,-2.413355,78.338623,161.071777,129.333496,33.029297
27320,-14.211981,-5.549759,1.441309,73.333740,115.173340,43.273926,33.027344
27360,-14.197616,-2.006341,3.203442,-185.729980,100.311279,102.355957,33.050781
27400,-9.701305,0.354342,-0.162806,-106.170654,26.062012,115.447998,33.050781
27440,-8.327033,-2.370260,-0.675165,53.741455,21.667480,108.612061,33.035156
27480,-6.617573,-1.881842,1.426944,136.932373,93.475342,89.050293,33.023438
27520,-4.252102,-1.508347,1.618480,70.953369,19.226074,41.748047,33.046875
27560,-3.122039,-2.130840,-0.651223,66.894531,-54.077148,-5.920410,33.052734
27600,-4.228160,-0.723049,-3.830723,95.031738,-66.192627,-41.442871,33.042969
27640,-12.765883,6.258443,-9.246407,71.533203,-16.784668,10.528564,33.050781
27680,-14.188039,7.182605,-7.489063,41.168213,-3.204346,-13.122559,33.041016
27720,-9.222465,0.780510,-2.944868,-30.181885,-62.957764,-38.238525,33.046875
27760,-13.407530,-4.060566,-0.186748,-253.601074,-64.361572,-47.180176,33.037109
27800,-10.912771,-6.100426,0.641646,8.819580,-44.830322,-52.978516,33.052734
27840,-8.872911,-5.267244,1.546654,16.784668,-126.983643,-126.342773,33.050781
27880,-10.314221,-2.911349,2.413355,65.124512,-44.769287,-119.171143,33.046875
27920,-8.877700,-2.331953,3.988740,84.503174,-84.045410,-108.093262,33.054688
27960,-9.658210,-0.684742,4.797980,113.342285,-89.538574,-50.048828,33.121094
28000,-8.643068,0.028730,2.279280,-132.141113,-113.922119,1.739502,33.121094
28040,-8.336611,0.301669,-0.306458,-94.787598,-63.781738,-15.136719,33.123047
28080,-9.097966,0.588974,-1.177947,11.901855,-19.287109,-29.327393,33.125000
28120,-9.466674,-0.435745,0.440533,69.458008,-37.994385,-37.536621,33.123047
28160,-9.504981,-1.561020,1.589750,-20.080566,-24.658203,-22.430420,33.130859
28200,-10.726024,-0.742203,1.393425,28.961182,1.617432,0.427246,33.125000
28240,-11.032481,0.469264,1.786075,10.101318,36.041260,26.062012,33.130859
28280,-12.737153,-0.119710,1.110910,-232.513428,33.142090,65.185547,33.148438
28320,-13.555970,-1.388637,-2.815581,-184.204102,123.291016,71.685791,33.142578
28360,-12.794614,0.205901,-2.657564,1.159668,158.111572,124.725342,33.125000
28400,-13.814544,-3.552995,1.541866,74.310303,105.895996,68.176270,33.152344
28440,-15.083470,-3.711013,4.261679,-155.273438,76.751709,94.818115,33.148438
28480,-11.300632,0.756568,0.454898,-112.854004,26.245117,113.525391,33.152344
28520,-8.805874,-0.746991,0.090980,26.275635,15.502930,112.274170,33.156250
28560,-6.387730,-2.025495,1.742979,133.056641,29.541016,81.726074,33.142578
28600,-4.601655,-1.628057,2.523489,109.069824,9.582520,57.037354,33.146484
28640,-4.247314,-2.662352,1.005565,102.508545,-36.895752,14.465332,33.148438
28680,-3.883395,-3.418920,-1.474828,104.492188,-45.989990,-35.400391,33.146484
28720,-7.484274,0.167594,-3.873818,136.688232,-54.107666,-60.211182,33.136719
28760,-17.238253,10.261548,-7.795521,23.254395,-15.075684,32.287598,33.154297
28800,-13.804967,8.623915,-3.859453,14.465332,-7.049561,0.854492,33.167969
28840,-11.884817,-1.446098,2.896984,67.474365,2.899170,-102.539062,33.162109
28880,-11.185710,-7.024588,1.130063,-193.908691,-19.592285,7.476807,33.152344
28920,-8.116343,-7.134721,-1.331176,-19.683838,-164.428711,-62.316895,33.164062
28960,-10.132261,-5.463568,0.325611,-19.287109,-94.665527,-98.632812,33.177734
29000,-8.638280,-3.634398,1.618480,50.323486,15.197754,-94.177246,33.156250
29040,-8.020576,-1.910573,2.489970,400.390625,104.492188,-176.177979,33.167969
29080,-9.251195,1.130063,3.126827,417.938232,21.942139,-67.077637,33.140625
29120,-8.556877,2.911349,0.344765,-45.654297,-144.714355,31.646729,33.167969
29160,-8.418014,0.138864,-0.914585,-151.519775,-95.642090,30.670166,33.162109
29200,-9.308656,-2.102109,0.588974,-116.119385,-78.735352,9.704590,33.152344
29240,-10.079589,-2.422932,1.039083,-118.957520,-48.950195,-1.251221,33.187500
29280,-11.927913,-0.919373,-0.550666,4.821777,9.399414,0.427246,33.154297
29320,-12.761095,2.303222,1.000776,45.776367,3.051758,20.324707,33.173828
29360,-13.192051,0.440533,0.033519,-208.160400,16.021729,64.056396,33.173828
29400,-12.899959,-1.326388,-2.212242,-74.737549,126.007080,69.458008,33.187500
29440,-12.421119,-2.604892,-2.240973,47.027588,131.622314,81.451416,33.158203
29480,-13.464991,-5.904101,2.408567,-103.668213,111.145020,80.657959,33.189453
29520,-13.172897,-4.232949,2.398990,-236.694336,83.038330,100.769043,33.177734
29560,-10.012551,1.043872,-0.378284,-66.284180,20.019531,112.640381,33.191406
29600,-8.259995,0.407014,0.138864,49.377441,30.761719,105.468750,33.156250
29640,-6.517017,-1.513135,1.043872,151.428223,58.380127,80.505371,33.164062
29680,-4.874595,-2.068590,1.742979,81.939697,29.113770,55.053711,33.171875
29720,-4.395754,-2.738967,0.057461,69.549561,-39.459229,19.744873,33.179688
29760,-3.873818,-2.820370,-1.824382,83.953857,-67.871094,-29.968262,33.179688
29800,-7.393295,-0.205901,-4.774038,91.461182,-60.333252,-33.416748,33.189453
29840,-17.463306,10.477027,-9.624691,27.648926,6.347656,21.759033,33.187500
29880,-13.000515,6.837840,-5.635951,28.442383,-22.644043,0.549316,33.181641
29920,-10.146626,-2.264915,2.169147,39.855957,-11.688232,-113.311768,33.203125
29960,-11.980585,-6.019023,1.058237,-246.978760,-80.078125,-0.793457,33.248047
30000,-8.753201,-7.192182,-0.119710,26.031494,-132.202148,-90.393066,33.253906
30040,-10.362105,-5.516241,1.340753,33.843994,-104.309082,-125.671387,33.232422
30080,-8.499416,-4.865018,2.624045,71.594238,-59.509277,-125.122070,33.248047
30120,-8.398860,-2.944868,5.137957,174.652100,15.960693,-87.554932,33.240234
30160,-9.390059,1.781286,3.869030,-7.446289,-131.683350,-14.678955,33.236328
30200,-8.015787,1.795651,0.847547,-156.524658,-91.125488,13.732910,33.242188
30240,-9.193734,0.933739,-0.660800,-116.546631,-45.135498,0.732422,33.246094
30280,-10.376471,-0.253785,-0.775721,-8.392334,-33.020020,-33.508301,33.265625
30320,-9.892841,-1.144428,0.416591,31.768799,-13.977051,-39.672852,33.257812
30360,-10.218452,0.220267,0.938527,121.185303,15.625000,-21.575928,33.261719
30400,-10.884041,1.417367,2.920926,-25.207520,11.779785,40.252686,33.265625
30440,-12.909535,0.210690,2.011129,-239.685059,10.772705,66.436768,33.232422
30480,-14.111424,-0.995988,-1.972822,-195.861816,102.996826,62.744141,33.277344
30520,-12.349293,0.440533,-4.314352,-15.808105,166.229248,124.816895,33.271484
30560,-13.254301,-4.759673,-0.311246,118.591309,126.342773,66.406250,33.277344
30600,-14.317327,-5.707777,3.711013,-191.558838,98.999023,82.427979,33.265625
30640,-12.679692,-0.521936,0.622492,-238.494873,36.499023,116.729736,33.283203
30680,-9.141062,0.138864,-0.995988,24.536133,33.538818,105.926514,33.261719
30720,-6.919243,-1.742979,0.876278,100.128174,48.797607,87.921143,33.259766
30760,-4.390966,-2.039860,1.881842,136.566162,54.718018,67.596436,33.271484
30800,-3.433285,-1.953669,1.268927,70.343018,-23.925781,22.552490,33.289062
30840,-3.179500,-2.561796,-1.307234,106.842041,-34.637451,-14.160156,33.289062
30880,-6.914454,-0.014365,-5.185841,115.173340,-74.127197,-25.756836,33.285156
30920,-17.166426,9.830592,-9.528923,21.789551,1.251221,13.092041,33.296875
30960,-12.349293,5.793968,-6.406884,35.034180,-24.810791,-1.464844,33.279297
31000,-8.662222,-1.288081,1.072602,29.937744,-17.547607,-116.760254,33.289062
31040,-13.402741,-4.764462,0.526724,-280.670166,-131.896973,-24.505615,33.285156
31080,-10.299856,-6.938396,-0.344765,10.772705,-189.727783,-79.864502,33.285156
31120,-9.016563,-5.621585,1.412579,27.648926,-72.509766,-117.309570,33.275391
31160,-8.719683,-4.189853,2.312799,90.240479,39.855957,-114.990234,33.296875
31200,-8.595184,-3.246537,4.031836,322.631836,73.272705,-140.441895,33.304688
31240,-9.572019,1.307234,3.294421,164.489746,-153.747559,-23.193359,33.292969
31280,-7.843405,2.327164,0.330400,-147.491455,-79.833984,23.681641,33.300781
31320,-8.470686,0.995988,-0.454898,-100.433350,-87.493896,18.676758,33.291016
31360,-9.888053,-1.422156,0.177171,-122.711182,-46.997070,-2.624512,33.292969
31400,-9.959879,-2.403779,0.167594,-40.466309,-37.902832,-28.411865,33.271484
31440,-10.759542,-0.416591,0.263362,58.074951,-0.030518,-10.589600,33.265625
31480,-11.688493,1.881842,2.351106,40.039062,24.566650,17.791748,33.312500
31520,-12.856863,0.914585,0.775721,-232.910156,13.000488,67.749023,33.279297
31560,-13.388376,-0.234632,-2.767697,-139.801025,125.030518,65.368652,33.302734
31600,-11.990162,0.162806,-3.213019,10.925293,170.257568,117.553711,33.306641
31640,-13.599066,-4.659117,0.895431,124.023438,115.417480,70.373535,33.326172
31680,-15.284584,-5.511452,3.639187,-256.530762,73.852539,77.239990,33.300781
31720,-12.095507,-1.675941,-0.804452,-175.476074,30.242920,110.717773,33.300781
31760,-8.188169,-0.019154,-0.282516,-10.345459,17.822266,92.926025,33.304688
31800,-6.904878,-1.517924,0.938527,109.680176,42.175293,76.171875,33.304688
31840,-4.764462,-2.303222,2.068590,122.100830,46.813965,49.407959,33.308594
31880,-3.356671,-2.825158,0.914585,67.169189,-33.660889,16.967773,33.326172
31920,-3.485958,-2.959233,-1.728614,104.400635,-38.787842,-24.047852,33.361328
31960,-8.470686,0.167594,-5.875371,121.093750,-23.742676,30.609131,33.353516
32000,-16.261417,10.548853,-9.141062,20.812988,-6.103516,11.688232,33.367188
32040,-10.457873,5.439626,-6.306327,20.660400,-45.867920,-16.784668,33.359375
32080,-8.638280,-1.259350,1.647211,22.674561,-16.174316,-147.491455,33.373047
32120,-14.082694,-5.080496,-0.474052,-304.199219,-142.669678,-31.402588,33.371094
32160,-9.888053,-6.924031,-0.679953,-11.444092,-195.648193,-65.216064,33.412109
32200,-9.069236,-4.707001,1.795651,111.999512,21.453857,-112.365723,33.392578
32240,-8.643068,-3.687071,2.738967,110.382080,14.617920,-106.414795,33.380859
32280,-9.481039,-3.610456,4.362236,273.529053,126.770020,-106.475830,33.388672
32320,-9.236830,0.469264,2.820370,241.699219,-116.638184,-37.414551,33.384766
32360,-7.163452,1.407791,-0.196325,-109.405518,-94.116211,16.387939,33.367188
32400,-7.857770,0.675165,-0.981623,-83.953857,-105.346680,2.532959,33.388672
32440,-9.959879,-0.301669,0.622492,-151.794434,-78.491211,7.232666,33.406250
32480,-10.505757,-1.197101,0.483629,-183.990479,-64.941406,2.685547,33.392578
32520,-11.334151,-0.268151,0.110133,-43.762207,-2.227783,10.375977,33.390625
32560,-12.047623,1.838747,-0.114922,122.253418,5.554199,14.831543,33.396484
32600,-13.680469,1.182736,1.221043,-172.943115,19.256592,72.509766,33.390625
32640,-13.843274,-0.325611,-2.557007,-112.640381,135.711670,79.437256,33.392578
32680,-12.272678,-2.509123,-3.088520,56.579590,162.628174,99.548340,33.406250
32720,-13.417107,-6.397307,2.475605,-60.791016,113.281250,62.011719,33.406250
32760,-13.742718,-5.066131,1.814805,-282.226562,74.188232,81.237793,33.410156
32800,-10.620679,-0.253785,-0.186748,-35.858154,31.097412,98.632812,33.410156
32840,-8.939949,1.680730,0.952892,-3.540039,37.689209,102.996826,33.412109
32880,-6.057330,-2.331953,0.928950,133.239746,65.032959,75.256348,33.412109
32920,-4.060566,-2.652776,1.350330,108.612061,22.247314,53.192139,33.398438
32960,-3.222595,-2.887407,0.038307,75.897217,-48.858643,5.096436,33.410156
33000,-3.605668,-2.537854,-2.638410,120.056152,-49.468994,-38.757324,33.414062
33040,-12.124237,4.711789,-8.010999,50.964355,-1.556396,0.335693,33.382812
33080,-16.654066,9.940725,-7.924808,28.015137,-4.974365,9.552002,33.416016
33120,-14.063540,2.413355,-4.501099,-15.991211,-55.267334,-15.350342,33.416016
33160,-10.682928,-3.045424,2.557007,-16.784668,36.987305,-48.950195,33.431641
33200,-6.813898,-6.033388,0.536301,-96.618652,-124.633789,-59.417725,33.416016
33240,-10.386047,-6.349423,0.656011,-0.244141,-152.709961,-118.560791,33.433594
33280,-8.729259,-4.525041,2.561796,201.690674,37.841797,-126.556396,33.402344
33320,-8.599973,-3.610456,3.902549,197.845459,9.521484,-117.462158,33.433594
33360,-10.558430,-1.163582,3.011906,248.443604,-95.245361,-66.345215,33.423828
33400,-8.633492,1.857901,0.416591,-101.745605,-94.085693,8.636475,33.408203
33440,-7.718906,1.426944,-1.412579,-46.478271,-113.708496,-7.507324,33.423828
33480,-8.738836,-0.033519,-0.665588,-10.864258,-52.215576,-9.704590,33.437500
33520,-9.615114,-0.493206,0.675165,-36.621094,-49.377441,2.502441,33.433594
33560,-10.836157,-1.268927,1.723825,-113.372803,-7.385254,17.944336,33.427734
33600,-11.640609,-1.460463,1.388637,-80.444336,8.331299,23.681641,33.417969
33640,-12.564771,0.263362,0.215478,-40.557861,10.559082,28.930664,33.419922
33680,-13.474567,0.933739,-1.307234,-184.936523,80.169678,61.492920,33.410156
33720,-12.291832,0.909797,-3.251326,-36.773682,156.738281,108.947754,33.443359
33760,-12.923901,-3.754108,0.062249,59.997559,125.640869,92.834473,33.433594
33800,-14.815320,-6.732495,3.150769,-192.504883,85.876465,75.744629,33.435547
33840,-11.956643,-2.796427,0.196325,-170.257568,32.226562,91.644287,33.443359
33880,-9.165004,1.968034,0.565032,-20.690918,40.130615,102.722168,33.429688
33920,-7.235278,-0.746991,0.469264,116.760254,41.809082,73.516846,33.494141
33960,-4.390966,-2.221819,1.565808,126.403809,53.985596,53.985596,33.498047
34000,-3.869030,-2.389413,1.383849,69.915771,-22.277832,22.888184,33.503906
34040,-3.816358,-2.978387,-0.986411,91.979980,-48.675537,-13.397217,33.519531
34080,-6.483498,-1.877054,-4.343082,147.613525,-48.858643,-12.298584,33.494141
34120,-16.563087,9.040505,-9.730036,15.777588,11.627197,31.524658,33.496094
34160,-12.129025,7.129933,-6.967127,17.761230,-21.392822,-0.732422,33.503906
34200,-9.332599,-0.713472,0.028730,47.668457,-19.165039,-106.842041,33.498047
34240,-14.317327,-5.066131,0.689530,-199.829102,-94.573975,-31.890869,33.511719
34280,-9.710882,-7.235278,0.833182,22.857666,-142.547607,-76.049805,33.490234
34320,-8.815451,-6.052542,1.556231,24.383545,-105.743408,-105.468750,33.486328
34360,-8.279149,-5.243302,2.959233,115.417480,38.848877,-120.178223,33.509766
34400,-8.671799,-4.228160,4.960786,252.044678,106.567383,-112.030029,33.531250
34440,-10.127473,1.733402,3.888184,172.821045,-178.375244,-6.500244,33.509766
34480,-7.934384,2.470816,0.670376,-203.460693,-94.879150,25.482178,33.521484
34520,-8.585608,1.130063,-0.981623,-94.146729,-115.936279,6.713867,33.519531
34560,-9.835381,-0.162806,-1.173159,-152.801514,-43.487549,8.941650,33.503906
34600,-10.132261,-2.130840,-0.359130,-81.207275,-44.769287,-26.031494,33.501953
34640,-10.783484,-1.297657,-0.124498,4.333496,-3.265381,-12.939453,33.519531
34680,-11.257536,1.800440,1.637634,51.513672,4.333496,10.589600,33.531250
34720,-12.483368,2.686294,1.455675,-149.444580,14.648438,66.864014,33.533203
34760,-13.919888,-0.857124,-2.240973,-90.911865,122.253418,71.197510,33.535156
34800,-12.650962,-0.967257,-3.557784,26.397705,177.276611,115.844727,33.511719
34840,-13.579912,-5.238513,1.216254,16.510010,95.550537,83.465576,33.531250
34880,-15.155296,-4.726154,3.447650,-280.426025,74.432373,92.254639,33.535156
34920,-12.459426,-0.651223,-1.010353,-104.888916,54.718018,107.177734,33.539062
34960,-8.877700,0.253785,0.248997,-6.439209,19.439697,99.517822,33.519531
35000,-6.234501,-1.920150,1.379060,111.785889,61.004639,73.425293,33.525391
35040,-4.007894,-2.489970,1.508347,137.542725,38.055420,44.342041,33.564453
35080,-3.232172,-2.461239,1.034295,75.500488,-47.149658,9.826660,33.550781
35120,-3.452439,-3.102885,-1.302446,88.317871,-50.231934,-32.348633,33.566406
35160,-8.700529,-0.387861,-5.851429,122.283936,-25.543213,-4.638672,33.531250
35200,-17.142485,10.869676,-9.495404,37.841797,11.779785,27.313232,33.548828
35240,-9.677363,5.214571,-6.272809,28.900146,-42.419434,-15.167236,33.529297
35280,-7.508216,-1.637634,2.078167,18.829346,-37.261963,-169.342041,33.564453
35320,-16.510414,-7.920019,0.809240,-253.936768,-181.579590,-40.069580,33.564453
35360,-8.920795,-7.790732,1.517924,-32.318115,-72.326660,-64.514160,33.546875
35400,-8.638280,-4.999093,2.284068,136.322021,34.210205,-113.220215,33.556641
35440,-10.256760,-3.806781,3.337517,199.432373,60.791016,-106.628418,33.537109
35480,-10.682928,-1.790863,4.582502,290.039062,-91.552734,-56.030273,33.556641
35520,-8.125920,1.489193,1.221043,-174.316406,-115.386963,12.176514,33.552734
35560,-6.943185,1.187524,-1.158794,6.103516,-87.768555,-19.836426,33.566406
35600,-8.101978,0.110133,-0.866701,23.498535,-34.851074,-20.782471,33.562500
35640,-10.055647,0.191536,0.325611,-56.182861,-43.792725,-7.812500,33.562500
35680,-10.342952,-1.192312,1.221043,-133.972168,-39.398193,0.946045,33.560547
35720,-11.348516,-1.374272,1.139640,1.068115,-9.490967,-10.925293,33.580078
35760,-12.014104,2.178724,1.244985,-19.073486,-2.807617,29.174805,33.556641
35800,-13.402741,0.598550,-0.244209,-119.628906,33.020020,59.417725,33.548828
35840,-12.899959,0.009577,-2.571373,-96.282959,149.291992,88.592529,33.546875
35880,-12.191275,-2.580950,-2.130840,34.332275,133.087158,112.915039,33.623047
35920,-13.757083,-6.464345,2.724602,-106.506348,88.653564,69.946289,33.625000
35960,-13.752295,-4.673482,1.651999,-276.336670,51.361084,84.808350,33.632812
36000,-10.682928,1.139640,-0.397437,24.505615,24.597168,108.123779,33.609375
36040,-8.480263,1.173159,1.000776,28.442383,30.944824,96.130371,33.642578
36080,-5.521029,-2.758120,1.244985,127.349854,56.091309,64.300537,33.619141
36120,-4.156334,-2.786851,1.201889,106.781006,9.155273,40.222168,33.617188
36160,-3.801992,-2.638410,-0.038307,74.707031,-54.321289,0.091553,33.621094
36200,-4.486734,-2.375048,-2.226608,118.286133,-52.734375,-40.527344,33.632812
36240,-12.799402,4.836287,-7.378930,13.275146,4.943848,-0.274658,33.644531
36280,-16.553511,10.486604,-7.369353,28.198242,8.483887,19.042969,33.642578
36320,-9.619903,2.791639,-2.820370,26.794434,-56.549072,-28.808594,33.632812
36360,-11.276690,-3.792415,3.572149,-3.662109,-42.419434,-92.987061,33.621094
36400,-11.487380,-6.200983,0.694318,-159.454346,-96.771240,-34.576416,33.642578
36440,-8.853758,-6.770802,-0.411803,-0.183105,-165.405273,-97.106934,33.638672
36480,-8.892065,-5.597643,1.546654,95.458984,40.679932,-104.003906,33.642578
36520,-8.475474,-4.271256,2.542642,214.263916,-15.167236,-127.410889,33.634766
36560,-10.491392,-0.359130,4.228160,177.307129,-87.554932,-34.301758,33.650391
36600,-8.825027,2.312799,1.489193,-189.422607,-74.462891,-3.387451,33.630859
36640,-8.106767,0.167594,-1.134852,-16.601562,-70.404053,-24.017334,33.626953
36680,-9.016563,0.478840,-0.900220,59.448242,-20.172119,-32.958984,33.634766
36720,-9.528923,-0.229843,0.320823,58.593750,-34.301758,-39.398193,33.632812
36760,-9.715671,-0.646434,1.048660,-6.317139,-9.094238,-17.944336,33.652344
36800,-11.003751,-0.641646,1.810017,33.630371,-14.648438,2.441406,33.658203
36840,-11.741165,1.216254,2.557007,-142.059326,-23.712158,48.370361,33.662109
36880,-13.656527,-0.804452,-1.173159,-166.473389,20.935059,53.955078,33.669922
36920,-13.120225,0.067038,-2.892196,-125.793457,137.634277,83.801270,33.646484
36960,-12.215217,-1.455675,-2.695871,73.272705,153.717041,107.971191,33.650391
37000,-13.493721,-5.717354,2.964022,-72.021484,96.160889,68.725586,33.658203
37040,-14.360422,-3.835511,2.327164,-239.257812,36.132812,102.264404,33.671875
37080,-10.745177,0.684742,-0.579397,-45.196533,60.058594,113.189697,33.662109
37120,-8.480263,-0.790087,-0.306458,54.138184,29.235840,102.752686,33.677734
37160,-5.789180,-2.375048,1.556231,112.335205,54.931641,74.493408,33.669922
37200,-4.161122,-1.671153,2.111686,97.412109,28.167725,47.393799,33.642578
37240,-3.610456,-2.375048,0.378284,77.819824,-31.982422,4.547119,33.646484
37280,-3.696647,-2.518700,-2.073379,102.050781,-55.633545,-36.926270,33.669922
37320,-11.190498,3.509900,-7.173028,78.002930,-24.658203,6.103516,33.679688
37360,-17.166426,10.955867,-7.704541,31.372070,0.915527,11.566162,33.660156
37400,-12.349293,3.356671,-4.381389,-8.758545,-56.030273,-30.181885,33.656250
37440,-11.635820,-3.490746,2.681506,-42.358398,33.142090,-89.965820,33.685547
37480,-7.891289,-6.952762,1.106121,-32.226562,-40.771484,-40.710449,33.677734
37520,-9.749189,-7.445967,1.115698,36.346436,-147.735596,-133.758545,33.675781
37560,-9.730036,-5.324705,2.413355,27.984619,-58.166504,-114.715576,33.667969
37600,-8.518570,-3.845088,4.031836,149.139404,-73.669434,-101.959229,33.697266
37640,-10.237606,0.651223,4.711789,53.894043,-121.185303,-34.362793,33.671875
37680,-8.896853,2.513912,1.422156,-193.878174,-67.443848,3.662109,33.656250
37720,-8.576031,0.325611,-1.675941,-82.305908,-53.985596,-22.552490,33.687500
37760,-9.117120,-0.019154,-1.939303,98.663330,-15.045166,-44.952393,33.675781
37800,-9.385271,-0.651223,0.335188,72.326660,-21.575928,-41.381836,33.697266
37840,-9.758766,-0.962469,2.149993,1.708984,-13.214111,-18.859863,33.703125
37880,-11.434708,0.588974,2.236184,31.768799,24.108887,4.058838,33.740234
37920,-12.449849,2.379837,1.498770,-109.161377,9.368896,53.985596,33.732422
37960,-13.790602,-0.699107,-1.024718,-111.022949,74.829102,71.136475,33.736328
38000,-12.871228,-0.277727,-2.920926,-74.554443,149.627686,105.865479,33.755859
38040,-12.852075,-4.630386,-1.383849,30.822754,102.233887,97.473145,33.746094
38080,-14.149732,-6.722919,2.662352,-123.382568,102.142334,91.400146,33.744141
38120,-13.182474,-1.776498,0.196325,-222.351074,74.249268,110.321045,33.748047
38160,-8.911219,-0.421380,-0.555455,-47.607422,-0.366211,93.902588,33.767578
38200,-7.671022,-1.197101,0.689530,108.917236,46.966553,88.745117,33.765625
38240,-4.984728,-2.006341,1.656788,114.532471,48.431396,61.523438,33.763672
38280,-3.524265,-2.322376,1.197101,55.389404,-21.820068,32.745361,33.765625
38320,-3.485958,-2.212242,-0.900220,75.134277,-59.692383,-12.390137,33.759766
38360,-5.257667,-1.465251,-3.193865,151.855469,-62.286377,-46.600342,33.765625
38400,-15.667656,7.838616,-8.920795,15.838623,10.955811,34.332275,33.746094
38440,-14.614207,8.868123,-7.465121,43.853760,1.464844,-8.728027,33.753906
38480,-9.050082,0.847547,-2.355895,15.747070,-65.002441,-48.950195,33.765625
38520,-11.453861,-4.596867,3.160346,-99.426270,-43.365479,-81.115723,33.751953
38560,-10.735600,-6.311116,0.292093,-119.812012,-87.982178,-59.722900,33.753906
38600,-9.327810,-6.967127,0.134075,-3.143311,-203.674316,-121.978760,33.765625
38640,-9.375694,-4.908113,2.906561,79.864502,-41.748047,-102.996826,33.746094
38680,-9.107543,-2.245761,5.080496,27.130127,-24.230957,-81.451416,33.783203
38720,-9.495404,-0.751779,4.587290,107.910156,-84.228516,-62.622070,33.777344
38760,-8.384495,0.282516,1.417367,-76.202393,-69.030762,-15.563965,33.751953
38800,-7.886500,0.258574,-0.440533,-29.174805,-40.802002,-14.739990,33.781250
38840,-8.796297,0.670376,-0.287304,40.618896,-23.529053,-26.702881,33.759766
38880,-9.643845,-0.421380,1.130063,39.367676,-39.581299,-35.644531,33.789062
38920,-10.031705,-0.871489,1.273715,-3.967285,-21.759033,-20.538330,33.746094
38960,-11.382035,1.019930,1.613692,48.278809,5.798340,4.821777,33.773438
39000,-12.057199,2.638410,2.628834,-188.751221,15.136719,67.108154,33.769531
39040,-13.757083,-0.804452,-1.704672,-179.107666,67.260742,74.676514,33.779297
39080,-12.631808,-0.378284,-3.730166,-145.996094,149.261475,120.849609,33.769531
39120,-13.014880,-2.743755,-2.015918,63.934326,134.277344,122.924805,33.759766
39160,-15.878345,-6.076484,2.738967,-18.829346,97.717285,70.190430,33.769531
39200,-15.140931,-2.063802,0.885855,-299.957275,67.016602,117.492676,33.787109
39240,-9.059659,-2.250550,-1.508347,-11.413574,50.140381,104.217529,33.791016
39280,-7.517793,-1.426944,0.201113,84.472656,64.697266,99.517822,33.777344
39320,-4.884171,-2.135628,1.733402,77.331543,49.682617,66.650391,33.769531
39360,-2.858677,-1.944092,1.240196,66.101074,-3.387451,29.083252,33.783203
39400,-1.991976,-2.394202,-0.756568,66.772461,-41.931152,-14.648438,33.783203
39440,-4.007894,-1.422156,-3.859453,162.994385,-54.107666,-34.759521,33.791016
39480,-16.098612,9.940725,-9.749189,45.227051,-14.038086,26.062012,33.781250
39520,-14.441825,8.710106,-7.637504,29.083252,-21.484375,-14.373779,33.785156
39560,-10.836157,-0.703895,-0.248997,-8.087158,-45.135498,-88.378906,33.796875
39600,-13.790602,-5.319916,0.450110,-235.137939,-41.168213,-20.172119,33.794922
39640,-8.317456,-6.689400,-0.220267,-3.875732,-75.683594,-106.384277,33.791016
39680,-9.763555,-6.100426,0.995988,106.170654,-113.677979,-148.345947,33.800781
39720,-9.074024,-4.793192,4.137180,137.420654,32.653809,-110.748291,33.806641
39760,-9.208099,-2.652776,5.999869,94.207764,-92.834473,-86.730957,33.802734
39800,-9.830592,1.426944,3.514688,103.179932,-178.771973,-25.482178,33.808594
39840,-8.317456,2.106898,-0.052672,-232.269287,-101.135254,9.002686,33.851562
39880,-8.772355,0.402226,-1.244985,-143.585205,-51.940918,-6.683350,33.845703
39920,-9.615114,0.019154,-1.374272,-19.317627,-18.585205,-27.435303,33.835938
39960,-9.658210,-0.708684,-0.320823,54.534912,-20.233154,-32.958984,33.853516
40000,-10.615891,-0.565032,1.388637,96.923828,10.498047,-19.531250,33.851562
40040,-11.726800,2.135628,2.806004,-8.972168,26.489258,22.583008,33.867188
40080,-13.105860,2.035071,0.660800,-227.874756,20.324707,70.861816,33.865234
40120,-13.259089,-0.033519,-2.882619,-144.958496,119.689941,72.540283,33.845703
40160,-12.253524,0.450110,-3.169923,13.214111,144.775391,139.709473,33.847656
40200,-14.441825,-5.099649,0.823605,60.760498,91.583252,82.855225,33.865234
40240,-16.194380,-5.415684,2.413355,-173.736572,93.719482,101.867676,33.851562
40280,-12.200851,-1.000776,-0.895431,-56.213379,59.082031,104.278564,33.867188
40320,-8.408437,-1.345541,0.292093,-3.021240,48.217773,103.576660,33.857422
40360,-6.607996,-2.001553,0.986411,115.447998,45.166016,72.357178,33.861328
40400,-3.696647,-2.312799,1.900996,85.083008,34.606934,52.978516,33.873047
40440,-2.638410,-2.662352,0.488417,85.571289,-30.487061,13.763428,33.859375
40480,-2.734178,-2.643199,-1.752556,117.645264,-38.970947,-26.916504,33.867188
40520,-8.901642,1.685518,-6.660669,149.169922,-36.895752,4.455566,33.849609
40560,-17.147272,10.127473,-9.452309,8.270264,-22.521973,9.582520,33.867188
40600,-13.958196,3.739743,-6.282385,14.312744,-32.562256,-16.540527,33.861328
40640,-13.464991,-1.450886,1.460463,-89.324951,70.556641,-41.564941,33.857422
40680,-6.464345,-7.062895,0.033519,18.310547,-12.664795,-56.457520,33.878906
40720,-9.016563,-8.178593,1.379060,84.442139,-178.527832,-142.944336,33.896484
40760,-9.567230,-4.783615,3.112462,-70.953369,-88.958740,-108.032227,33.871094
40800,-9.701305,-3.069367,3.241749,82.550049,-76.110840,-98.999023,33.888672
40840,-10.409989,-0.588974,3.337517,112.274170,-148.986816,-80.810547,33.884766
40880,-9.916783,2.906561,1.723825,59.234619,-122.711182,-18.066406,33.869141
40920,-8.848969,2.801216,-0.876278,-202.789307,-79.589844,3.479004,33.865234
40960,-8.662222,0.287304,-1.790863,-64.910889,-22.552490,-21.545410,33.871094
41000,-8.791509,-1.517924,-1.340753,50.231934,-34.210205,-37.322998,33.867188
41040,-9.710882,-2.317587,0.225055,83.068848,-0.549316,-29.357910,33.894531
41080,-11.894394,0.067038,1.771709,81.359863,21.270752,-6.713867,33.875000
41120,-12.301409,3.505111,2.844312,-186.157227,-1.373291,50.659180,33.875000
41160,-13.340492,0.234632,-2.427721,-108.398438,77.270508,67.260742,33.880859
41200,-12.531252,-0.588974,-3.251326,-55.297852,158.020020,108.764648,33.884766
41240,-13.144167,-3.964798,-0.474052,89.477539,127.716064,93.811035,33.894531
41280,-15.619772,-6.770802,3.620033,-138.641357,96.801758,77.209473,33.880859
41320,-14.015656,-2.303222,-0.052672,-238.769531,49.835205,101.501465,33.888672
41360,-8.791509,-0.555455,-0.220267,-4.333496,36.407471,102.050781,33.888672
41400,-7.311892,-1.077391,0.828394,42.083740,40.435791,87.463379,33.884766
41440,-5.295974,-2.480393,1.661576,130.554199,37.139893,53.710938,33.912109
41480,-3.165135,-2.652776,1.489193,93.322754,-19.165039,27.282715,33.908203
41520,-2.346318,-2.896984,-0.435745,94.573975,-35.797119,-6.744385,33.884766
41560,-5.276821,-2.279280,-3.778050,207.183838,-38.909912,-36.834717,33.900391
41600,-17.424999,9.126697,-10.170568,24.230957,22.583008,56.945801,33.880859
41640,-12.966996,7.273585,-7.589619,22.521973,-33.447266,-3.265381,33.894531
41680,-11.597513,0.143652,0.253785,-4.516602,-42.755127,-56.732178,33.896484
41720,-12.962208,-4.400543,1.388637,-159.027100,-7.080078,-12.176514,33.914062
41760,-8.786720,-6.713342,-0.138864,79.620361,-149.902344,-128.448486,33.892578
41800,-9.361329,-6.943185,1.268927,-36.346436,-78.552246,-109.924316,33.900391
41840,-8.566454,-4.750096,1.881842,78.125000,79.162598,-104.339600,33.976562
41880,-9.433155,-3.294421,2.547431,250.396729,-10.223389,-120.361328,33.957031
41920,-9.710882,0.890643,3.256114,215.270996,-84.869385,-34.118652,33.962891
41960,-8.365341,2.734178,0.976834,65.979004,-118.835449,-9.033203,33.953125
42000,-8.312668,1.944092,-0.948104,-23.895264,-96.710205,7.904053,33.958984
42040,-9.447520,0.248997,-0.823605,-122.863770,-104.278564,17.944336,33.958984
42080,-9.840169,-1.240196,0.220267,-143.859863,-59.692383,20.874023,33.978516
42120,-11.166556,-2.092532,0.373495,-144.805908,-2.807617,24.658203,33.949219
42160,-12.521675,-1.355118,-0.239420,-28.869629,-5.523682,20.599365,33.943359
42200,-13.148955,1.695095,-0.651223,-124.542236,40.649414,65.032959,33.957031
42240,-12.813767,1.173159,-2.896984,-163.635254,146.759033,100.555420,33.957031
42280,-12.971785,-2.571373,-2.619257,115.478516,155.212402,110.931396,33.972656
42320,-15.351622,-6.924031,2.935291,-108.917236,102.294922,66.253662,33.972656
42360,-14.796166,-3.993528,1.704672,-288.391113,37.200928,94.146729,33.988281
42400,-10.477027,1.623269,-0.373495,-39.978027,42.205811,113.708496,33.966797
42440,-7.647080,-0.794875,0.488417,65.490723,37.872314,93.292236,33.976562
42480,-4.865018,-2.595315,1.675941,138.793945,61.218262,67.474365,33.982422
42520,-3.452439,-2.609680,1.656788,84.136963,-10.925293,45.227051,33.972656
42560,-3.055001,-2.911349,-0.426168,95.977783,-38.574219,2.380371,33.958984
42600,-4.711789,-2.245761,-3.327940,179.626465,-41.290283,-34.790039,33.978516
42640,-15.624560,8.283937,-9.634268,24.139404,14.312744,26.550293,33.964844
42680,-14.322115,8.413225,-7.436390,34.576416,-9.277344,0.640869,33.976562
42720,-8.643068,0.076614,-1.489193,0.854492,-57.800293,-50.933838,33.986328
42760,-13.129802,-4.477157,1.086968,-206.970215,-91.613770,-50.811768,33.980469
42800,-10.438720,-6.502652,0.110133,-23.010254,-146.301270,-53.009033,33.988281
42840,-9.375694,-5.070919,0.622492,-16.876221,-157.928467,-94.085693,34.001953
42880,-8.978256,-3.452439,2.595315,185.882568,125.610352,-120.513916,33.990234
42920,-8.920795,-3.217807,3.371036,214.752197,13.275146,-119.781494,33.980469
42960,-9.404425,-1.187524,3.840300,215.698242,-55.206299,-64.453125,33.982422
43000,-8.097190,1.283292,1.441309,-15.167236,-134.338379,3.875732,33.986328
43040,-7.809886,1.297657,-0.565032,-24.536133,-91.278076,-2.349854,33.986328
43080,-8.935161,-0.043096,0.186748,-58.532715,-69.061279,-0.793457,33.986328
43120,-9.935937,-1.182736,1.297657,-145.629883,-81.848145,16.967773,33.976562
43160,-11.219229,-1.225831,1.019930,-195.404053,-19.927979,33.508301,33.980469
43200,-12.598289,-0.646434,0.009577,-6.988525,3.356934,15.472412,33.992188
43240,-13.326127,1.867477,0.043096,-121.429443,10.559082,52.368164,33.984375
43280,-13.532028,-0.038307,-1.776498,-87.066650,85.388184,56.610107,34.011719
43320,-11.927913,-0.196325,-2.231396,-3.417969,158.264160,89.813232,34.031250
43360,-12.162544,-3.227384,0.545878,44.586182,142.242432,93.475342,34.048828
43400,-14.288596,-6.823475,2.973598,-212.432861,77.453613,78.430176,34.023438
43440,-12.258312,-3.394978,1.484405,-207.550049,49.346924,105.377197,34.039062
43480,-10.084377,2.858677,-0.100556,-78.613281,22.338867,122.375488,34.017578
43520,-8.374918,-0.536301,-0.090980,158.111572,60.821533,93.933105,34.037109
43560,-4.989516,-2.288857,2.078167,139.160156,73.669434,72.570801,34.046875
43600,-3.203442,-2.767697,1.412579,66.925049,-11.993408,28.137207,34.025391
43640,-2.499547,-2.829947,-1.211466,87.890625,-52.978516,-20.935059,34.035156
43680,-4.908113,-1.259350,-4.065354,117.309570,-91.156006,-43.395996,34.058594
43720,-16.213533,8.437167,-8.681376,19.470215,-6.835938,20.355225,34.039062
43760,-14.298173,7.594408,-6.555324,41.107178,-8.300781,-10.009766,34.048828
43800,-11.037270,-0.210690,-0.612916,-13.366699,-25.634766,-67.687988,34.029297
43840,-13.067553,-4.716578,-0.995988,-178.588867,-77.484131,-26.916504,34.044922
43880,-9.232041,-6.181829,0.143652,32.257080,-153.228760,-85.296631,34.037109
43920,-9.648633,-5.157111,1.838747,34.912109,-110.443115,-97.412109,34.068359
43960,-7.829040,-3.936068,3.122039,104.217529,76.477051,-122.253418,34.041016
44000,-8.681376,-3.059790,3.653552,165.710449,-35.125732,-113.067627,34.060547
44040,-8.815451,-1.996764,3.696647,51.452637,-60.943604,-64.544678,34.080078
44080,-8.566454,0.430956,2.231396,75.653076,-84.136963,-40.130615,34.056641
44120,-8.475474,2.015918,0.766145,49.652100,-131.286621,-11.016846,34.042969
44160,-9.586384,1.244985,0.445322,-82.977295,-99.853516,20.050049,34.056641
44200,-10.175357,-0.076614,0.502782,-190.765381,-55.328369,35.522461,34.068359
44240,-10.462662,-1.273715,0.000000,-174.438477,-10.253906,26.367188,34.060547
44280,-10.606314,-1.168370,0.450110,61.370850,7.141113,-5.798340,34.058594
44320,-11.511322,0.612916,2.609680,2.685547,23.040771,21.301270,34.054688
44360,-13.666103,0.023942,1.493982,-227.874756,89.172363,79.986572,34.050781
44400,-13.283031,0.521936,-3.102885,-1.159668,147.644043,80.688477,34.078125
44440,-12.143391,-2.533065,-1.522712,33.813477,136.779785,102.905273,34.058594
44480,-13.077129,-6.837840,2.662352,-122.283936,101.440430,74.035645,34.068359
44520,-12.454638,-4.946421,2.197877,-200.836182,85.174561,77.697754,34.074219
44560,-9.988609,1.489193,-0.445322,-19.805908,-1.953125,89.324951,34.080078
44600,-8.848969,1.589750,0.316035,9.643555,27.404785,97.320557,34.060547
44640,-6.497863,-2.284068,1.426944,115.539551,37.139893,71.441650,34.058594
44680,-4.596867,-2.533065,1.541866,109.710693,0.976562,45.440674,34.082031
44720,-3.864242,-3.059790,0.373495,72.814941,-68.542480,-6.530762,34.062500
44760,-4.027047,-3.011906,-1.651999,89.416504,-72.814941,-59.387207,34.080078
44800,-11.583148,2.868254,-6.028600,72.509766,10.559082,-30.487061,34.054688
44840,-16.917429,10.888829,-6.205771,9.613037,-7.019043,31.646729,34.080078
44880,-12.871228,4.726154,-3.088520,34.393311,-54.901123,-32.348633,34.056641
44920,-15.116989,-2.068590,2.983175,27.221680,70.800781,-39.886475,34.062500
44960,-8.054094,-5.803545,1.441309,-1.861572,-2.838135,-14.343262,34.091797
45000,-9.136273,-6.540959,0.019154,27.618408,-134.613037,-102.966309,34.064453
45040,-8.963891,-6.900089,1.790863,98.785400,27.618408,-85.327148,34.083984
45080,-7.264008,-5.477933,2.169147,179.809570,2.288818,-97.167969,34.095703
45120,-7.613562,-3.256114,2.355895,57.525635,-4.272461,-66.467285,34.078125
45160,-9.332599,-0.186748,2.245761,81.207275,-32.653809,-43.060303,34.107422
45200,-9.303867,2.020706,1.307234,72.479248,-117.462158,-16.754150,34.103516
45240,-10.347740,2.025495,0.632069,2.410889,-151.000977,13.397217,34.093750
45280,-10.702082,-0.119710,-0.608127,-221.557617,-144.348145,35.491943,34.132812
45320,-10.970232,-1.632846,-2.178724,-364.837646,-59.112549,36.560059,34.115234
45360,-11.324574,-1.364695,-2.442086,16.418457,51.177979,5.432129,34.136719
45400,-11.540052,1.335965,-0.617704,205.108643,7.507324,-5.310059,34.099609
45440,-12.598289,1.910573,1.795651,-218.292236,39.978027,72.479248,34.150391
45480,-12.425907,-0.095768,-2.695871,-107.543945,142.547607,92.712402,34.150391
45520,-12.392388,-3.907337,-2.523489,34.606934,129.455566,96.496582,34.146484
45560,-13.551182,-8.135497,1.565808,-201.446533,100.250244,70.892334,34.123047
45600,-11.382035,-5.319916,1.240196,-158.782959,29.022217,61.279297,34.121094
45640,-9.677363,1.757344,-0.153229,-136.962891,-25.634766,93.170166,34.140625
45680,-9.461885,0.857124,-1.307234,41.931152,28.808594,92.681885,34.162109
45720,-6.469133,-1.972822,0.478840,99.243164,37.139893,61.737061,34.152344
45760,-4.390966,-2.375048,1.206678,53.558350,-27.404785,18.890381,34.140625
45800,-3.462016,-3.107674,-0.402226,55.053711,-73.730469,-28.717041,34.156250
45840,-4.616021,-2.772485,-2.250550,67.749023,-76.293945,-78.155518,34.142578
45880,-13.067553,3.567361,-5.870583,54.168701,-8.117676,-3.875732,34.156250
45920,-15.514427,9.524135,-4.711789,-53.253174,-6.561279,6.256104,34.158203
45960,-11.808203,2.317587,-2.001553,41.687012,-34.027100,-44.158936,34.128906
46000,-14.020445,-2.341529,0.129287,-75.134277,30.242920,-12.298584,34.140625
46040,-10.357317,-4.352659,-0.210690,75.134277,-99.243164,-51.940918,34.140625
46080,-8.394072,-4.802769,0.723049,44.708252,-93.292236,-63.934326,34.148438
46120,-8.307879,-5.037400,2.442086,95.489502,117.156982,-82.275391,34.167969
46160,-6.876147,-5.492299,3.552995,241.638184,123.016357,-107.543945,34.154297
46200,-8.762778,-3.145981,3.998317,40.466309,-19.897461,-53.100586,34.158203
46240,-10.979809,0.833182,2.284068,65.368652,-101.806641,-18.890381,34.152344
46280,-9.806650,1.905785,-0.114922,-28.442383,-161.804199,4.516602,34.152344
46320,-9.859323,0.469264,-1.877054,-321.716309,-99.792480,22.308350,34.146484
46360,-10.074800,0.397437,-1.795651,-114.776611,-39.062500,-6.256104,34.167969
46400,-9.404425,-0.258574,-1.134852,12.390137,-33.752441,-10.772705,34.193359
46440,-9.294291,-1.043872,-0.306458,-14.251709,8.209229,0.549316,34.179688
46480,-9.897630,-0.852336,1.465251,38.452148,29.418945,-10.131836,34.160156
46520,-10.764331,1.149217,2.882619,-18.157959,9.429932,-1.129150,34.160156
46560,-12.540829,1.570596,1.733402,-29.632568,1.068115,31.585693,34.164062
46600,-13.397953,1.383849,-1.929727,66.619873,116.516113,67.291260,34.154297
46640,-12.421119,-0.354342,-3.337517,61.157227,156.677246,86.761475,34.148438
46680,-12.837709,-6.387730,0.124498,-123.016357,81.878662,69.580078,34.162109
46720,-12.512098,-6.315904,1.628057,-176.361084,71.990967,69.396973,34.187500
46760,-10.199299,-0.766145,0.416591,-31.463623,-17.578125,77.117920,34.169922
46800,-10.060435,2.504335,-0.588974,-44.311523,26.092529,117.523193,34.164062
46840,-9.442732,-1.594538,-0.493206,157.165527,39.184570,91.918945,34.171875
46880,-7.963115,-2.604892,0.387861,84.869385,38.238525,85.632324,34.191406
46920,-5.803545,-2.758120,-1.182736,49.957275,-21.484375,50.506592,34.166016
46960,-4.730943,-2.063802,-2.245761,53.985596,-46.142578,10.375977,34.156250
47000,-5.372589,1.010353,-3.131616,75.103760,-47.180176,-21.240234,34.167969
47040,-10.429143,7.556100,-4.673482,62.835693,-32.409668,-8.636475,34.177734
47080,-12.473791,9.332599,-3.098097,28.564453,-36.010742,1.708984,34.179688
47120,-9.270349,3.457227,-1.254562,38.177490,-17.608643,-25.390625,34.179688
47160,-11.793838,-2.044648,-0.076614,1.861572,-24.963379,-66.650391,34.197266
47200,-12.229582,-2.997540,-2.217031,-77.056885,-74.371338,-17.791748,34.185547
47240,-9.030929,-4.017470,-0.210690,17.547607,-95.794678,-100.677490,34.250000
47280,-10.295067,-3.418920,0.612916,51.269531,-133.544922,-93.750000,34.238281
47320,-9.327810,-2.806004,1.527501,65.582275,-6.835938,-91.735840,34.230469
47360,-8.767567,-2.590526,1.977611,157.531738,19.104004,-103.302002,34.230469
47400,-8.422802,-2.738967,3.007117,94.787598,52.276611,-95.062256,34.224609
47440,-9.366117,-1.158794,2.418144,127.441406,0.244141,-53.619385,34.244141
47480,-8.499416,0.727837,0.852336,116.424561,-58.807373,-21.850586,34.234375
47520,-8.882488,0.306458,0.732626,-37.170410,-65.490723,6.286621,34.222656
47560,-9.662998,-0.488417,0.938527,-75.012207,-80.627441,13.122559,34.257812
47600,-9.979033,-0.593762,0.919373,-4.974365,-71.105957,-0.885010,34.244141
47640,-10.299856,-0.852336,0.871489,5.889893,-52.551270,4.699707,34.253906
47680,-10.793061,-1.235408,0.047884,-134.399414,-12.542725,34.667969,34.250000
47720,-11.367670,-1.110910,0.038307,-16.601562,7.385254,15.197754,34.240234
47760,-12.363658,-1.446098,0.488417,-196.411133,13.275146,40.954590,34.251953
47800,-12.536040,0.004788,0.062249,-230.529785,99.731445,78.521729,34.253906
47840,-11.899182,0.598550,-2.882619,78.155518,166.442871,83.251953,34.240234
47880,-12.306197,-4.572925,-0.588974,-4.058838,87.860107,49.591064,34.251953
47920,-11.899182,-7.489063,2.576161,-132.690430,96.374512,37.261963,34.248047
47960,-9.409213,-2.671929,1.656788,-86.334229,66.131592,42.266846,34.281250
48000,-9.672575,3.581726,1.292869,-191.467285,-5.371094,100.830078,34.248047
48040,-8.537724,0.723049,-0.598550,39.611816,19.653320,76.965332,34.263672
48080,-7.331046,-0.881066,0.579397,94.543457,21.911621,63.934326,34.259766
48120,-7.220912,-1.666364,0.612916,100.891113,-5.401611,39.916992,34.261719
48160,-6.871359,-2.964022,-0.411803,120.422363,-23.071289,19.531250,34.259766
48200,-6.689400,-2.159570,-1.948880,120.849609,-27.984619,-13.061523,34.240234
48240,-9.634268,2.188300,-4.635174,72.692871,2.288818,2.044678,34.255859
48280,-12.157756,6.991069,-6.493075,5.584717,-27.252197,30.731201,34.261719
48320,-8.240842,5.683835,-2.978387,-0.732422,-37.322998,-0.122070,34.255859
48360,-9.476251,0.593762,2.039860,71.929932,-6.286621,-54.443359,34.250000
48400,-17.444153,-2.695871,-1.417367,-68.908691,-66.772461,36.743164,34.263672
48440,-9.567230,-6.162675,-0.612916,-40.466309,16.906738,-47.943115,34.291016
48480,-8.178593,-5.865794,0.579397,44.708252,-16.571045,-82.092285,34.261719
48520,-9.399636,-4.778827,3.117251,101.013184,-15.411377,-73.974609,34.287109
48560,-10.050858,-3.126827,2.173935,81.848145,-127.899170,-87.860107,34.273438
48600,-9.155427,-1.929727,1.527501,79.406738,-82.885742,-86.486816,34.275391
48640,-9.040505,-0.794875,1.139640,181.854248,8.392334,-82.122803,34.279297
48680,-9.524135,-0.876278,-0.100556,-76.721191,-26.702881,-23.071289,34.287109
48720,-9.662998,-1.244985,0.344765,35.766602,-25.970459,-29.846191,34.292969
48760,-9.696517,-1.479617,0.957681,8.026123,-27.099609,-15.960693,34.281250
48800,-9.998186,-1.101333,1.067814,-17.211914,-45.074463,-1.556396,34.277344
48840,-10.084377,-0.181959,0.727837,-122.833252,-15.411377,25.207520,34.283203
48880,-9.811439,0.804452,0.067038,-49.072266,-0.427246,28.259277,34.261719
48920,-10.232818,0.517148,-0.493206,-19.897461,24.658203,50.018311,34.269531
48960,-11.453861,-0.847547,-0.220267,-55.664062,31.829834,69.610596,34.291016
49000,-12.478580,-3.519476,-0.172383,-199.005127,37.353516,77.880859,34.294922
49040,-10.342952,-4.501099,-1.446098,-288.879395,76.934814,96.008301,34.267578
49080,-8.801085,-3.145981,-3.529053,115.600586,151.885986,39.367676,34.283203
49120,-11.118672,-0.617704,0.172383,33.630371,69.244385,50.018311,34.283203
49160,-10.749966,0.608127,0.794875,-84.899902,31.951904,43.823242,34.291016
49200,-9.006987,-0.497994,-1.699883,-11.474609,41.168213,33.264160,34.273438
49240,-8.010999,-1.086968,-2.331953,58.105469,30.731201,31.066895,34.332031
49280,-7.637504,-0.852336,-1.517924,38.085938,-1.708984,14.892578,34.330078
49320,-8.164227,-0.550666,-2.054225,51.239014,-19.775391,-0.640869,34.351562
49360,-8.599973,-0.454898,-3.485958,70.922852,6.347656,-1.312256,34.326172
49400,-9.758766,0.751779,-4.635174,34.729004,44.036865,28.442383,34.332031
49440,-9.524135,2.240973,-5.300763,-6.713867,50.781250,25.604248,34.335938
49480,-7.924808,1.695095,-5.085284,6.286621,20.843506,21.820068,34.371094
49520,-8.288726,1.632846,-4.548983,15.533447,25.939941,35.583496,34.335938
49560,-8.609550,2.039860,-4.228160,19.836426,24.414062,24.688721,34.335938
49600,-7.671022,2.173935,-4.242526,19.866943,0.518799,9.307861,34.335938
49640,-6.473921,2.102109,-4.232949,-6.469727,-60.882568,-10.070801,34.316406
49680,-7.369353,1.446098,-3.849876,-80.535889,-130.310059,-64.758301,34.345703
49720,-16.965313,1.508347,-5.066131,-120.422363,-73.638916,-7.873535,34.337891
49760,-9.117120,-2.671929,-1.503559,-133.361816,-94.177246,-49.713135,34.345703
49800,-7.795521,-6.651093,0.052672,-20.904541,-272.033691,-118.713379,34.347656
49840,-10.591949,-4.074931,2.475605,4.455566,-111.663818,-115.325928,34.359375
49880,-10.520123,-1.517924,3.136404,-24.017334,-136.413574,-93.719482,34.371094
49920,-9.753978,-0.181959,3.600879,16.174316,-6.683350,-85.174561,34.349609
49960,-9.270349,0.220267,2.351106,123.535156,10.223389,-71.105957,34.375000
50000,-7.963115,0.407014,1.254562,-9.979248,-15.380859,-27.709961,34.347656
50040,-9.093178,0.823605,-0.493206,1.953125,-49.865723,-13.000488,34.357422
50080,-9.466674,0.732626,-0.201113,106.201172,-16.235352,-31.066895,34.378906
50120,-9.179369,-0.344765,1.110910,-28.625488,-27.252197,-3.448486,34.357422
50160,-9.792285,0.292093,2.422932,-78.247070,-3.784180,32.012939,34.367188
50200,-11.923124,1.077391,3.830723,-193.328857,-82.916260,69.641113,34.355469
50240,-15.049952,-1.915361,-2.494758,-136.352539,43.182373,46.722412,34.355469
50280,-15.337256,0.679953,-3.145981,-5.767822,119.171143,67.779541,34.388672
50320,-13.747506,-0.090980,-2.729390,-13.244629,177.246094,87.249756,34.345703
50360,-13.417107,-6.804321,1.934515,-58.654785,89.538574,67.504883,34.355469
50400,-13.608643,-4.769250,3.591303,-207.336426,160.949707,113.189697,34.373047
50440,-11.563994,-0.287304,0.703895,-161.834717,66.467285,106.994629,34.357422
50480,-8.025364,-0.991199,0.019154,60.119629,64.849854,125.701904,34.365234
50520,-4.888960,-0.742203,1.551443,103.302002,80.657959,95.550537,34.345703
50560,-3.088520,-1.335965,1.757344,74.676514,34.423828,65.155029,34.369141
50600,-3.122039,-1.896208,0.325611,86.669922,-18.890381,19.104004,34.361328
50640,-3.596091,-1.546654,-2.020706,166.503906,-58.410645,-28.503418,34.361328
50680,-10.649409,4.276044,-8.427590,80.383301,-51.147461,20.904541,34.375000
50720,-16.534357,9.993398,-9.955091,31.677246,-36.804199,0.915527,34.382812
50760,-13.426683,1.781286,-5.281609,15.411377,-42.358398,-6.530762,34.388672
50800,-13.014880,-3.174711,2.202666,-72.723389,113.586426,-40.008545,34.363281
50840,-5.650316,-5.856217,0.421380,-75.836182,-51.422119,-28.778076,34.375000
50880,-10.548853,-8.231265,0.086191,-65.490723,-227.447510,-143.005371,34.380859
50920,-9.337387,-5.722142,1.589750,48.034668,-54.992676,-133.911133,34.359375
50960,-9.303867,-3.213019,2.020706,152.160645,-22.033691,-125.701904,34.361328
51000,-9.677363,-1.216254,3.371036,236.297607,-68.084717,-116.760254,34.384766
51040,-9.658210,1.982399,2.341529,276.000977,-75.103760,-19.409180,34.375000
51080,-8.240842,2.274492,-0.737414,18.096924,-147.827148,31.616211,34.378906
51120,-7.953538,0.440533,-2.025495,-148.712158,-85.388184,13.183594,34.396484
51160,-9.682152,0.124498,-0.296881,-191.925049,-53.527832,36.804199,34.384766
51240,-12.895170,-1.120486,0.177171,-141.815186,-7.568359,30.273438,34.451172
51280,-13.541605,0.708684,-1.709460,-40.771484,45.471191,27.282715,34.429688
51320,-12.947843,1.570596,-2.212242,-189.147949,116.973877,71.350098,34.443359
51360,-11.860875,-0.363919,-2.944868,17.486572,145.538330,112.274170,34.437500
51400,-13.417107,-4.587290,2.001553,70.373535,137.237549,87.188721,34.437500
51440,-16.136919,-5.497087,2.461239,-303.649902,71.136475,101.989746,34.433594
51480,-12.665327,-2.035071,-0.780510,-66.589355,60.089111,101.959229,34.443359
51520,-8.418014,0.282516,0.344765,-44.403076,19.073486,104.705811,34.451172
51560,-5.947197,-1.345541,1.426944,108.581543,37.109375,59.936523,34.451172
51600,-3.078943,-2.164358,2.001553,96.649170,16.815186,33.020020,34.439453
51640,-1.848324,-2.978387,0.957681,58.502197,-48.614502,3.845215,34.427734
51680,-2.671929,-2.959233,-1.278504,134.368896,-31.799316,-40.893555,34.441406
51720,-11.066000,1.881842,-6.584054,131.683350,20.935059,40.039062,34.443359
51760,-17.611748,12.287044,-9.375694,25.451660,-2.197266,11.840820,34.466797
51800,-7.661446,4.146757,-4.189853,-27.557373,-78.308105,-32.012939,34.447266
51840,-10.582372,-4.089296,1.824382,37.597656,-19.744873,-175.048828,34.441406
51880,-15.543158,-8.820239,0.445322,-57.617188,-141.174316,-19.714355,34.439453
51920,-8.140285,-6.430826,1.695095,-14.923096,-157.287598,-48.461914,34.470703
51960,-9.198523,-4.108450,3.126827,145.996094,96.038818,-93.292236,34.443359
52000,-10.711658,-3.859453,4.094085,162.902832,76.568604,-102.233887,34.464844
52040,-9.773131,-3.854665,3.529053,219.879150,-44.738770,-86.334229,34.480469
52080,-8.240842,0.047884,1.283292,178.283691,-111.999512,-29.235840,34.470703
52120,-6.703765,2.614468,-0.416591,106.872559,-82.794189,2.441406,34.458984
52160,-6.856994,2.389413,0.057461,-135.681152,-84.686279,27.252197,34.466797
52200,-9.490616,0.598550,0.981623,-244.079590,-84.899902,52.520752,34.447266
52240,-12.339716,-1.436521,-1.000776,-420.379639,-78.430176,46.112061,34.460938
52280,-12.799402,-1.379060,-2.571373,-26.428223,16.235352,6.195068,34.472656
52320,-13.158532,2.935291,-2.121263,156.311035,43.334961,5.981445,34.484375
52360,-13.359646,3.031059,-0.957681,-190.155029,133.789062,76.904297,34.457031
52400,-12.646173,0.368707,-2.729390,96.649170,179.138184,104.187012,34.476562
52440,-13.972561,-5.061342,2.202666,20.812988,123.992920,82.244873,34.462891
52480,-15.102624,-5.999869,3.074155,-332.305908,41.320801,91.156006,34.443359
52520,-12.004527,1.120486,-0.268151,-69.976807,50.384521,110.870361,34.482422
52560,-9.643845,1.762132,0.287304,44.799805,30.822754,98.663330,34.466797
52600,-6.871359,-1.594538,2.035071,136.352539,36.743164,66.528320,34.464844
52640,-4.132392,-2.197877,2.355895,144.958496,25.421143,37.902832,34.462891
52680,-2.949656,-3.241749,1.125275,95.733643,-56.427002,8.056641,34.486328
52720,-3.241749,-4.343082,-1.110910,105.438232,-53.863525,-34.118652,34.462891
52760,-9.255983,-1.374272,-5.099649,86.791992,-22.583008,-15.045166,34.486328
52800,-17.530344,8.475474,-10.266336,12.634277,-14.007568,40.893555,34.474609
52840,-9.639056,5.463568,-5.473145,-13.366699,-66.436768,-30.883789,34.466797
52880,-11.980585,-1.929727,4.022259,-36.010742,2.655029,-93.536377,34.480469
52920,-13.608643,-6.186617,0.588974,-154.846191,-50.231934,5.828857,34.496094
52960,-8.307879,-8.221688,-0.440533,79.772949,-156.158447,-101.745605,34.503906
53000,-8.695741,-6.933608,2.097321,-53.802490,-25.177002,-83.496094,34.486328
53040,-9.270349,-3.778050,4.405331,2.258301,-26.306152,-64.727783,34.482422
53080,-11.405977,0.033519,5.042189,44.921875,-82.214355,-55.664062,34.498047
53120,-10.156203,2.537854,3.098097,-73.669434,-116.973877,-25.665283,34.482422
53160,-8.992621,1.350330,0.675165,-217.132568,-47.027588,-22.460938,34.494141
53200,-8.959103,0.320823,-1.953669,-107.025146,-21.789551,-34.362793,34.548828
53240,-9.461885,0.814029,-1.675941,37.567139,-11.352539,-34.637451,34.529297
53280,-9.548077,1.268927,-0.158017,64.727783,51.971436,-23.895264,34.533203
53320,-9.174581,1.154005,1.000776,236.267090,71.868896,-20.965576,34.519531
53360,-10.457873,1.594538,1.747767,249.237061,19.897461,-8.575439,34.552734
53400,-11.377247,1.254562,3.821146,-272.216797,-49.346924,47.973633,34.552734
53440,-12.018892,-2.930503,-2.892196,-276.245117,15.991211,27.069092,34.539062
53480,-11.382035,-0.263362,-4.448427,-5.981445,146.820068,64.147949,34.537109
53520,-11.894394,0.445322,-1.441309,28.686523,135.559082,126.770020,34.558594
53560,-15.409082,-5.803545,1.685518,-81.787109,63.171387,75.103760,34.574219
53600,-13.809755,-4.979939,1.086968,-180.145264,24.047852,72.387695,34.564453
53640,-9.734824,1.771709,-0.919373,-46.325684,-1.953125,83.557129,34.544922
53680,-8.001422,0.110133,-0.531513,38.360596,24.200439,68.206787,34.556641
53720,-6.205771,-1.479617,1.479617,70.831299,16.265869,40.466309,34.537109
53760,-5.190629,-0.967257,1.532289,113.952637,-2.593994,17.272949,34.539062
53800,-5.075707,-2.221819,0.430956,95.184326,-50.201416,4.669189,34.539062
53840,-5.209783,-3.725378,-1.398214,124.603271,-71.899414,-38.299561,34.542969
53880,-10.745177,1.120486,-3.974375,115.234375,-42.724609,-58.380127,34.542969
53920,-16.184803,10.070012,-6.751649,-38.330078,11.596680,21.209717,34.562500
53960,-9.835381,5.434838,-3.270479,4.577637,-12.664795,-19.378662,34.564453
54000,-8.657434,-1.886631,4.323928,231.414795,-29.235840,-75.531006,34.548828
54040,-14.001291,-3.653552,2.207454,-252.868652,2.532959,-14.739990,34.548828
54080,-10.587160,-5.856217,-2.729390,-156.616211,-107.574463,-59.600830,34.554688
54120,-6.459556,-6.631939,-0.995988,129.455566,72.448730,-67.504883,34.542969
54160,-9.955091,-4.486734,0.976834,312.072754,90.759277,-86.791992,34.548828
54200,-11.774684,-0.287304,4.127604,139.221191,-16.357422,-52.978516,34.566406
54240,-9.854534,0.584185,2.446874,53.802490,-71.899414,-26.306152,34.550781
54280,-8.269572,-0.459687,-0.785298,-68.511963,-56.091309,-16.296387,34.576172
54320,-7.733272,-0.497994,-1.307234,29.052734,-17.791748,-16.326904,34.544922
54360,-8.317456,-0.766145,-0.009577,64.453125,-23.925781,-27.130127,34.558594
54400,-8.815451,-2.236184,0.957681,-75.897217,-36.956787,-25.665283,34.568359
54440,-10.290278,-1.599327,1.221043,-31.402588,-9.185791,-18.096924,34.585938
54480,-11.827356,1.594538,-0.407014,-22.918701,-81.237793,8.270264,34.568359
54520,-12.272678,2.906561,-1.953669,10.345459,47.485352,35.675049,34.566406
54560,-13.034034,0.919373,-2.370260,-14.434814,124.969482,65.307617,34.591797
54600,-13.862428,-2.638410,-1.905785,26.184082,149.291992,86.730957,34.558594
54640,-14.590265,-8.279149,1.426944,-141.815186,114.807129,72.692871,34.582031
54680,-12.239159,-6.636727,1.015141,-298.004150,52.551270,71.899414,34.566406
54720,-9.370906,1.762132,-0.679953,-96.618652,-23.620605,93.017578,34.578125
54760,-8.116343,1.321599,-0.335188,20.202637,24.017334,91.888428,34.578125
54800,-6.670246,-1.158794,0.766145,134.033203,39.581299,67.413330,34.568359
54840,-5.023035,-1.264138,0.761356,122.955322,18.554688,47.851562,34.585938
54880,-4.639963,-2.183512,-0.172383,91.491699,-55.267334,21.301270,34.582031
54920,-4.884171,-3.193865,-1.273715,122.741699,-86.944580,-28.198242,34.578125
54960,-7.982268,-1.024718,-4.481946,83.770752,-66.009521,-63.781738,34.568359
55000,-16.927006,10.151415,-9.232041,-5.035400,-11.993408,29.083252,34.572266
55040,-12.713211,6.181829,-5.094861,37.353516,-14.495850,5.950928,34.591797
55080,-12.325351,-2.748544,0.976834,40.924072,22.247314,-43.701172,34.585938
55120,-11.707646,-6.397307,0.699107,-18.249512,22.247314,-24.230957,34.578125
55160,-9.749189,-6.311116,0.292093,-58.593750,-166.137695,-51.940918,34.564453
55200,-9.155427,-5.128380,1.824382,93.963623,35.430908,-97.717285,34.650391
55240,-7.747637,-5.353435,2.964022,147.125244,57.830811,-106.506348,34.621094
55280,-9.016563,-3.088520,3.538630,243.835449,-37.750244,-83.068848,34.646484
55320,-9.859323,1.048660,3.457227,224.182129,-25.177002,-15.380859,34.621094
55360,-8.887277,2.935291,-1.436521,9.155273,-265.594482,58.349609,34.632812
55400,-9.121908,2.858677,-1.881842,-346.954346,-115.539551,71.136475,34.626953
55440,-11.046846,-0.837971,-2.087744,-390.014648,-99.884033,51.239014,34.646484
55480,-11.607090,-3.169923,-3.078943,84.777832,-13.061523,-40.740967,34.630859
55520,-12.330139,0.292093,-0.114922,75.378418,11.566162,-23.895264,34.652344
55560,-12.737153,0.603339,0.952892,-40.069580,2.685547,-7.324219,34.642578
55600,-12.770672,0.751779,-1.805228,-76.446533,47.302246,8.941650,34.638672
55640,-12.354081,1.541866,-1.345541,-52.124023,154.510498,59.112549,34.632812
55680,-11.698070,0.670376,-0.009577,31.829834,127.502441,89.385986,34.630859
55720,-13.158532,-5.702989,1.517924,-88.226318,118.591309,61.645508,34.646484
55760,-13.244724,-8.394072,1.824382,-327.667236,94.573975,61.065674,34.644531
55800,-8.183381,-3.318364,0.258574,-67.871094,-23.864746,92.437744,34.628906
55840,-10.132261,4.280833,-0.517148,-46.417236,45.776367,120.513916,34.640625
55880,-8.963891,-0.325611,-0.407014,117.858887,50.292969,86.578369,34.654297
55920,-4.817134,-2.695871,1.527501,76.202393,39.978027,81.085205,34.654297
55960,-2.418144,-2.762909,0.727837,61.187744,-21.179199,27.008057,34.646484
56000,-2.561796,-1.570596,-0.732626,83.007812,-67.321777,-20.324707,34.634766
56040,-6.306327,1.987187,-3.117251,109.191895,-84.930420,-50.292969,34.656250
56080,-15.892711,8.556877,-6.631939,2.655029,-59.997559,-3.601074,34.646484
56120,-13.852851,6.224925,-5.104438,39.672852,3.082275,-11.596680,34.625000
56160,-9.303867,-0.225055,-0.742203,35.064697,-17.486572,-109.710693,34.666016
56200,-16.117765,-5.707777,-1.383849,-161.834717,-140.228271,-40.161133,34.666016
56240,-9.916783,-6.718130,0.632069,-47.729492,-58.563232,-30.395508,34.666016
56280,-7.714118,-4.831499,0.895431,24.475098,-104.125977,-70.709229,34.646484
56320,-8.418014,-3.409343,2.126051,156.158447,100.555420,-103.363037,34.646484
56360,-9.050082,-2.422932,2.351106,161.987305,53.405762,-85.174561,34.640625
56400,-8.939949,-0.986411,1.795651,133.514404,14.190674,-42.053223,34.656250
56440,-8.130709,0.062249,1.249773,26.489258,-36.651611,-14.465332,34.671875
56480,-7.881712,1.446098,1.431733,-121.765137,-112.335205,24.444580,34.669922
56520,-8.920795,1.067814,1.920150,-247.039795,-131.286621,24.841309,34.658203
56560,-10.769119,-0.627281,0.593762,-46.997070,-111.785889,-24.230957,34.679688
56600,-12.033257,-2.513912,-5.439626,35.827637,-59.600830,-17.883301,34.671875
56640,-12.861651,-0.272939,-2.432509,103.485107,38.879395,1.220703,34.669922
56680,-13.206416,3.356671,2.542642,-121.002197,-10.955811,35.156250,34.683594
56720,-14.049175,2.499547,-1.843535,-15.594482,121.124268,80.993652,34.669922
56760,-13.464991,-1.355118,-3.260903,34.210205,145.385742,79.711914,34.656250
56800,-14.125790,-7.335834,1.929727,-229.522705,91.094971,68.115234,34.656250
56840,-12.871228,-6.880936,2.207454,-228.546143,98.205566,71.258545,34.656250
56880,-10.175357,-2.154782,-0.435745,-19.989014,71.838379,53.009033,34.671875
56920,-8.690952,1.493982,0.794875,-53.009033,65.612793,108.703613,34.669922
56960,-7.867347,-0.081403,0.675165,132.537842,107.238770,99.914551,34.650391
57000,-5.846641,-1.891419,1.154005,93.170166,88.653564,87.432861,34.675781
57040,-3.629610,-2.245761,-0.301669,47.607422,-6.195068,16.693115,34.681641
57080,-2.887407,-2.676718,-1.848324,63.262939,-37.109375,-6.652832,34.669922
57120,-5.559336,1.288081,-4.975151,-2.105713,-101.867676,-0.457764,34.675781
57160,-13.781025,9.318233,-8.863335,-10.620117,-74.188232,-15.350342,34.724609
57200,-11.755530,6.904878,-5.339070,34.240723,-14.160156,-30.731201,34.734375
57240,-10.903194,0.248997,0.852336,-35.858154,-25.207520,-76.568604,34.742188
57280,-14.465767,-5.003881,-2.705448,-109.161377,-140.075684,-8.972168,34.742188
57320,-8.623915,-5.698200,-0.186748,-70.709229,-171.508789,-54.809570,34.732422
57360,-9.059659,-4.357447,1.963245,43.823242,-117.614746,-101.562500,34.734375
57400,-8.398860,-3.533842,3.768473,53.771973,53.009033,-114.685059,34.734375
57440,-9.232041,-2.767697,4.089296,150.268555,-40.008545,-125.488281,34.724609
57480,-9.126697,-0.833182,2.973598,201.965332,1.953125,-108.489990,34.722656
57520,-8.087613,0.488417,1.814805,83.465576,-26.153564,-46.600342,34.728516
57560,-8.269572,1.268927,0.900220,-19.256592,-100.616455,4.913330,34.732422
57600,-9.313444,0.622492,0.804452,-60.668945,-103.363037,13.488770,34.751953
57640,-10.170568,-0.067038,0.799663,-158.477783,-66.467285,26.672363,34.748047
57680,-10.515334,-0.335188,0.129287,-158.996582,-20.843506,29.541016,34.736328
57720,-10.960655,-0.905008,-0.205901,43.518066,-4.241943,-0.427246,34.730469
57760,-11.458650,-0.550666,2.317587,-9.124756,1.800537,13.641357,34.734375
57800,-13.072341,-0.900220,2.226608,-228.515625,70.465088,46.630859,34.732422
57840,-13.536817,0.311246,-2.063802,-33.386230,133.300781,50.567627,34.750000
57880,-12.114660,1.312023,-2.001553,49.987793,174.316406,95.306396,34.742188
57920,-12.799402,-3.845088,1.015141,-21.820068,96.710205,66.711426,34.738281
57960,-12.842498,-7.249643,2.863465,-248.443604,84.411621,74.584961,34.734375
58000,-8.968679,-3.509900,1.388637,-45.989990,75.744629,30.944824,34.753906
58040,-8.753201,4.817134,2.140416,-89.721680,-42.816162,130.371094,34.751953
58080,-8.987833,2.269703,0.201113,95.947266,32.867432,88.714600,34.763672
58120,-6.426037,-1.407791,1.359907,137.390137,42.358398,62.469482,34.765625
58160,-5.453991,-2.662352,1.379060,96.496582,-30.456543,23.651123,34.755859
58200,-4.529830,-3.998317,-0.641646,111.724854,-46.508789,-19.683838,34.748047
58240,-5.511452,-2.379837,-2.906561,119.689941,-40.405273,-58.410645,34.771484
58280,-14.279019,5.142745,-7.910442,10.955811,-11.627197,20.446777,34.742188
58320,-14.872781,9.102755,-5.343858,28.045654,7.751465,9.521484,34.746094
58360,-10.433931,3.193865,-0.531513,37.506104,-64.239502,-39.001465,34.757812
58400,-12.315774,-2.614468,3.098097,5.432129,50.079346,-52.215576,34.746094
58440,-9.797073,-5.540183,-0.588974,-87.646484,-133.056641,-5.676270,34.775391
58480,-9.265560,-6.210559,-0.344765,57.708740,-195.648193,-85.205078,34.781250
58520,-8.427590,-5.372589,2.561796,102.935791,96.801758,-102.294922,34.757812
58560,-8.106767,-3.830723,2.528277,193.634033,75.012207,-109.771729,34.757812
58600,-9.667787,-1.747767,2.327164,254.821777,37.353516,-78.582764,34.773438
58640,-9.212888,1.034295,1.278504,100.646973,-72.357178,-6.927490,34.775391
58680,-8.303091,1.637634,-0.335188,-49.377441,-104.095459,10.681152,34.787109
58720,-8.872911,0.454898,-0.833182,-17.578125,-81.817627,4.394531,34.783203
58760,-9.471462,-0.301669,0.009577,12.908936,-71.899414,2.166748,34.775391
58800,-9.351752,-0.957681,0.895431,-84.655762,-66.589355,13.458252,34.765625
58840,-11.444284,-2.466028,0.129287,-217.712402,-20.629883,31.555176,34.753906
58880,-12.832921,-1.441309,-0.445322,-30.090332,8.911133,19.256592,34.779297
58920,-13.881581,1.805228,-0.536301,-142.852783,15.350342,59.448242,34.769531
58960,-13.603854,1.570596,-2.772485,10.894775,150.817871,66.986084,34.753906
59000,-12.813767,-2.695871,-1.580173,33.386230,157.684326,70.129395,34.767578
59040,-12.871228,-7.503428,2.724602,-94.390869,148.284912,50.537109,34.771484
59080,-12.263102,-4.084508,2.178724,-228.027344,93.292236,65.093994,34.779297
59120,-10.319010,2.959233,0.339977,-159.790039,-15.472412,96.984863,34.761719
59160,-8.346188,0.454898,-0.665588,70.556641,36.956787,78.186035,34.804688
59200,-5.755661,-2.015918,0.670376,140.747070,70.312500,84.594727,34.841797
59240,-4.716578,-1.814805,1.101333,63.110352,14.984131,45.410156,34.820312
59280,-4.711789,-2.561796,-0.665588,77.545166,-15.869141,10.528564,34.818359
59320,-4.280833,-1.924938,-2.729390,102.416992,-46.081543,-29.174805,34.810547
59360,-9.567230,2.705448,-7.359776,2.502441,-70.465088,2.441406,34.839844
59400,-15.567100,8.547300,-8.748413,35.919189,-9.399414,-2.319336,34.833984
59440,-10.515334,4.118027,-4.912902,6.774902,-57.464600,3.509521,34.835938
59480,-9.653421,-2.025495,3.074155,49.530029,-8.483887,-125.335693,34.833984
59520,-13.733141,-6.023811,-0.023942,-234.191895,-120.574951,3.906250,34.843750
59560,-9.342175,-5.990293,-1.154005,-21.850586,-279.479980,-63.446045,34.796875
59600,-8.719683,-4.065354,1.857901,74.554443,9.399414,-104.766846,34.791016
59640,-8.585608,-2.863465,2.676718,184.295654,119.995117,-129.058838,34.822266
59680,-8.633492,-1.963245,3.462016,255.035400,135.986328,-101.470947,34.843750
59720,-8.983045,0.521936,2.638410,169.799805,-104.309082,-17.425537,34.814453
59760,-8.054094,0.679953,0.287304,-29.357910,-124.145508,19.531250,34.820312
59800,-8.523358,0.248997,-0.292093,-136.566162,-71.838379,16.082764,34.845703
59840,-9.969456,0.244209,-0.004788,-83.496094,-98.571777,1.556396,34.861328
59880,-10.180145,-0.177171,-0.124498,-81.420898,-106.445312,4.699707,34.839844
59920,-10.692505,-0.799663,-0.454898,-140.075684,-21.850586,26.123047,34.853516
59960,-11.698070,-0.584185,-0.349553,51.269531,-6.896973,18.524170,34.822266
60000,-13.627796,-0.138864,0.143652,-247.253418,-14.343262,70.648193,34.839844
60040,-13.474567,-0.134075,-3.145981,-146.484375,104.278564,64.514160,34.841797
60080,-11.832145,0.445322,-3.916914,37.353516,191.131592,88.684082,34.845703
60120,-12.124237,-3.021482,2.164358,74.798584,158.111572,58.593750,34.830078
60160,-15.289372,-4.022259,3.801992,-302.764893,88.623047,73.181152,34.843750
60200,-13.283031,-1.221043,-0.373495,-147.064209,-6.164551,91.766357,34.824219
60240,-9.318233,2.274492,-0.014365,18.981934,38.482666,86.791992,34.833984
60280,-5.975927,-1.541866,1.019930,99.731445,50.292969,74.188232,34.828125
60320,-3.782839,-2.604892,1.570596,134.796143,46.783447,53.588867,34.841797
60360,-3.778050,-2.547431,0.703895,79.467773,-20.202637,15.960693,34.857422
60400,-3.792415,-2.935291,-1.800440,119.049072,-14.373779,-28.320312,34.869141
60440,-9.682152,1.661576,-6.239290,33.111572,-46.356201,17.242432,34.843750
60480,-17.104177,9.969456,-8.508993,39.489746,10.681152,15.899658,34.855469
60520,-10.127473,4.668694,-5.564125,25.054932,-49.499512,-9.643555,34.853516
60560,-9.706094,-2.600103,1.829170,-43.151855,-47.943115,-115.966797,34.861328
60600,-12.143391,-6.751649,0.019154,-111.663818,-89.202881,-32.257080,34.843750
60640,-8.729259,-7.455544,1.479617,43.884277,-128.967285,-118.469238,34.847656
60680,-9.835381,-4.046201,3.562572,-22.949219,-87.585449,-91.583252,34.865234
60720,-9.821015,-1.948880,4.486734,-75.103760,-79.162598,-79.162598,34.843750
60760,-10.108319,-0.531513,4.027047,-29.541016,-100.708008,-58.044434,34.867188
60800,-9.270349,0.531513,1.043872,-208.435059,2.838135,-42.785645,34.876953
60840,-7.905654,-0.426168,-2.686294,111.236572,-23.529053,-37.689209,34.867188
60880,-7.891289,0.100556,0.368707,106.842041,-42.144775,-47.210693,34.865234
60920,-9.059659,-0.948104,2.298434,-12.268066,-49.652100,-48.645020,34.859375
60960,-9.868899,-0.186748,1.134852,-8.483887,-41.748047,-28.564453,34.865234
61000,-10.797850,0.656011,0.100556,57.922363,-23.040771,-8.117676,34.873047
61040,-11.793838,1.388637,1.177947,97.442627,20.690918,10.192871,34.876953
61080,-13.053187,-0.306458,1.422156,-37.048340,33.843994,37.506104,34.886719
61120,-13.383588,-0.359130,0.282516,-163.116455,119.110107,78.918457,34.912109
61160,-11.511322,0.541090,-2.212242,-146.545410,165.252686,136.718750,34.900391
61200,-12.650962,-3.011906,-1.067814,143.890381,134.155273,96.710205,34.914062
61240,-14.571112,-4.587290,3.428497,-179.565430,71.563721,103.942871,34.921875
61280,-13.062764,0.234632,0.167594,-184.997559,35.095215,120.605469,34.900391
61320,-9.447520,0.210690,-1.230620,92.254639,20.812988,114.440918,34.902344
61360,-7.072472,-2.073379,1.637634,124.847412,31.250000,75.561523,34.904297
61400,-4.769250,-1.934515,2.322376,145.080566,36.193848,70.434570,34.912109
61440,-4.261679,-1.656788,1.163582,121.826172,-3.509521,20.416260,34.904297
61480,-3.864242,-2.839523,-0.555455,81.604004,-41.137695,-18.493652,34.912109
61520,-7.474698,-0.454898,-4.458004,65.399170,-83.801270,-39.886475,34.908203
61560,-17.037140,9.907207,-8.901642,28.686523,-7.629395,28.442383,34.896484
61600,-11.937490,6.909666,-5.841852,38.726807,-24.505615,-4.943848,34.917969
61640,-10.414778,1.039083,1.872266,-66.528320,-64.514160,-64.880371,34.931641
61680,-12.162544,-3.639187,1.407791,-244.079590,-33.355713,0.396729,34.892578
61720,-8.465898,-6.622362,0.258574,38.513184,-84.167480,-107.055664,34.927734
61760,-10.477027,-5.750873,2.480393,-5.462646,-176.788330,-137.329102,34.910156
61800,-8.628703,-5.415684,3.969586,-33.203125,-66.741943,-130.004883,34.935547
61840,-8.609550,-3.155558,4.721366,-90.972900,1.220703,-120.300293,34.919922
61880,-10.764331,2.044648,0.186748,-84.899902,12.023926,-67.779541,34.898438
61920,-8.734048,1.719037,-2.619257,178.344727,-0.122070,-21.789551,34.925781
61960,-8.825027,1.489193,1.029507,2.532959,-49.621582,-18.707275,34.925781
62000,-9.562442,-1.110910,1.316811,23.071289,-38.360596,-55.480957,34.917969
62040,-9.639056,-0.248997,0.248997,63.507080,-40.954590,-48.645020,34.935547
62080,-10.180145,0.957681,-0.095768,88.470459,-5.920410,-13.061523,34.941406
62120,-11.410766,2.394202,1.465251,116.729736,21.392822,19.348145,34.941406
62160,-12.339716,-0.727837,2.169147,13.671875,-15.777588,19.744873,34.935547
62200,-12.804191,-2.513912,-0.531513,-116.760254,56.671143,24.475098,34.937500
62240,-11.573571,0.014365,-1.561020,-101.959229,131.317139,92.437744,34.927734
62280,-11.185710,-0.584185,-0.181959,39.154053,156.951904,121.215820,34.933594
62320,-13.795390,-4.209007,2.427721,-39.672852,116.485596,76.690674,34.927734
62360,-15.002068,-3.361459,1.738190,-272.460938,37.445068,106.201172,34.935547
62400,-11.444284,-1.393425,-1.532289,-27.770996,34.729004,110.290527,34.917969
62440,-8.255207,-1.288081,0.435745,-6.774902,-25.787354,109.832764,34.927734
62480,-6.133945,-0.857124,2.217031,107.574463,17.517090,92.681885,34.935547
62520,-4.194642,-1.561020,2.552219,143.280029,40.222168,68.054199,34.960938
62560,-3.500323,-2.509123,0.435745,110.137939,-27.374268,12.542725,34.941406
62600,-4.371812,-2.542642,-2.269703,109.619141,-89.019775,-57.647705,34.939453
62640,-11.836933,4.443638,-6.315904,102.722168,-46.203613,-31.921387,34.941406
62680,-15.576676,10.697293,-6.033388,-43.853760,-37.902832,23.834229,34.927734
62720,-15.131354,4.132392,-1.240196,28.961182,-3.662109,-13.671875,34.947266
62760,-13.943830,-1.987187,-0.225055,-189.056396,32.409668,32.165527,34.939453
62800,-6.598420,-6.794744,1.144428,-85.418701,-130.523682,-45.989990,34.939453
62840,-9.662998,-5.339070,3.466804,-64.575195,-177.276611,-85.235596,34.968750
62880,-9.447520,-2.609680,0.943315,-41.809082,-5.035400,-110.931396,34.941406
62920,-7.244854,-2.432509,0.952892,-150.756836,-140.930176,-106.628418,34.949219
62960,-7.996634,-1.039083,3.318364,-31.860352,-51.086426,-108.093262,34.957031
63000,-9.208099,-0.718261,4.453215,60.241699,76.232910,-85.357666,34.927734
63040,-9.476251,0.330400,0.435745,102.386475,2.807617,-47.454834,34.945312
63080,-9.217676,0.469264,0.287304,72.509766,-33.843994,-57.922363,34.953125
63120,-9.648633,0.952892,0.287304,93.933105,-25.390625,-55.297852,34.917969
63160,-10.251971,1.671153,1.407791,48.156738,-23.986816,-25.054932,34.986328
63200,-11.731588,1.675941,2.097321,15.441895,-23.925781,13.061523,34.990234
63240,-12.852075,-2.140416,0.679953,-46.905518,-7.507324,22.125244,35.003906
63280,-13.962984,-0.943315,-1.039083,-41.290283,70.892334,35.552979,34.986328
63320,-13.043611,2.178724,-1.398214,-53.619385,146.972656,81.817627,35.003906
63360,-12.416330,-1.790863,-0.746991,-15.106201,136.077881,103.698730,35.000000
63400,-13.594277,-6.086061,2.580950,-126.342773,109.008789,79.742432,34.998047
63440,-13.905523,-3.509900,-0.186748,-124.969482,117.553711,83.160400,34.994141
63480,-11.166556,-1.996764,-0.081403,-28.289795,105.865479,71.350098,35.001953
63520,-7.426814,-2.236184,1.091756,12.359619,70.587158,82.458496,34.990234
63560,-4.989516,-1.762132,1.254562,61.920166,68.023682,84.564209,35.013672
63600,-3.126827,-1.264138,0.962469,76.263428,44.799805,39.825439,34.992188
63640,-2.667141,-1.953669,-0.469264,59.417725,-6.896973,-2.410889,35.007812
63680,-4.084508,-1.244985,-3.787627,157.379150,-59.814453,-30.517578,35.001953
63720,-13.421895,6.143522,-10.137050,16.693115,-80.902100,50.170898,35.005859
63760,-13.833697,6.469133,-8.140285,47.973633,3.051758,7.232666,34.996094
63800,-11.161768,1.613692,-5.492299,-65.643311,-87.951660,11.260986,35.027344
63840,-12.780249,-1.776498,0.172383,-119.049072,28.900146,-28.076172,34.980469
63880,-8.585608,-5.894525,1.766921,-51.635742,-64.971924,-50.842285,35.003906
63920,-10.366894,-5.176264,2.609680,-82.397461,-203.308105,-109.130859,35.005859
63960,-8.863335,-3.107674,2.734178,-64.697266,-142.059326,-112.884521,35.000000
64000,-9.078813,-2.470816,3.179500,29.205322,-113.983154,-113.494873,35.003906
64040,-9.260772,-1.498770,4.865018,85.052490,27.221680,-97.869873,35.011719
64080,-9.351752,0.928950,2.566584,53.741455,5.310059,-62.042236,34.986328
64120,-8.896853,2.073379,-1.412579,-52.215576,-31.494141,-16.296387,35.017578
64160,-8.834604,1.288081,-0.363919,6.317139,-76.507568,-28.503418,35.009766
64200,-9.260772,-1.345541,0.885855,-45.959473,-62.896729,-45.623779,34.998047
