MS,Accel X (m/s²),Accel Y (m/s²),Accel Z (m/s²),Gyro X (°/s),Gyro Y (°/s),Gyro Z (°/s),Temp (°C)
1080,-8.844181,1.120486,-3.189077,-0.640869,42.602539,4.150391,29.654297
1120,-8.604761,0.459687,-3.031059,0.762939,35.125732,5.615234,29.648438
1160,-8.350976,0.373495,-3.423708,10.528564,35.217285,-6.927490,29.644531
1200,-7.824251,0.536301,-4.003105,8.148193,-2.441406,0.762939,29.669922
1240,-7.723695,0.737414,-4.185065,-2.410889,-23.895264,-4.058838,29.646484
1280,-8.820239,0.708684,-4.486734,11.627197,-38.940430,-8.117676,29.666016
1320,-11.578360,1.268927,-4.994305,3.723145,-22.857666,-2.990723,29.666016
1360,-10.419566,1.134852,-3.873818,28.076172,-33.905029,-24.932861,29.662109
1400,-7.819463,1.843535,-0.823605,11.596680,-95.031738,3.845215,29.681641
1440,-10.304645,-0.746991,0.191536,89.447021,-110.626221,-0.061035,29.650391
1480,-9.739613,0.244209,0.316035,-5.584717,-68.634033,27.252197,29.666016
1520,-9.600749,0.895431,-0.086191,5.676270,-64.392090,33.325195,29.687500
1560,-9.983821,0.665588,0.306458,7.690430,-53.680420,15.563965,29.669922
1600,-10.007763,0.478840,0.756568,14.190674,-54.565430,6.378174,29.679688
1640,-9.662998,1.264138,0.474052,3.540039,-44.799805,5.981445,29.662109
1680,-9.538500,0.775721,0.598550,13.275146,-41.961670,9.643555,29.685547
1720,-9.897630,-0.330400,1.197101,17.944336,-34.851074,5.859375,29.689453
1760,-10.199299,-0.320823,0.660800,22.735596,-18.493652,0.152588,29.699219
1800,-9.868899,0.469264,0.933739,25.451660,-24.566650,-5.340576,29.693359
1840,-9.428367,0.924162,1.455675,23.529053,-27.618408,-2.075195,29.693359
1880,-9.466674,0.761356,1.465251,24.536133,-32.623291,-5.615234,29.695312
1920,-9.504981,0.507571,1.532289,17.028809,-40.008545,-7.202148,29.693359
1960,-9.409213,0.531513,1.522712,29.479980,-32.928467,-4.577637,29.681641
2000,-9.619903,0.507571,1.661576,17.700195,-28.717041,0.030518,29.710938
2040,-9.835381,0.177171,1.762132,9.948730,-31.311035,-0.091553,29.701172
2080,-9.959879,-0.162806,1.824382,27.740479,-29.541016,-5.584717,29.708984
2120,-10.280702,-0.014365,1.838747,36.132812,-22.766113,-14.160156,29.691406
2160,-10.390836,0.296881,0.636858,48.217773,4.425049,-6.622314,29.714844
2200,-10.606314,-0.205901,0.363919,5.126953,17.120361,7.812500,29.708984
2240,-11.458650,-0.962469,0.282516,8.514404,35.858154,-0.823975,29.724609
2280,-11.587936,-0.890643,0.555455,9.979248,78.552246,-12.603760,29.701172
2320,-10.840945,1.154005,-0.220267,6.561279,131.134033,-18.768311,29.732422
2360,-10.850522,3.509900,-0.785298,89.874268,156.463623,-6.866455,29.738281
2400,-11.573571,3.112462,1.182736,139.831543,118.652344,-33.294678,29.720703
2440,-12.196063,1.134852,1.446098,-6.408691,91.064453,-67.840576,29.703125
2480,-11.276690,-0.296881,0.411803,-105.895996,130.920410,-60.424805,29.712891
2520,-8.633492,0.411803,-0.660800,-90.698242,97.381592,-58.959961,29.740234
2560,-7.809886,0.895431,-1.321599,-76.049805,79.864502,-47.821045,29.730469
2600,-7.709330,1.173159,-1.412579,-79.132080,56.488037,-40.527344,29.734375
2640,-6.775591,1.369483,-2.011129,-44.128418,26.458740,-17.578125,29.734375
2680,-5.664681,2.284068,-2.877831,-6.408691,-12.451172,0.793457,29.734375
2720,-5.616797,1.675941,-3.241749,-19.958496,-26.550293,25.665283,29.732422
2760,-6.943185,0.057461,-4.812346,-15.289307,-32.714844,6.469727,29.748047
2800,-9.959879,-2.466028,-8.374918,-24.444580,-11.474609,-12.542725,29.744141
2840,-12.191275,-3.337517,-8.370130,-32.745361,26.000977,-27.099609,29.744141
2880,-9.006987,-0.296881,-5.861006,-12.634277,-14.007568,-34.881592,29.728516
2920,-9.313444,1.479617,-3.682282,42.083740,-111.328125,2.746582,29.740234
2960,-14.686033,0.483629,-3.380613,-13.183594,-18.798828,-10.131836,29.738281
3000,-8.944737,2.461239,-0.459687,110.565186,-65.429688,16.571045,29.734375
3040,-5.042189,5.295974,1.604115,77.636719,-165.313721,68.237305,29.732422
3080,-10.678140,-0.349553,3.112462,-5.187988,-98.358154,44.006348,29.828125
3120,-11.051635,-2.327164,1.450886,13.183594,-73.364258,20.996094,29.839844
3160,-9.193734,1.398214,-0.263362,41.870117,-96.343994,18.188477,29.841797
3200,-8.576031,2.092532,0.411803,58.166504,-74.371338,25.573730,29.832031
3240,-9.648633,-0.665588,1.575385,-1.922607,-38.269043,26.947021,29.845703
3280,-10.223241,-1.561020,1.115698,1.647949,-37.048340,-1.953125,29.833984
3320,-9.797073,0.023942,0.244209,24.505615,-51.940918,-6.042480,29.855469
3360,-9.265560,0.493206,0.464475,25.238037,-61.798096,-1.647949,29.863281
3400,-9.260772,0.268151,0.919373,39.459229,-60.485840,-2.807617,29.849609
3440,-9.610326,-0.493206,1.158794,63.079834,-36.437988,1.556396,29.837891
3480,-10.074800,-1.211466,1.972822,91.156006,-11.901855,-5.432129,29.837891
3520,-11.449073,-0.344765,1.465251,4.425049,-26.000977,-26.885986,29.839844
3560,-12.694057,1.446098,-0.100556,-19.195557,19.531250,13.366699,29.849609
3600,-13.321339,-0.383072,-0.857124,68.695068,64.270020,-5.615234,29.839844
3640,-11.951855,-1.742979,0.253785,46.752930,112.701416,-31.036377,29.845703
3680,-11.051635,0.627281,0.292093,-35.095215,174.285889,-43.670654,29.851562
3720,-11.774684,3.663129,1.417367,57.006836,149.414062,-9.216309,29.861328
3760,-12.785037,3.232172,1.182736,83.251953,145.965576,-42.846680,29.869141
3800,-11.779472,1.067814,0.766145,-94.543457,146.240234,-81.848145,29.843750
3840,-8.925584,-0.248997,0.502782,-99.884033,133.880615,-79.040527,29.882812
3880,-6.880936,-0.732626,-0.378284,-100.250244,75.836182,-51.849365,29.847656
3920,-6.550536,0.004788,-0.493206,-101.287842,56.335449,-35.736084,29.853516
3960,-5.999869,1.628057,-0.675165,-71.777344,24.261475,-15.960693,29.878906
4000,-4.917690,3.126827,-2.384625,9.857178,-28.564453,-2.502441,29.863281
4040,-4.802769,2.600103,-3.821146,18.493652,-74.096680,28.686523,29.871094
4080,-9.232041,-1.422156,-8.188169,-4.699707,-35.430908,18.768311,29.878906
4120,-14.705187,-5.813122,-10.697293,-92.559814,69.763184,-33.050537,29.880859
4160,-8.398860,-1.268927,-6.789956,-56.335449,-28.686523,-44.799805,29.882812
4200,-8.087613,0.905008,-2.226608,104.858398,-152.526855,-0.823975,29.837891
4240,-14.753071,1.728614,-1.685518,-58.380127,-12.145996,-6.866455,29.892578
4280,-8.236053,5.037400,0.387861,65.795898,-63.873291,31.066895,29.888672
4320,-6.071695,5.243302,2.777274,144.622803,-212.249756,61.340332,29.888672
4360,-10.639832,-0.656011,3.552995,-11.596680,-97.595215,56.793213,29.898438
4400,-11.070788,-3.160346,1.814805,9.124756,-78.338623,45.928955,29.884766
4440,-9.461885,0.593762,0.019154,-5.126953,-77.789307,33.081055,29.886719
4480,-8.906430,2.006341,-0.301669,-14.404297,-42.175293,46.905518,29.890625
4520,-9.744401,-1.216254,0.292093,-50.781250,-35.583496,19.592285,29.884766
4560,-10.208876,-1.671153,-0.325611,11.474609,-51.605225,-15.747070,29.882812
4600,-9.567230,-0.028730,0.474052,-11.260986,-91.064453,-19.592285,29.904297
4640,-8.801085,1.086968,0.905008,24.932861,-96.282959,-11.352539,29.876953
4680,-9.509769,0.852336,0.378284,70.983887,-28.839111,5.035400,29.914062
4720,-10.726024,-0.205901,1.316811,81.787109,0.549316,8.422852,29.896484
4760,-12.406754,-0.632069,0.679953,12.420654,21.789551,-1.007080,29.888672
4800,-13.848063,-0.387861,-0.450110,3.906250,80.841064,-20.050049,29.916016
4840,-12.761095,0.258574,-1.393425,79.498291,140.899658,-33.111572,29.908203
4880,-12.014104,1.795651,0.378284,31.372070,174.987793,-42.114258,29.906250
4920,-12.837709,3.150769,2.437297,84.350586,113.372803,-51.330566,29.894531
4960,-13.570335,1.455675,0.770933,68.115234,131.408691,-62.988281,29.894531
5000,-11.046846,-0.359130,0.967257,-134.277344,154.479980,-66.925049,29.912109
5040,-7.709330,0.378284,0.799663,-110.198975,96.984863,-82.672119,29.978516
5080,-6.042965,0.287304,0.129287,-124.298096,61.065674,-71.899414,29.980469
5120,-6.311116,-0.316035,0.100556,-111.846924,28.533936,-39.276123,29.986328
5160,-5.808333,1.805228,0.383072,-87.127686,20.233154,-18.249512,29.984375
5200,-4.754885,3.629610,-2.097321,2.868652,-48.217773,2.258301,29.986328
5240,-6.023811,2.590526,-5.233725,8.880615,-88.623047,19.561768,29.992188
5280,-12.861651,-3.069367,-11.066000,-10.833740,32.287598,-7.293701,29.996094
5320,-13.881581,-6.105214,-9.275137,-140.167236,77.117920,-51.452637,30.005859
5360,-6.708553,-3.878607,-4.649539,17.150879,-121.398926,-38.299561,30.009766
5400,-10.491392,-0.981623,1.297657,18.798828,-110.809326,94.085693,30.003906
5440,-14.729129,6.066907,-2.020706,4.180908,4.882812,-11.840820,30.009766
5480,-4.027047,8.662222,0.823605,63.079834,-113.861084,56.732178,30.017578
5520,-7.642292,3.337517,4.922479,91.369629,-186.584473,34.820557,30.015625
5560,-12.028469,-3.586514,3.189077,-28.228760,-62.988281,48.248291,30.007812
5600,-10.711658,-2.485181,0.742203,-25.299072,-71.289062,34.790039,30.001953
5640,-9.035717,1.996764,-0.229843,-29.083252,-79.071045,31.524658,30.042969
5680,-8.676587,1.063026,0.282516,-53.680420,-32.714844,29.693604,30.011719
5720,-9.586384,-1.446098,0.809240,6.347656,-89.874268,-12.817383,30.013672
5760,-9.442732,-0.062249,0.407014,-29.266357,-67.810059,0.213623,30.023438
5800,-9.203311,1.144428,0.368707,16.601562,-70.861816,1.586914,30.023438
5840,-9.538500,1.058237,0.153229,48.767090,-33.294678,8.270264,30.027344
5880,-10.649409,-0.220267,1.417367,82.580566,-13.763428,4.516602,30.035156
5920,-12.076353,-0.785298,1.201889,57.220459,1.312256,-2.258301,30.009766
5960,-13.488933,-0.105345,-0.560243,-18.707275,65.673828,-15.777588,30.042969
6000,-12.885593,0.095768,-1.613692,83.007812,139.160156,-32.073975,30.041016
6040,-11.985373,1.039083,0.292093,25.482178,196.990967,-46.997070,30.029297
6080,-13.048399,3.136404,2.437297,74.340820,103.851318,-70.770264,30.029297
6120,-13.848063,2.724602,0.928950,165.893555,101.959229,-78.338623,30.025391
6160,-11.592725,0.095768,1.230620,-109.863281,156.616211,-68.328857,30.039062
6200,-8.111555,0.158017,0.814029,-132.354736,107.208252,-77.178955,30.039062
6240,-5.750873,0.885855,0.383072,-88.378906,60.333252,-74.615479,30.044922
6280,-5.971139,-0.215478,0.095768,-97.595215,15.777588,-42.236328,30.048828
6320,-5.985504,1.479617,0.646434,-103.393555,6.713867,-15.075684,30.039062
6360,-5.391742,3.208230,-1.431733,-33.996582,-38.421631,2.166748,30.029297
6400,-6.531382,2.533065,-4.625597,5.249023,-70.922852,21.820068,30.039062
6440,-12.401965,-2.145205,-10.194510,0.457764,34.332275,-11.962891,30.048828
6480,-14.010868,-5.975927,-9.552865,-101.104736,96.710205,-47.943115,30.070312
6520,-6.445191,-2.767697,-5.568913,-89.904785,-65.673828,-45.074463,30.048828
6560,-8.489840,-2.006341,0.287304,107.238770,-151.794434,33.355713,30.044922
6600,-16.644489,2.169147,-3.251326,-17.333984,-4.119873,-20.080566,30.048828
6640,-5.755661,8.628703,-0.957681,1.800537,-47.485352,44.097900,30.046875
6680,-5.942409,5.616797,3.548207,179.016113,-239.166260,51.239014,30.048828
6720,-12.401965,-2.839523,3.390190,-20.141602,-57.922363,46.569824,30.062500
6760,-11.257536,-3.572149,1.637634,-34.729004,-75.653076,34.545898,30.070312
6800,-9.528923,1.015141,-0.205901,-46.112061,-90.209961,39.703369,30.072266
6840,-8.580819,2.308010,-0.143652,-34.271240,-76.019287,43.060303,30.070312
6880,-8.676587,-0.205901,0.545878,-59.967041,-46.234131,31.982422,30.064453
6920,-9.734824,-1.431733,0.277727,-12.420654,-70.709229,-10.437012,30.072266
6960,-9.514558,0.143652,0.488417,12.939453,-84.442139,-14.709473,30.068359
7000,-8.614338,1.398214,0.665588,28.656006,-59.234619,3.082275,30.082031
7040,-9.725247,0.842759,0.780510,22.033691,-17.974854,19.012451,30.162109
7080,-11.056423,-1.125275,1.843535,61.981201,-15.411377,8.361816,30.175781
7120,-12.449849,-1.091756,0.426168,41.503906,-1.098633,-16.784668,30.160156
7160,-13.000515,0.483629,-1.340753,38.146973,58.563232,-8.697510,30.173828
7200,-12.315774,-0.239420,-0.967257,56.976318,117.950439,-21.728516,30.169922
7240,-11.923124,-0.339977,0.986411,-17.456055,204.772949,-44.586182,30.154297
7280,-13.575124,3.165135,1.848324,56.243896,127.441406,-62.896729,30.146484
7320,-13.546393,4.740520,0.143652,157.989502,92.132568,-63.476562,30.169922
7360,-11.152191,2.207454,0.478840,-6.927490,84.289551,-75.439453,30.171875
7400,-8.418014,-1.015141,1.383849,-110.504150,123.107910,-77.667236,30.169922
7440,-6.593631,0.004788,0.842759,-124.633789,95.123291,-75.317383,30.164062
7480,-5.779603,0.296881,-0.129287,-108.215332,35.400391,-44.464111,30.181641
7520,-5.899313,1.637634,-0.014365,-84.106445,10.162354,-22.277832,30.144531
7560,-5.276821,2.901772,-1.302446,-14.862061,-31.860352,-5.584717,30.183594
7600,-5.281609,3.016694,-3.663129,2.014160,-79.132080,25.817871,30.185547
7640,-11.635820,-1.690306,-10.285490,15.411377,23.651123,2.563477,30.160156
7680,-15.658079,-6.852205,-11.113884,-102.142334,109.741211,-44.464111,30.173828
7720,-6.028600,-1.733402,-6.138733,-93.383789,-56.121826,-44.891357,30.175781
7760,-7.077260,-1.532289,1.867477,149.444580,-205.047607,42.327881,30.169922
7800,-18.497602,1.762132,-3.136404,5.737305,-3.875732,-6.164551,30.169922
7840,-6.402095,8.111555,0.205901,-11.962891,-51.483154,43.060303,30.179688
7880,-5.765238,6.359000,3.711013,171.997070,-267.578125,32.012939,30.189453
7920,-11.808203,-1.867477,4.371812,40.924072,-71.807861,45.288086,30.164062
7960,-10.673351,-2.193089,2.059013,-9.887695,-84.930420,43.121338,30.166016
8000,-9.097966,0.900220,0.306458,-7.537842,-91.430664,37.811279,30.164062
8040,-8.590396,1.043872,0.665588,-19.714355,-39.489746,39.794922,30.193359
8080,-9.208099,-1.115698,0.914585,30.731201,-68.817139,7.415771,30.179688
8120,-9.758766,-1.029507,0.392649,16.357422,-77.697754,1.190186,30.193359
8160,-9.246407,0.368707,0.526724,-3.509521,-73.944092,16.754150,30.195312
8200,-9.686940,0.857124,0.248997,53.192139,-37.658691,9.704590,30.175781
8240,-10.831368,0.043096,1.254562,68.908691,-19.866943,9.033203,30.195312
8280,-11.688493,-1.331176,0.814029,51.452637,2.807617,-4.516602,30.185547
8320,-13.268666,-0.756568,-1.326388,69.488525,62.622070,-48.187256,30.199219
8360,-12.526464,1.403002,-2.245761,67.077637,162.261963,-44.586182,30.207031
8400,-12.119449,1.719037,0.244209,57.739258,194.366455,-67.871094,30.207031
8440,-15.365987,3.303998,2.853889,74.737549,114.624023,-97.534180,30.199219
8480,-16.486473,2.442086,0.560243,85.205078,148.376465,-88.928223,30.203125
8520,-11.707646,0.138864,-0.028730,-93.231201,164.306641,-56.427002,30.197266
8560,-7.273585,1.589750,0.972046,-80.566406,109.954834,-81.787109,30.205078
8600,-4.721366,0.689530,1.029507,-114.410400,96.557617,-66.619873,30.189453
8640,-4.855441,-0.670376,0.311246,-99.945068,41.625977,-39.093018,30.222656
8680,-4.438850,1.810017,0.804452,-89.385986,-1.129150,-1.434326,30.210938
8720,-3.821146,4.218584,-1.230620,-9.857178,-84.564209,18.127441,30.214844
8760,-7.383718,2.011129,-7.259220,55.511475,-78.247070,15.563965,30.208984
8800,-15.897499,-6.962338,-13.690045,-36.102295,37.689209,-18.310547,30.222656
8840,-12.799402,-4.529830,-8.667010,-128.295898,30.151367,-24.536133,30.226562
8880,-10.433931,-1.144428,-4.343082,95.672607,-110.321045,-19.287109,30.216797
8920,-9.945514,2.418144,0.981623,2.441406,-55.328369,3.082275,30.222656
8960,-6.722919,6.167464,2.044648,130.126953,-135.589600,72.021484,30.246094
9000,-10.390836,3.016694,2.600103,95.367432,-141.754150,69.610596,30.306641
9040,-9.184157,1.192312,2.590526,-13.427734,-106.048584,68.847656,30.310547
9080,-9.643845,-0.158017,1.029507,-65.612793,-86.608887,54.748535,30.320312
9120,-9.658210,-0.248997,-0.086191,-12.786865,-89.569092,45.959473,30.316406
9160,-9.131485,0.555455,-0.296881,-18.127441,-48.461914,46.295166,30.310547
9200,-9.495404,-1.312023,0.450110,-11.169434,-61.462402,15.716553,30.283203
9240,-9.821015,-1.086968,0.067038,9.063721,-66.284180,-4.974365,30.308594
9280,-9.308656,0.430956,0.928950,-8.636475,-104.919434,-3.631592,30.310547
9320,-8.973468,1.297657,0.483629,63.385010,-43.670654,14.739990,30.328125
9360,-10.467450,0.627281,1.101333,31.616211,-10.284424,15.502930,30.326172
9400,-11.559206,-1.019930,1.264138,49.652100,-10.437012,-0.335693,30.318359
9440,-13.464991,-0.478840,-0.335188,12.542725,35.949707,-27.832031,30.312500
9480,-13.680469,0.354342,-1.364695,91.186523,112.396240,-41.381836,30.333984
9520,-12.196063,0.651223,-1.364695,63.781738,171.752930,-60.699463,30.324219
9560,-12.871228,2.944868,1.939303,-27.557373,162.414551,-76.904297,30.316406
9600,-14.724340,3.950433,1.369483,180.969238,119.232178,-60.577393,30.306641
9640,-13.455414,0.684742,0.067038,-36.834717,162.719727,-68.145752,30.322266
9680,-9.121908,0.536301,0.967257,-103.332520,140.472412,-70.434570,30.330078
9720,-5.659893,1.063026,1.115698,-91.522217,108.184814,-83.679199,30.349609
9760,-5.013458,-0.402226,0.172383,-102.752686,67.993164,-53.222656,30.347656
9800,-4.558560,0.593762,0.344765,-102.111816,22.521973,-18.035889,30.347656
9840,-3.811569,3.102885,-0.555455,-43.151855,-38.269043,3.936768,30.337891
9880,-4.400543,3.433285,-3.715801,6.042480,-119.018555,24.810791,30.343750
9920,-13.057976,-2.844312,-12.583924,42.175293,-5.432129,-5.462646,30.332031
9960,-15.145720,-6.181829,-10.898406,-134.094238,82.275391,-52.642822,30.333984
10000,-5.798757,-1.920150,-5.626374,-5.187988,-132.781982,-33.142090,30.349609
10040,-8.757990,1.690306,1.168370,-32.714844,-126.586914,149.108887,30.339844
10080,-17.894264,3.878607,-0.474052,158.264160,-85.937500,-23.925781,30.351562
10120,-5.310339,6.550536,2.384625,55.145264,-104.431152,63.690186,30.349609
10160,-6.349423,5.861006,4.410120,78.857422,-234.039307,62.194824,30.363281
10200,-10.907983,1.460463,3.438074,-73.852539,-56.671143,80.444336,30.328125
10240,-11.271901,-3.169923,1.101333,36.132812,-94.726562,44.128418,30.359375
10280,-9.323022,-0.790087,-0.071826,39.733887,-73.791504,-4.211426,30.343750
10320,-8.858546,0.263362,0.445322,31.005859,-65.216064,-0.091553,30.355469
10360,-9.337387,0.210690,0.282516,8.605957,-66.894531,14.801025,30.357422
10400,-9.193734,0.282516,1.130063,-64.086914,-75.500488,23.742676,30.335938
10440,-9.212888,0.737414,0.660800,40.191650,-70.648193,2.471924,30.353516
10480,-10.793061,1.426944,1.029507,53.588867,-12.542725,7.507324,30.355469
10520,-11.722012,-0.665588,1.221043,57.556152,-9.094238,16.815186,30.388672
10560,-13.206416,-1.671153,-0.598550,25.756836,33.294678,-23.895264,30.353516
10600,-13.757083,0.344765,-1.546654,84.045410,117.462158,-55.755615,30.361328
10640,-12.148179,1.364695,-0.794875,64.056396,143.554688,-71.472168,30.378906
10680,-12.770672,2.552219,2.801216,8.972168,139.434814,-86.639404,30.380859
10720,-15.073894,2.576161,2.015918,149.780273,143.829346,-79.528809,30.376953
10760,-13.431472,0.517148,0.459687,-60.607910,159.301758,-86.822510,30.363281
10800,-9.414001,0.603339,1.642422,-102.783203,130.065918,-81.909180,30.392578
10840,-5.755661,1.455675,1.977611,-127.014160,96.069336,-88.958740,30.386719
10880,-5.420473,0.220267,0.991199,-144.500732,61.157227,-61.309814,30.386719
10920,-5.142745,1.714248,1.197101,-117.401123,17.547607,-24.108887,30.384766
10960,-3.749320,4.802769,0.301669,-54.901123,-30.822754,1.495361,30.398438
11000,-4.496311,3.845088,-3.596091,20.141602,-90.026855,35.430908,30.460938
11040,-13.814544,-3.356671,-13.292608,42.663574,33.050537,-24.841309,30.460938
11080,-14.829685,-7.484274,-11.367670,-120.147705,76.416016,-54.321289,30.460938
11120,-5.430049,-5.233725,-4.228160,64.208984,-173.156738,-16.448975,30.451172
11160,-11.769896,0.909797,-0.076614,-107.543945,-30.334473,164.215088,30.478516
11200,-16.189592,5.731719,-1.426944,76.354980,-65.246582,-58.074951,30.462891
11240,-2.882619,8.154651,2.193089,88.836670,-124.603271,109.191895,30.482422
11280,-8.183381,4.228160,5.066131,114.715576,-199.920654,19.500732,30.460938
11320,-12.440272,-0.651223,2.973598,-40.252686,-80.627441,59.875488,30.470703
11360,-10.079589,-1.010353,1.316811,3.662109,-92.041016,57.495117,30.480469
11400,-8.681376,0.842759,0.248997,-0.885010,-85.693359,38.177490,30.478516
11440,-8.743625,0.296881,0.847547,4.241943,-65.185547,27.404785,30.470703
11480,-9.385271,-1.283292,0.746991,37.506104,-88.592529,-3.570557,30.482422
11520,-9.308656,-0.387861,0.837971,39.093018,-102.172852,-9.399414,30.486328
11560,-9.102755,1.532289,0.828394,44.799805,-60.577393,0.488281,30.480469
11600,-10.481815,1.709460,1.149217,125.274658,-23.071289,-2.624512,30.480469
11640,-11.080365,0.028730,2.126051,56.304932,-5.004883,16.296387,30.462891
11680,-12.646173,-0.541090,0.526724,-77.911377,61.370850,15.930176,30.478516
11720,-13.953407,-1.010353,-1.422156,62.561035,125.732422,-42.266846,30.494141
11760,-13.005303,0.234632,-0.569820,104.064941,146.911621,-77.209473,30.468750
11800,-13.819332,2.839523,3.083732,-0.671387,122.558594,-104.309082,30.486328
11840,-15.193604,3.907337,1.934515,198.913574,132.202148,-109.924316,30.507812
11880,-13.096283,0.517148,1.221043,-89.599609,181.396484,-99.365234,30.478516
11920,-8.805874,0.191536,1.699883,-110.198975,130.584717,-79.681396,30.500000
11960,-5.674258,1.388637,1.642422,-114.959717,86.944580,-89.874268,30.503906
12000,-4.979939,0.402226,0.751779,-129.760742,36.499023,-66.650391,30.500000
12040,-4.783615,1.527501,1.197101,-119.049072,11.108398,-17.211914,30.509766
12080,-3.658340,4.347870,0.373495,-78.430176,-28.442383,16.815186,30.501953
12120,-5.391742,2.863465,-3.663129,2.532959,-76.690674,31.066895,30.488281
12160,-15.054740,-4.855441,-13.455414,47.760010,22.369385,-37.292480,30.511719
12200,-14.058752,-7.359776,-10.002975,-120.849609,78.094482,-55.694580,30.513672
12240,-5.540183,-4.343082,-3.682282,73.577881,-196.350098,1.922607,30.507812
12280,-12.536040,1.608904,-0.603339,-90.057373,2.716064,141.754150,30.500000
12320,-14.302961,6.277597,-0.742203,33.905029,-35.247803,-54.656982,30.544922
12360,-3.643975,7.982268,2.293645,119.842529,-144.989014,98.541260,30.521484
12400,-8.695741,4.927267,5.109226,50.720215,-179.321289,63.079834,30.533203
12440,-11.937490,-0.354342,2.968810,4.180908,-67.535400,73.486328,30.523438
12480,-10.922348,-2.671929,0.804452,-3.875732,-88.836670,65.551758,30.531250
12520,-8.805874,0.526724,-0.062249,-50.201416,-64.971924,47.607422,30.515625
12560,-8.317456,0.593762,0.708684,-74.645996,-47.271729,34.240723,30.527344
12600,-9.428367,-0.833182,0.775721,33.691406,-78.948975,-2.014160,30.527344
12640,-9.141062,0.517148,0.670376,-8.728027,-92.803955,12.603760,30.517578
12680,-9.112331,1.527501,0.330400,-1.739502,-49.468994,15.838623,30.533203
12720,-10.764331,0.866701,0.876278,93.994141,-21.850586,-5.615234,30.552734
12760,-11.219229,-0.296881,1.244985,129.272461,-25.604248,-3.234863,30.537109
12800,-12.708423,-0.263362,0.316035,-51.147461,58.441162,-7.110596,30.539062
12840,-13.776237,-0.383072,-1.426944,81.237793,123.138428,-58.319092,30.552734
12880,-12.799402,1.168370,-0.392649,60.638428,157.806396,-80.139160,30.541016
12920,-14.006080,3.921702,2.825158,-3.021240,111.480713,-101.867676,30.513672
12960,-15.275007,3.931279,1.604115,203.765869,104.827881,-116.577148,30.603516
13000,-12.938266,0.296881,0.656011,-111.053467,176.544189,-92.102051,30.650391
13040,-8.044518,0.900220,1.312023,-101.745605,124.572754,-74.035645,30.615234
13080,-4.774038,1.800440,1.268927,-99.700928,78.948975,-83.496094,30.617188
13120,-5.358223,0.086191,0.560243,-114.654541,44.525146,-59.112549,30.636719
13160,-5.243302,1.838747,1.005565,-100.952148,14.984131,-20.568848,30.630859
13200,-3.969586,4.309563,-0.488417,-46.508789,-47.454834,13.153076,30.640625
13240,-5.760449,2.351106,-4.678270,5.981445,-68.603516,34.088135,30.634766
13280,-14.518439,-6.550536,-13.254301,15.136719,22.674561,-22.888184,30.636719
13320,-13.589489,-7.005434,-9.442732,-137.512207,55.145264,-42.907715,30.646484
13360,-8.609550,-1.934515,-3.648763,103.393555,-172.576904,2.197266,30.630859
13400,-13.445837,2.494758,-1.288081,53.649902,-28.381348,49.774170,30.625000
13440,-8.135497,7.742848,1.144428,11.260986,-34.301758,40.588379,30.630859
13480,-7.019799,6.684611,3.404555,68.267822,-216.033936,94.177246,30.634766
13520,-10.108319,1.805228,3.294421,21.484375,-118.774414,77.575684,30.630859
13560,-11.276690,-1.742979,1.829170,-31.036377,-49.957275,69.183350,30.650391
13600,-9.902418,-1.182736,-0.114922,-8.422852,-106.170654,45.745850,30.652344
13640,-8.441956,0.483629,-0.181959,-42.785645,-61.492920,33.081055,30.664062
13680,-8.810662,-0.354342,0.833182,-20.050049,-79.620361,7.537842,30.640625
13720,-9.418790,-0.593762,0.603339,55.511475,-106.079102,-3.112793,30.644531
13760,-9.141062,0.598550,0.588974,-0.701904,-69.946289,8.361816,30.652344
13800,-10.093954,1.522712,0.603339,115.783691,-37.933350,-5.737305,30.667969
13840,-11.338940,0.761356,2.149993,120.361328,-0.976562,4.516602,30.656250
13880,-12.291832,0.009577,1.048660,-116.271973,45.440674,32.379150,30.667969
13920,-13.776237,-1.561020,-1.091756,44.189453,93.933105,-33.294678,30.648438
13960,-12.928689,-0.354342,-1.479617,61.309814,136.352539,-74.615479,30.650391
14000,-12.497733,2.863465,1.039083,-0.030518,128.234863,-87.829590,30.623047
14040,-13.919888,5.343858,3.648763,55.297852,183.227539,-59.356689,30.640625
14080,-14.355634,2.116474,-0.272939,118.804932,128.784180,-86.547852,30.660156
14120,-10.639832,1.034295,0.512359,-58.105469,138.977051,-68.176270,30.650391
14160,-7.354988,1.963245,1.647211,-76.568604,104.095459,-101.776123,30.667969
14200,-5.252879,1.177947,1.331176,-95.397949,60.485840,-80.474854,30.658203
14240,-4.347870,0.847547,0.962469,-102.264404,25.054932,-33.172607,30.667969
14280,-3.232172,3.332729,0.349553,-110.504150,-4.669189,8.453369,30.673828
14320,-4.558560,2.949656,-2.906561,-43.029785,-82.427979,41.961670,30.667969
14360,-12.713211,-2.169147,-11.516110,60.699463,9.826660,-21.057129,30.660156
14400,-14.958972,-6.670246,-11.161768,-67.169189,43.304443,-61.218262,30.654297
14440,-6.947973,-4.936844,-5.650316,-33.966064,-99.670410,-28.594971,30.660156
14480,-6.033388,-0.454898,4.501099,69.152832,-220.886230,104.156494,30.677734
14520,-18.942924,6.909666,-5.904101,73.791504,-55.877686,65.368652,30.654297
14560,-7.321469,8.259995,0.359130,-70.617676,-49.682617,28.045654,30.660156
14600,-5.535394,4.343082,5.161899,-54.595947,-191.375732,58.532715,30.685547
14640,-10.879252,0.517148,4.529830,130.126953,-120.330811,39.764404,30.699219
14680,-11.176133,-1.723825,0.976834,25.543213,-37.689209,51.422119,30.673828
14720,-9.308656,-0.143652,-0.871489,-45.654297,-58.715820,20.874023,30.681641
14760,-8.580819,0.723049,0.823605,-44.494629,-45.166016,11.840820,30.679688
14800,-9.064447,-0.158017,1.335965,21.392822,-87.799072,-3.784180,30.695312
14840,-9.160215,0.373495,1.091756,-13.580322,-87.463379,4.638672,30.681641
14880,-9.184157,1.369483,0.818817,40.527344,-75.653076,-1.647949,30.669922
14920,-10.520123,2.068590,0.636858,128.845215,-35.125732,-6.347656,30.693359
14960,-10.812215,0.158017,2.073379,110.412598,1.342773,11.322021,30.761719
15000,-12.315774,-0.852336,1.125275,-90.209961,36.926270,17.517090,30.787109
15040,-13.862428,-0.828394,-0.900220,23.132324,87.707520,-39.703369,30.775391
15080,-12.579136,0.967257,-1.661576,83.129883,132.385254,-75.408936,30.775391
15120,-11.726800,3.141193,1.197101,-30.487061,135.345459,-79.162598,30.781250
15160,-13.153744,4.826711,3.677494,85.296631,169.128418,-55.419922,30.769531
15200,-14.408306,0.919373,0.857124,175.659180,74.462891,-131.195068,30.787109
15240,-11.180922,-0.694318,0.584185,-136.444092,140.747070,-76.354980,30.800781
15280,-6.325481,2.121263,1.465251,-72.326660,73.669434,-83.038330,30.787109
15320,-5.023035,1.584962,1.110910,-119.934082,53.314209,-60.729980,30.777344
15360,-5.013458,1.599327,0.890643,-101.318359,17.822266,-27.465820,30.781250
15400,-3.902549,4.089296,0.143652,-88.592529,-19.592285,0.488281,30.783203
15440,-5.013458,3.313575,-2.523489,-21.179199,-63.079834,36.865234,30.794922
15480,-13.340492,-3.869030,-10.912771,31.768799,25.329590,-23.529053,30.783203
15520,-15.255854,-8.561666,-10.912771,-74.951172,60.241699,-50.903320,30.804688
15560,-7.589619,-4.568137,-4.405331,13.031006,-125.213623,1.800537,30.779297
15600,-9.030929,1.857901,2.135628,50.292969,-160.003662,82.000732,30.787109
15640,-16.433800,5.870583,-1.843535,83.251953,-49.255371,30.517578,30.791016
15680,-6.157887,7.383718,1.685518,-24.108887,-98.632812,68.176270,30.777344
15720,-6.617573,6.833052,3.390190,-21.179199,-138.214111,75.378418,30.781250
15760,-9.825804,1.632846,3.749320,-25.939941,-102.294922,70.251465,30.794922
15800,-11.243171,-3.514688,1.268927,104.370117,-87.219238,71.990967,30.789062
15840,-9.418790,-1.752556,-0.248997,-8.087158,-44.464111,20.507812,30.800781
15880,-9.327810,-0.646434,-0.110133,-33.752441,-48.217773,6.103516,30.802734
15920,-9.509769,-0.134075,0.742203,-41.351318,-56.640625,-8.361816,30.791016
15960,-9.074024,1.163582,1.613692,-68.420410,-89.935303,-2.349854,30.810547
16000,-9.184157,2.580950,1.450886,-13.244629,-75.958252,1.495361,30.814453
16040,-10.596737,2.494758,0.972046,116.851807,3.662109,0.396729,30.802734
16080,-11.219229,0.105345,1.881842,44.067383,-18.585205,17.639160,30.822266
16120,-12.430696,-0.603339,-0.062249,-6.256104,44.097900,6.774902,30.781250
16160,-13.182474,-0.871489,-1.369483,89.813232,95.642090,-47.149658,30.814453
16200,-12.004527,0.234632,-0.746991,68.542480,126.586914,-80.139160,30.802734
16240,-12.521675,2.710236,2.087744,-43.609619,175.689697,-87.066650,30.804688
16280,-14.518439,4.410120,1.537078,174.926758,100.036621,-80.749512,30.798828
16320,-13.010092,3.351882,-0.320823,54.260254,108.489990,-103.973389,30.808594
16360,-10.103531,0.354342,0.545878,-51.788330,140.502930,-80.200195,30.791016
16400,-7.814674,1.043872,1.307234,-92.773438,93.353271,-87.280273,30.792969
16440,-5.511452,1.163582,1.144428,-99.822998,50.201416,-64.941406,30.820312
16480,-4.022259,2.537854,1.321599,-105.621338,35.797119,-30.944824,30.814453
16520,-2.863465,4.007894,0.047884,-80.596924,-15.441895,2.563477,30.818359
16560,-4.261679,2.193089,-3.380613,-33.386230,-62.072754,39.886475,30.843750
16600,-13.852851,-5.908890,-12.727576,21.667480,14.709473,-12.512207,30.837891
16640,-15.217546,-7.024588,-10.127473,-108.642578,63.110352,-44.219971,30.808594
16680,-9.011775,-0.316035,-4.764462,52.886963,-139.770508,-4.913330,30.835938
16720,-14.168885,1.163582,-1.110910,55.725098,-31.860352,-3.021240,30.828125
16760,-8.556877,6.200983,0.521936,-1.770020,-31.219482,26.733398,30.835938
16800,-5.995081,6.574478,3.280056,62.835693,-191.192627,156.860352,30.847656
16840,-11.410766,0.670376,3.122039,41.076660,-123.046875,59.631348,30.837891
16880,-11.204864,-1.503559,1.355118,25.360107,-74.401855,52.001953,30.847656
16920,-8.604761,1.216254,-0.316035,-19.348145,-115.936279,63.323975,30.914062
16960,-8.432379,1.580173,-0.158017,-41.229248,-58.837891,56.671143,30.921875
17000,-9.136273,-0.335188,1.173159,5.462646,-65.429688,37.963867,30.925781
17040,-9.969456,-1.163582,0.641646,48.278809,-80.139160,14.282227,30.919922
17080,-9.232041,0.301669,0.201113,-17.364502,-86.853027,21.942139,30.916016
17120,-8.887277,1.268927,-0.033519,-13.061523,-42.724609,16.113281,30.906250
17160,-10.160992,1.005565,1.063026,95.977783,-10.070801,-12.939453,30.939453
17200,-11.166556,-0.186748,2.542642,106.628418,-25.726318,-11.962891,30.890625
17240,-13.359646,0.464475,0.047884,-86.303711,76.049805,0.244141,30.917969
17280,-14.087482,-0.670376,-1.972822,61.859131,126.647949,-46.356201,30.921875
17320,-12.660539,0.794875,-1.043872,58.776855,162.322998,-82.794189,30.904297
17360,-13.445837,4.367024,2.284068,-16.784668,130.889893,-94.909668,30.917969
17400,-15.567100,4.434062,0.512359,230.773926,111.206055,-121.459961,30.951172
17440,-13.134590,1.043872,0.205901,-77.514648,159.576416,-104.003906,30.964844
17480,-7.824251,1.010353,1.053449,-82.580566,114.929199,-77.362061,30.925781
17520,-5.027823,1.101333,1.225831,-101.562500,86.578369,-81.420898,30.949219
17560,-4.400543,0.488417,0.890643,-100.921631,40.618896,-62.805176,30.912109
17600,-3.801992,2.197877,1.110910,-116.790771,1.434326,-15.563965,30.937500
17640,-3.169923,4.161122,-0.972046,-49.285889,-78.582764,30.822754,30.955078
17680,-7.603985,1.426944,-7.383718,31.127930,-69.915771,32.714844,30.976562
17720,-17.573441,-8.159439,-13.656527,-15.991211,60.882568,-56.549072,30.951172
17760,-10.510546,-6.359000,-8.724471,-150.146484,10.314941,-34.942627,30.945312
17800,-5.181053,-3.256114,2.360683,162.719727,-259.796143,51.239014,30.962891
17840,-17.990032,4.453215,-2.509123,46.478271,6.347656,40.130615,30.949219
17880,-9.232041,8.283937,-0.124498,-37.902832,-45.928955,16.204834,30.935547
17920,-5.114015,6.746861,4.534618,92.559814,-199.340820,107.147217,30.949219
17960,-11.540052,1.680730,3.778050,90.911865,-125.671387,68.450928,30.945312
18000,-11.200075,-1.470040,1.398214,42.846680,-69.213867,79.803467,30.955078
18040,-8.896853,0.330400,-0.292093,-57.586670,-88.348389,90.728760,30.929688
18080,-8.690952,0.277727,0.215478,-75.042725,-40.344238,46.386719,30.945312
18120,-8.925584,-0.550666,0.699107,15.228271,-78.857422,18.554688,30.951172
18160,-9.212888,-0.105345,0.306458,10.131836,-78.613281,19.653320,30.968750
18200,-8.968679,0.871489,-0.124498,-3.540039,-48.919678,21.362305,30.951172
18240,-10.079589,1.292869,0.938527,-11.627197,-18.676758,13.305664,30.925781
18280,-11.530476,0.110133,1.565808,46.203613,-15.075684,4.516602,30.958984
18320,-13.613431,-0.670376,0.220267,37.902832,39.947510,-24.261475,30.980469
18360,-14.322115,-0.823605,-1.422156,37.109375,130.676270,-66.314697,30.980469
18400,-12.818556,2.193089,-1.814805,46.264648,175.903320,-85.510254,30.962891
18440,-13.579912,5.406107,2.178724,57.250977,122.436523,-88.104248,30.962891
18480,-15.452178,4.122815,0.751779,228.607178,96.069336,-113.922119,30.990234
18520,-13.177686,0.809240,0.378284,-86.181641,162.353516,-99.273682,30.974609
18560,-8.269572,0.670376,1.350330,-70.678711,105.590820,-77.697754,30.962891
18600,-4.673482,1.786075,1.551443,-99.212646,83.801270,-75.469971,30.970703
18640,-4.496311,0.430956,1.053449,-121.917725,31.768799,-58.197021,30.966797
18680,-4.558560,1.877054,1.498770,-101.165771,-4.913330,-28.594971,30.980469
18720,-3.351882,4.936844,0.407014,-68.817139,-46.051025,19.134521,30.953125
18760,-6.938396,2.461239,-4.802769,-17.120361,-57.128906,49.865723,30.968750
18800,-17.683575,-6.258443,-14.408306,12.878418,87.005615,-59.509277,30.958984
18840,-11.477803,-5.372589,-9.710882,-106.353760,26.794434,-34.912109,30.968750
18880,-6.569689,-3.026271,-0.517148,73.883057,-216.247559,32.165527,30.988281
18920,-17.257406,2.327164,-2.590526,21.911621,12.145996,12.512207,31.060547
18960,-7.235278,8.154651,0.363919,15.625000,-65.185547,23.620605,31.050781
19000,-5.975927,7.072472,3.442862,151.794434,-214.813232,119.384766,31.052734
19040,-11.070788,2.389413,3.672705,16.754150,-103.454590,100.250244,31.042969
19080,-11.195287,-1.498770,2.264915,-2.014160,-75.714111,70.220947,31.060547
19120,-9.854534,-0.536301,-0.268151,-54.748535,-99.975586,70.037842,31.052734
19160,-8.513782,1.101333,-0.158017,-56.884766,-52.398682,51.635742,31.050781
19200,-8.662222,-0.598550,0.665588,2.685547,-71.929932,12.023926,31.058594
19240,-9.782708,-0.545878,0.258574,59.051514,-81.390381,2.319336,31.062500
19280,-8.987833,0.478840,0.368707,-12.725830,-66.314697,8.575439,31.056641
19320,-9.495404,1.163582,0.727837,92.590332,-47.027588,-3.814697,31.072266
19360,-10.927136,1.077391,1.987187,81.970215,-31.372070,-5.493164,31.060547
19400,-12.416330,0.536301,1.149217,-15.594482,29.815674,20.111084,31.064453
19440,-14.250289,-1.580173,-0.411803,-2.655029,101.135254,-31.951904,31.083984
19480,-13.144167,-0.301669,-1.857901,64.941406,149.414062,-78.216553,31.054688
19520,-12.837709,3.409343,0.483629,44.250488,153.228760,-97.106934,31.072266
19560,-14.279019,6.277597,2.159570,138.427734,91.918945,-99.548340,31.087891
19600,-14.049175,2.738967,0.656011,16.876221,131.256104,-107.757568,31.095703
19640,-10.884041,-1.513135,1.216254,-83.984375,136.535645,-92.041016,31.066406
19680,-6.813898,0.881066,1.642422,-100.891113,81.665039,-87.768555,31.074219
19720,-4.395754,1.216254,0.828394,-131.744385,40.283203,-69.183350,31.095703
19760,-5.013458,1.273715,1.029507,-109.405518,11.627197,-43.914795,31.099609
19800,-3.936068,4.323928,1.216254,-101.379395,-7.049561,-8.789062,31.076172
19840,-4.132392,4.520253,-1.522712,-5.371094,-81.298828,37.872314,31.095703
19880,-11.372458,-0.708684,-9.897630,51.940918,14.251709,-8.483887,31.076172
19920,-16.668432,-8.734048,-12.435484,-34.759521,70.373535,-54.290771,31.099609
19960,-8.710106,-6.349423,-6.665458,-49.133301,-87.310791,-17.242432,31.085938
20000,-9.289502,-1.125275,2.260126,58.410645,-139.801025,81.726074,31.103516
20040,-16.347609,5.813122,-1.886631,83.435059,-23.468018,-21.392822,31.089844
20080,-4.697424,8.690952,1.192312,71.166992,-106.994629,76.263428,31.091797
20120,-6.856994,6.818686,4.989516,104.644775,-188.049316,104.278564,31.107422
20160,-11.659762,1.642422,3.404555,22.766113,-93.231201,92.620850,31.099609
20200,-11.027693,-3.016694,1.498770,63.110352,-95.855713,77.758789,31.085938
20240,-9.624691,-0.306458,-0.804452,-100.555420,-38.940430,59.020996,31.115234
20280,-8.757990,0.181959,0.407014,-48.339844,-53.100586,25.299072,31.095703
20320,-9.045294,-0.239420,0.617704,20.172119,-62.713623,11.566162,31.091797
20360,-9.313444,0.277727,0.766145,-32.836914,-80.963135,16.265869,31.099609
20400,-8.825027,1.244985,0.387861,27.984619,-39.825439,4.333496,31.103516
20440,-10.299856,1.632846,1.244985,67.626953,-21.148682,-2.624512,31.113281
20480,-11.286267,0.258574,2.284068,55.572510,-11.169434,8.605957,31.105469
20520,-12.852075,0.454898,0.114922,-9.735107,29.418945,-10.040283,31.103516
20560,-13.670892,-0.450110,-0.972046,56.549072,115.539551,-42.266846,31.095703
20600,-12.579136,0.469264,-1.417367,31.738281,148.956299,-79.681396,31.109375
20640,-13.144167,3.979163,1.508347,11.505127,164.550781,-91.888428,31.113281
20680,-14.796166,5.109226,1.493982,196.258545,70.953369,-103.790283,31.099609
20720,-13.613431,1.704672,0.138864,13.153076,152.679443,-99.151611,31.095703
20760,-9.490616,0.296881,1.192312,-65.887451,129.058838,-72.143555,31.105469
20800,-6.100426,1.450886,1.575385,-72.448730,82.641602,-79.589844,31.093750
20840,-5.104438,0.905008,0.991199,-110.137939,49.530029,-65.368652,31.132812
20880,-4.472369,2.025495,1.082179,-111.968994,29.876709,-26.397705,31.183594
20920,-3.347094,4.050989,-0.158017,-59.997559,-20.507812,10.894775,31.205078
20960,-5.238513,2.734178,-3.768473,3.570557,-61.096191,31.311035,31.191406
21000,-13.804967,-4.304775,-11.880029,37.719727,28.472900,-24.841309,31.195312
21040,-14.906300,-7.608773,-10.093954,-90.515137,59.051514,-43.609619,31.185547
21080,-8.025364,-2.691083,-4.984728,10.986328,-116.210938,-0.122070,31.187500
21120,-10.726024,0.881066,-0.598550,21.759033,-94.909668,50.292969,31.228516
21160,-12.555194,4.501099,-0.555455,40.283203,-22.735596,12.634277,31.181641
21200,-5.085284,7.785944,1.575385,84.716797,-97.930908,114.837646,31.199219
21240,-9.279925,4.539406,4.084508,-6.469727,-196.807861,87.890625,31.173828
21280,-11.631032,-1.072602,2.408567,33.996582,-95.916748,75.653076,31.195312
21320,-10.031705,-1.455675,0.890643,-0.793457,-102.142334,65.246582,31.226562
21360,-8.829816,1.264138,-0.502782,-44.067383,-79.681396,57.952881,31.214844
21400,-8.451532,0.746991,0.143652,-31.768799,-55.023193,25.970459,31.207031
21440,-9.461885,-0.861913,0.521936,53.985596,-80.444336,-2.960205,31.191406
21480,-9.327810,0.569820,0.665588,-14.099121,-71.838379,23.925781,31.208984
21520,-8.805874,1.115698,0.526724,10.314941,-56.915283,16.265869,31.205078
21560,-10.290278,0.837971,1.618480,98.266602,-40.771484,-16.754150,31.236328
21600,-11.420342,0.713472,1.719037,90.850830,-29.876709,-13.153076,31.224609
21640,-12.425907,0.660800,0.000000,44.342041,55.267334,-8.392334,31.197266
21680,-13.455414,-1.053449,-1.182736,48.980713,112.182617,-43.151855,31.220703
21720,-12.871228,0.067038,-1.292869,20.965576,157.073975,-84.899902,31.224609
21760,-13.737929,3.457227,1.810017,-7.720947,172.241211,-116.363525,31.212891
21800,-15.255854,6.277597,1.704672,186.309814,92.590332,-97.137451,31.226562
21840,-13.508086,1.857901,-0.052672,11.596680,129.791260,-101.989746,31.224609
21880,-9.447520,-0.459687,0.866701,-79.498291,118.164062,-89.202881,31.210938
21920,-5.530606,1.321599,1.426944,-101.501465,76.721191,-80.596924,31.226562
21960,-4.759673,0.746991,1.154005,-128.387451,55.084229,-60.699463,31.248047
22000,-4.654328,1.987187,1.393425,-110.137939,25.695801,-26.641846,31.236328
22040,-3.394978,4.141969,-0.033519,-75.134277,-27.496338,10.101318,31.253906
22080,-5.540183,2.207454,-4.529830,4.608154,-74.279785,36.102295,31.236328
22120,-14.623784,-6.210559,-13.057976,0.457764,23.437500,-16.662598,31.253906
22160,-14.920665,-6.698977,-9.730036,-133.087158,52.093506,-32.043457,31.255859
22200,-11.971008,-1.671153,-4.726154,78.735352,-104.858398,-3.448486,31.226562
22240,-11.013328,3.289633,0.550666,11.566162,-40.740967,-5.279541,31.224609
22280,-4.261679,9.222465,1.374272,53.222656,-118.286133,105.834961,31.263672
22320,-11.228806,4.371812,2.987964,119.598389,-139.099121,89.630127,31.222656
22360,-10.496181,-0.033519,2.978387,-36.254883,-97.106934,75.378418,31.240234
22400,-9.720459,-1.891419,1.115698,9.918213,-102.050781,43.243408,31.234375
22440,-9.021352,0.976834,-0.469264,-10.559082,-111.846924,69.061279,31.244141
22480,-8.959103,1.733402,-0.814029,-84.350586,-59.478760,76.416016,31.253906
22520,-8.911219,-0.488417,0.560243,-34.271240,-57.952881,26.794434,31.250000
22560,-9.782708,-0.545878,0.272939,53.100586,-73.394775,1.922607,31.238281
22600,-9.141062,0.526724,0.387861,-22.308350,-78.765869,8.850098,31.250000
22640,-8.987833,0.497994,0.593762,79.132080,-42.907715,-0.488281,31.273438
22680,-10.414778,0.612916,1.642422,115.661621,-27.130127,-9.094238,31.261719
22720,-11.554418,0.866701,1.513135,1.647949,-6.988525,8.728027,31.273438
22760,-13.268666,-0.177171,-0.632069,-7.965088,82.641602,-0.396729,31.259766
22800,-13.081918,-0.804452,-2.025495,71.044922,126.129150,-61.370850,31.248047
22840,-12.220005,1.498770,-0.588974,19.683838,171.142578,-82.977295,31.253906
22880,-14.116213,4.587290,2.360683,41.900635,128.784180,-97.381592,31.310547
22920,-15.461755,5.066131,-0.282516,151.672363,103.149414,-106.719971,31.341797
22960,-12.033257,1.383849,0.234632,-7.781982,120.483398,-101.165771,31.328125
23000,-7.967903,0.402226,1.206678,-87.646484,101.684570,-85.815430,31.337891
23040,-4.951209,1.335965,1.163582,-99.456787,59.265137,-87.432861,31.326172
23080,-4.458004,0.603339,1.125275,-119.140625,15.899658,-53.192139,31.314453
23120,-4.319140,2.240973,1.154005,-120.452881,4.119873,-14.617920,31.333984
23160,-4.309563,4.458004,-0.756568,-76.629639,-45.501709,27.679443,31.337891
23200,-8.959103,0.852336,-6.962338,7.873535,-23.498535,26.123047,31.328125
23240,-15.514427,-7.053318,-12.842498,-38.726807,55.175781,-33.294678,31.341797
23280,-10.290278,-4.879383,-7.814674,-117.462158,19.622803,-29.541016,31.324219
23320,-5.784391,-1.216254,0.378284,115.234375,-218.444824,41.320801,31.339844
23360,-18.162415,3.596091,-4.740520,37.963867,-10.070801,31.280518,31.337891
23400,-10.242394,5.803545,-0.138864,-13.519287,-37.048340,-27.496338,31.347656
23440,-4.218584,6.823475,3.165135,155.090332,-216.491699,122.009277,31.337891
23480,-10.366894,3.452439,3.988740,-18.585205,-115.661621,79.193115,31.359375
23520,-11.654974,-1.192312,2.772485,-31.494141,-60.821533,69.580078,31.343750
23560,-9.528923,-0.316035,0.541090,5.432129,-110.931396,55.480957,31.332031
23600,-8.279149,2.063802,0.234632,-34.545898,-49.591064,49.713135,31.361328
23640,-8.978256,-0.220267,0.732626,19.561768,-55.877686,22.369385,31.361328
23680,-9.634268,-1.000776,0.464475,-4.913330,-77.026367,10.314941,31.355469
23720,-9.117120,0.450110,0.641646,-0.762939,-84.350586,4.272461,31.347656
23760,-10.055647,1.307234,1.058237,97.198486,-48.767090,-8.605957,31.351562
23800,-10.903194,1.063026,1.532289,89.691162,-9.460449,-5.096436,31.349609
23840,-11.846510,-0.181959,0.660800,18.249512,7.659912,5.310059,31.357422
23880,-13.737929,-0.852336,-0.756568,40.222168,95.886230,-40.954590,31.365234
23920,-12.880805,-0.426168,-1.335965,68.878174,142.578125,-80.261230,31.367188
23960,-12.761095,2.580950,0.703895,21.820068,166.534424,-102.844238,31.365234
24000,-15.318103,5.975927,2.446874,118.988037,102.050781,-101.165771,31.367188
24040,-15.049952,3.854665,-0.081403,78.979492,133.270264,-97.839355,31.359375
24080,-10.773908,0.641646,0.723049,-62.072754,132.507324,-115.386963,31.363281
24120,-6.421249,1.034295,1.412579,-75.134277,91.430664,-85.815430,31.351562
24160,-4.673482,1.177947,1.292869,-105.834961,60.516357,-76.049805,31.365234
24200,-4.156334,1.465251,1.177947,-99.426270,30.975342,-41.839600,31.345703
24240,-3.433285,3.342306,0.593762,-104.644775,-0.244141,13.153076,31.388672
24280,-4.520253,3.217807,-2.245761,-40.527344,-62.988281,51.239014,31.376953
24320,-12.928689,-3.275268,-11.889606,59.295654,4.028320,-37.628174,31.365234
24360,-15.495274,-7.900866,-11.654974,-89.691162,67.993164,-56.152344,31.388672
24400,-7.498640,-3.955221,-5.679047,42.846680,-166.900635,-8.422852,31.386719
24440,-12.770672,0.646434,-0.038307,-53.588867,-10.467529,80.718994,31.367188
24480,-11.487380,6.971915,0.033519,22.216797,-35.827637,-3.631592,31.390625
24520,-5.434838,6.722919,3.112462,148.803711,-161.621094,123.107910,31.353516
24560,-10.065224,3.562572,3.835511,8.666992,-159.545898,110.321045,31.400391
24600,-11.314998,0.033519,2.504335,-54.107666,-37.536621,78.521729,31.396484
24640,-10.285490,-1.489193,0.344765,-34.729004,-96.221924,64.636230,31.398438
24680,-8.427590,1.221043,-0.440533,-52.307129,-70.587158,46.234131,31.394531
24720,-8.169016,0.991199,0.646434,-64.208984,-47.485352,33.905029,31.369141
24760,-9.509769,-0.857124,0.780510,78.735352,-93.566895,-8.666992,31.384766
24800,-9.327810,-0.378284,0.636858,22.796631,-109.863281,-6.347656,31.375000
24840,-9.193734,1.532289,0.052672,58.715820,-49.896240,4.089355,31.449219
24880,-10.692505,1.795651,1.312023,106.262207,-22.216797,-6.958008,31.458984
24920,-11.659762,0.277727,1.584962,16.754150,0.976562,33.721924,31.464844
24960,-13.551182,-1.450886,0.330400,-57.556152,70.861816,-5.828857,31.466797
25000,-13.469779,-1.010353,-1.407791,56.365967,122.924805,-64.270020,31.453125
25040,-12.373235,1.920150,-1.067814,65.704346,155.670166,-93.658447,31.478516
25080,-13.546393,5.157111,2.403779,74.371338,107.971191,-90.240479,31.451172
25120,-14.791378,5.032612,0.392649,118.225098,122.283936,-81.909180,31.480469
25160,-12.387600,1.149217,0.411803,-27.740479,114.837646,-102.294922,31.466797
25200,-7.929596,0.287304,1.321599,-99.090576,112.304688,-89.141846,31.457031
25240,-5.248090,1.321599,1.331176,-90.515137,62.683105,-84.533691,31.464844
25280,-5.104438,1.101333,1.201889,-108.734131,41.900635,-62.866211,31.462891
25320,-4.486734,2.547431,0.938527,-120.361328,23.712158,-19.012451,31.486328
25360,-4.007894,3.854665,-1.637634,-48.309326,-53.039551,33.905029,31.460938
25400,-7.733272,0.967257,-7.053318,-10.009766,-23.864746,34.790039,31.476562
25440,-16.261417,-7.311892,-12.540829,-25.238037,75.622559,-47.882080,31.492188
25480,-10.299856,-4.999093,-8.489840,-110.198975,8.514404,-47.149658,31.466797
25520,-5.659893,-2.624045,0.660800,138.488770,-227.233887,50.750732,31.507812
25560,-16.692375,4.778827,-3.998317,17.608643,-1.647949,42.755127,31.466797
25600,-9.753978,7.311892,0.311246,19.439697,-62.591553,21.148682,31.474609
25640,-5.291186,6.133945,4.103662,84.716797,-193.115234,126.068115,31.482422
25680,-10.462662,3.433285,4.338294,-21.118164,-148.254395,70.404053,31.460938
25720,-11.674128,-0.823605,2.092532,-13.153076,-37.445068,88.195801,31.472656
25760,-9.409213,-1.005565,-0.023942,-9.857178,-95.275879,43.273926,31.480469
25800,-8.178593,1.465251,0.076614,-48.004150,-41.229248,33.233643,31.500000
25840,-8.844181,0.368707,0.962469,28.594971,-84.381104,14.495850,31.472656
25880,-9.744401,-0.909797,0.900220,40.100098,-93.322754,13.549805,31.482422
25920,-9.275137,0.023942,-0.047884,1.678467,-82.153320,1.586914,31.496094
25960,-9.902418,1.695095,0.268151,101.501465,-48.736572,-17.639160,31.488281
26000,-10.333375,2.427721,1.891419,78.277588,-14.526367,5.218506,31.476562
26040,-11.683704,0.809240,1.996764,-27.587891,29.113770,27.130127,31.455078
26080,-14.063540,-1.177947,0.641646,-10.314941,97.534180,-32.012939,31.503906
26120,-13.603854,-0.354342,-1.407791,41.137695,147.583008,-73.364258,31.496094
26160,-13.019669,2.987964,0.617704,49.133301,129.241943,-108.673096,31.496094
26200,-13.910312,6.076484,2.097321,136.962891,108.703613,-92.620850,31.507812
26240,-13.637373,3.672705,0.876278,25.207520,127.838135,-101.898193,31.494141
26280,-10.893618,-0.656011,1.201889,-52.520752,131.439209,-106.140137,31.494141
26320,-6.861782,0.881066,1.498770,-96.313477,97.869873,-86.395264,31.505859
26360,-5.185841,1.249773,1.221043,-116.760254,70.159912,-79.223633,31.521484
26400,-5.023035,1.833959,1.086968,-102.691650,54.290771,-48.370361,31.501953
26440,-3.936068,3.476381,0.067038,-86.212158,6.805420,1.983643,31.498047
26480,-3.907337,3.332729,-2.523489,-25.360107,-67.260742,40.405273,31.511719
26520,-9.576807,-2.413355,-9.203311,6.469727,-19.409180,14.160156,31.509766
26560,-17.156849,-8.916007,-11.439496,-78.613281,71.990967,-40.039062,31.515625
26600,-11.405977,-2.959233,-6.708553,-25.756836,-62.744141,-20.874023,31.517578
26640,-11.990162,1.110910,-1.575385,74.005127,-61.309814,9.490967,31.503906
26680,-7.958326,6.483498,1.359907,2.227783,-55.389404,49.987793,31.492188
26720,-7.824251,6.047753,3.557784,156.127930,-190.460205,129.058838,31.517578
26760,-10.817003,2.734178,2.748544,70.617676,-121.429443,64.239502,31.527344
26800,-9.078813,0.512359,1.972822,25.512695,-96.557617,83.496094,31.515625
26840,-9.619903,0.062249,0.555455,-51.940918,-70.190430,61.950684,31.570312
26880,-9.102755,0.919373,-0.416591,-58.288574,-69.274902,57.800293,31.574219
26920,-8.810662,0.009577,0.770933,-12.969971,-67.230225,41.656494,31.574219
26960,-9.495404,-1.024718,0.871489,29.785156,-56.640625,14.648438,31.574219
27000,-9.174581,0.325611,0.761356,-11.169434,-77.178955,26.306152,31.582031
27040,-8.595184,2.293645,0.560243,16.815186,-61.981201,40.649414,31.593750
27080,-10.429143,2.217031,1.115698,79.040527,-21.331787,26.092529,31.599609
27120,-11.779472,-0.148441,1.752556,38.452148,-18.585205,19.378662,31.583984
27160,-13.287820,-1.278504,1.139640,-37.628174,38.238525,-2.319336,31.597656
27200,-13.872005,-1.968034,-0.512359,-1.739502,100.494385,-73.272705,31.601562
27240,-12.598289,1.067814,-1.618480,26.824951,162.231445,-103.942871,31.603516
27280,-13.062764,4.946421,1.235408,92.681885,94.116211,-122.772217,31.589844
27320,-15.006856,5.023035,0.526724,69.152832,117.797852,-90.698242,31.601562
27360,-13.196839,2.327164,0.067038,-7.934570,147.247314,-47.637939,31.603516
27400,-9.102755,1.010353,1.249773,-24.841309,124.603271,-73.944092,31.599609
27440,-5.880159,2.777274,1.881842,-45.593262,74.768066,-89.904785,31.615234
27480,-4.314352,2.116474,1.379060,-92.407227,39.764404,-85.174561,31.597656
27520,-3.778050,1.503559,1.163582,-86.364746,15.441895,-39.672852,31.603516
27560,-3.179500,3.701436,0.526724,-122.009277,-13.977051,40.466309,31.605469
27600,-7.077260,0.780510,-4.994305,-51.910400,-49.041748,69.488525,31.599609
27640,-16.941372,-6.579266,-14.049175,-7.537842,45.135498,-47.576904,31.609375
27680,-11.334151,-4.232949,-8.623915,-104.675293,32.928467,-37.841797,31.601562
27720,-6.483498,0.440533,-0.258574,124.267578,-206.726074,24.169922,31.607422
27760,-17.199945,4.922479,-1.915361,116.546631,-34.912109,14.007568,31.609375
27800,-8.216900,6.665458,1.699883,69.854736,-57.678223,26.153564,31.593750
27840,-6.722919,4.721366,4.146757,89.660645,-164.428711,111.511230,31.613281
27880,-11.305421,1.206678,3.011906,21.636963,-108.337402,89.355469,31.621094
27920,-11.252748,-0.938527,1.508347,-96.801758,-42.449951,74.127197,31.623047
27960,-9.021352,-0.138864,-0.090980,-33.020020,-110.656738,32.409668,31.638672
28000,-7.790732,1.106121,0.268151,-22.583008,-82.763672,29.541016,31.628906
28040,-8.394072,0.454898,0.967257,-14.190674,-77.423096,30.487061,31.636719
28080,-9.011775,0.210690,0.430956,18.737793,-71.166992,22.460938,31.628906
28120,-9.088389,1.268927,0.555455,-3.295898,-52.947998,30.792236,31.619141
28160,-10.591949,1.905785,0.885855,40.557861,-5.096436,32.623291,31.634766
28200,-11.626244,-0.497994,1.728614,53.497314,-7.598877,34.210205,31.619141
28240,-12.196063,-1.781286,0.043096,-41.656494,17.730713,-3.875732,31.632812
28280,-12.876017,-0.292093,-1.450886,38.635254,108.581543,-45.318604,31.626953
28320,-12.258312,0.507571,-0.751779,83.007812,132.507324,-95.153809,31.619141
28360,-13.737929,2.844312,2.327164,16.357422,151.885986,-117.767334,31.632812
28400,-16.309301,5.516241,1.292869,91.583252,94.268799,-96.557617,31.619141
28440,-13.431472,3.265691,-0.253785,61.401367,111.633301,-87.585449,31.623047
28480,-9.255983,1.024718,0.732626,-36.987305,118.591309,-93.078613,31.636719
28520,-6.411672,2.006341,1.551443,-89.080811,77.392578,-82.427979,31.652344
28560,-4.716578,1.833959,1.513135,-103.576660,46.142578,-63.446045,31.638672
28600,-4.429273,1.465251,1.015141,-89.172363,-5.828857,-40.344238,31.638672
28640,-3.548207,4.290410,0.679953,-101.348877,-17.700195,13.793945,31.638672
28680,-6.095637,2.877831,-2.193089,-59.661865,-56.671143,52.703857,31.638672
28720,-15.667656,-5.928043,-13.091495,47.271729,43.731689,-52.093506,31.656250
28760,-13.508086,-7.694964,-10.031705,-108.245850,54.718018,-41.656494,31.650391
28800,-6.971915,-3.107674,-1.556231,70.343018,-184.936523,24.810791,31.726562
28840,-16.141708,3.069367,-1.920150,6.713867,-2.929688,19.805908,31.703125
28880,-9.911995,6.995857,0.641646,21.362305,-32.531738,-29.296875,31.708984
28920,-4.697424,8.370130,2.834735,140.075684,-183.471680,124.481201,31.724609
28960,-10.065224,4.319140,3.873818,-12.268066,-115.936279,106.262207,31.738281
29000,-11.152191,-0.622492,2.561796,-48.187256,-49.285889,79.986572,31.718750
29040,-10.113108,-1.403002,0.430956,-14.739990,-93.505859,52.276611,31.710938
29080,-8.767567,0.320823,-0.229843,-14.648438,-70.129395,38.818359,31.701172
29120,-8.523358,0.205901,0.584185,-22.644043,-63.018799,34.484863,31.695312
29160,-9.562442,-0.713472,0.450110,20.233154,-62.225342,14.373779,31.720703
29200,-8.863335,0.373495,0.354342,-30.883789,-67.443848,22.613525,31.708984
29240,-8.916007,1.541866,0.718261,1.739502,-26.641846,15.045166,31.732422
29280,-10.352529,1.106121,2.154782,59.631348,-36.071777,6.652832,31.724609
29320,-11.975797,0.378284,1.369483,89.324951,-9.613037,11.138916,31.718750
29360,-13.632585,-0.943315,-0.761356,36.346436,85.479736,-24.963379,31.722656
29400,-12.995727,-0.435745,-2.331953,67.657471,146.575928,-80.780029,31.708984
29440,-12.952631,2.059013,0.363919,10.833740,181.396484,-111.297607,31.738281
29480,-16.136919,5.363012,2.140416,133.056641,113.525391,-115.936279,31.720703
29520,-15.777789,5.664681,0.363919,136.657715,61.035156,-126.037598,31.730469
29560,-11.013328,0.517148,0.861913,-87.768555,141.540527,-105.804443,31.753906
29600,-6.143522,1.211466,1.125275,-84.472656,73.150635,-91.918945,31.757812
29640,-4.539406,1.039083,1.321599,-137.390137,73.455811,-69.946289,31.746094
29680,-4.529830,1.292869,1.120486,-96.099854,16.876221,-44.647217,31.724609
29720,-3.476381,3.897760,0.598550,-92.620850,-19.409180,-0.885010,31.753906
29760,-4.261679,4.108450,-1.570596,-1.922607,-81.756592,48.767090,31.744141
29800,-12.033257,-2.140416,-10.228029,51.910400,13.549805,-16.204834,31.734375
29840,-18.301277,-10.984597,-12.392388,-103.607178,116.668701,-52.215576,31.759766
29880,-8.341399,-4.434062,-5.659893,2.441406,-108.398438,10.406494,31.744141
29920,-11.056423,2.341529,-0.924162,42.266846,-53.375244,27.221680,31.736328
29960,-10.098742,5.492299,1.412579,14.892578,-34.729004,25.939941,31.751953
30000,-7.153875,6.335058,2.427721,150.970459,-197.540283,113.433838,31.757812
30040,-10.606314,3.327940,3.007117,63.171387,-107.269287,89.080811,31.750000
30080,-9.696517,1.417367,2.255338,19.378662,-106.201172,74.737549,31.750000
30120,-9.615114,-0.110133,1.493982,12.298584,-102.111816,87.310791,31.773438
30160,-9.236830,0.588974,-0.110133,-59.265137,-56.304932,81.481934,31.759766
30200,-8.872911,-0.028730,0.086191,-59.661865,-36.193848,47.027588,31.763672
30240,-9.739613,-1.551443,0.656011,30.944824,-70.098877,7.110596,31.748047
30280,-9.457097,-0.043096,0.440533,-16.815186,-89.019775,7.598877,31.738281
30320,-8.801085,1.115698,0.368707,12.207031,-47.027588,7.019043,31.765625
30360,-10.342952,1.197101,1.757344,132.995605,-37.506104,-24.414062,31.759766
30400,-11.525687,2.030283,1.905785,36.041260,-24.475098,22.888184,31.757812
30440,-13.594277,0.153229,0.569820,-33.660889,67.962646,10.101318,31.761719
30480,-14.154520,-2.006341,-0.574608,76.110840,110.351562,-63.812256,31.759766
30520,-12.507310,1.063026,-1.474828,42.907715,152.069092,-94.329834,31.742188
30560,-12.564771,5.382165,1.455675,50.476074,157.684326,-92.010498,31.773438
30600,-13.867216,5.482722,0.794875,183.105469,75.775146,-100.677490,31.750000
30640,-12.914324,0.986411,0.292093,15.228271,129.730225,-111.663818,31.751953
30680,-9.370906,-0.158017,1.144428,-76.385498,117.675781,-84.075928,31.769531
30720,-5.664681,1.422156,1.302446,-89.294434,74.127197,-86.853027,31.765625
30760,-4.807557,0.928950,0.847547,-109.222412,34.240723,-71.228027,31.769531
30800,-4.630386,1.771709,1.029507,-106.079102,4.333496,-24.810791,31.830078
30840,-3.706224,3.610456,-0.177171,-65.338135,-37.811279,9.826660,31.833984
30880,-5.607220,2.279280,-4.003105,-14.404297,-71.838379,59.112549,31.826172
30920,-16.883911,-6.842628,-12.876017,-11.810303,78.826904,-46.508789,31.822266
30960,-13.536817,-6.588843,-9.332599,-121.063232,80.627441,-49.957275,31.818359
31000,-4.146757,-2.858677,-0.986411,137.542725,-262.512207,59.265137,31.847656
31040,-14.221559,5.774815,-3.452439,-125.457764,5.615234,81.726074,31.812500
31080,-13.144167,5.674258,1.403002,24.627686,4.791260,-29.022217,31.841797
31120,-4.869806,6.785168,2.873042,99.273682,-142.883301,120.880127,31.845703
31160,-9.835381,4.932055,3.974375,-8.880615,-169.860840,72.021484,31.849609
31200,-11.204864,-0.756568,2.279280,39.886475,-75.561523,72.113037,31.839844
31240,-9.816227,-0.943315,0.023942,-23.742676,-83.709717,61.828613,31.855469
31280,-8.647857,1.407791,-0.363919,-43.975830,-53.253174,54.748535,31.839844
31320,-8.920795,-0.292093,0.555455,-9.826660,-55.786133,28.289795,31.849609
31360,-9.648633,-1.096544,0.565032,14.862061,-83.068848,7.598877,31.857422
31400,-8.896853,0.148441,0.569820,-48.278809,-75.958252,5.615234,31.855469
31440,-9.318233,1.685518,0.660800,30.822754,-52.337646,-12.145996,31.847656
31480,-10.491392,2.762909,1.350330,82.031250,-27.923584,-1.953125,31.859375
31520,-11.741165,1.019930,1.412579,62.408447,4.272461,19.042969,31.835938
31560,-14.058752,-1.527501,0.723049,20.507812,81.939697,-28.961182,31.871094
31600,-13.733141,-0.823605,-1.618480,8.056641,146.606445,-68.572998,31.853516
31640,-12.808979,2.968810,-0.191536,13.305664,178.070068,-82.672119,31.853516
31680,-13.259089,5.846641,2.360683,146.514893,108.154297,-89.996338,31.857422
31720,-14.279019,3.280056,0.866701,128.295898,95.550537,-130.432129,31.859375
31760,-12.181698,-0.751779,0.823605,-64.453125,143.463135,-90.026855,31.847656
31800,-7.101202,0.962469,1.489193,-83.038330,95.886230,-75.195312,31.861328
31840,-4.821922,1.656788,1.211466,-103.393555,60.760498,-70.373535,31.871094
31880,-4.702212,1.810017,0.943315,-85.296631,16.113281,-52.856445,31.859375
31920,-3.921702,3.567361,0.703895,-84.991455,-9.307861,-5.187988,31.865234
31960,-4.343082,4.027047,-1.316811,-37.200928,-54.962158,46.478271,31.855469
32000,-10.481815,-1.695095,-8.379706,19.378662,-0.488281,3.814697,31.871094
32040,-16.304514,-9.662998,-12.038046,-47.576904,59.448242,-50.598145,31.861328
32080,-8.944737,-5.109226,-6.737284,-48.767090,-74.157715,-6.530762,31.869141
32120,-11.056423,-0.392649,0.708684,74.493408,-95.245361,47.576904,31.855469
32160,-13.728353,5.731719,0.153229,38.696289,-7.843018,-19.714355,31.849609
32200,-4.707001,8.212111,1.982399,81.146240,-91.827393,118.988037,31.871094
32240,-9.437943,5.755661,4.553771,9.216309,-204.681396,114.746094,31.888672
32280,-11.492168,0.335188,2.691083,21.789551,-67.810059,84.472656,31.878906
32320,-10.304645,-1.910573,0.885855,41.412354,-97.534180,76.690674,31.875000
32360,-9.040505,0.938527,-0.976834,-134.613037,-37.048340,83.648682,31.875000
32400,-8.341399,0.119710,0.134075,-76.629639,-30.883789,35.064697,31.875000
32440,-9.131485,-0.665588,0.699107,22.155762,-82.611084,-4.180908,31.875000
32480,-9.361329,0.684742,0.387861,-19.866943,-81.481934,17.059326,31.884766
32520,-8.930372,1.134852,0.090980,36.285400,-45.440674,2.746582,31.896484
32560,-10.395624,1.709460,1.110910,85.144043,-31.616211,-10.955811,31.888672
32600,-11.372458,1.302446,1.867477,11.322021,-21.728516,24.353027,31.878906
32640,-13.862428,-0.478840,0.900220,-3.601074,64.727783,-9.399414,31.880859
32680,-14.087482,-0.502782,-1.570596,19.989014,127.227783,-63.232422,31.896484
32720,-12.650962,3.112462,-1.369483,62.774658,169.799805,-91.247559,31.892578
32760,-12.746730,5.932832,2.207454,81.848145,100.860596,-96.191406,31.964844
32800,-14.867992,4.003105,0.569820,168.334961,117.919922,-107.147217,31.962891
32840,-12.631808,0.909797,0.253785,-28.198242,130.615234,-94.787598,31.960938
32880,-8.355764,0.866701,1.312023,-92.193604,121.154785,-77.484131,31.960938
32920,-5.123591,2.020706,1.240196,-86.029053,71.655273,-81.939697,31.947266
32960,-4.539406,1.091756,0.785298,-99.548340,26.702881,-61.523438,31.951172
33000,-4.046201,2.188300,0.818817,-95.581055,5.157471,-20.080566,31.947266
33040,-3.351882,4.074931,-0.411803,-55.419922,-50.048828,26.885986,31.951172
33080,-6.330269,2.097321,-4.548983,-4.730225,-70.617676,49.438477,31.986328
33120,-16.180016,-6.497863,-13.038822,36.926270,49.652100,-58.471680,31.958984
33160,-13.340492,-6.804321,-9.562442,-124.694824,46.447754,-44.647217,31.964844
33200,-8.202535,-3.007117,-2.643199,87.707520,-204.711914,25.360107,31.970703
33240,-17.070658,1.441309,-0.756568,12.817383,43.609619,-9.613037,31.958984
33280,-5.846641,8.681376,0.354342,20.202637,-64.971924,51.635742,31.962891
33320,-5.607220,7.627927,4.156334,139.770508,-217.834473,152.313232,31.972656
33360,-12.674904,2.231396,3.246537,-14.709473,-85.571289,74.554443,31.972656
33400,-10.927136,-1.134852,1.719037,34.454346,-91.583252,67.993164,31.978516
33440,-9.208099,-0.129287,0.272939,-32.684326,-80.780029,80.261230,31.972656
33480,-8.753201,1.326388,-0.220267,-96.435547,-46.081543,72.631836,31.978516
33520,-8.580819,-0.191536,0.723049,-50.140381,-60.241699,41.503906,31.976562
33560,-9.375694,-0.603339,0.229843,9.185791,-67.352295,13.977051,31.982422
33600,-9.145850,0.320823,0.090980,-39.306641,-72.998047,8.819580,31.986328
33640,-9.040505,1.168370,0.646434,43.853760,-47.698975,-3.448486,31.988281
33680,-10.251971,1.704672,1.604115,55.999756,-26.428223,3.204346,31.990234
33720,-11.669339,0.430956,1.786075,66.253662,-16.845703,5.493164,31.970703
33760,-14.082694,-0.598550,-0.110133,-2.899170,92.559814,-31.127930,31.962891
33800,-14.049175,-0.272939,-1.939303,36.834717,147.552490,-74.890137,31.982422
33840,-13.091495,3.303998,-0.239420,0.305176,182.373047,-101.287842,31.986328
33880,-14.432248,6.521805,2.183512,152.587891,103.729248,-100.036621,31.992188
33920,-14.987702,4.017470,-0.196325,148.040771,111.267090,-119.445801,31.988281
33960,-11.468226,0.354342,0.617704,-59.936523,141.204834,-98.907471,31.990234
34000,-6.607996,1.130063,1.297657,-77.697754,92.987061,-90.393066,32.000000
34040,-4.462792,0.938527,1.312023,-105.102539,66.223145,-79.101562,31.992188
34080,-3.979163,0.727837,1.067814,-93.536377,5.218506,-42.785645,32.000000
34120,-3.394978,2.695871,0.694318,-101.593018,-14.648438,-2.319336,31.972656
34160,-4.400543,4.094085,-1.877054,-67.382812,-52.337646,52.185059,31.992188
34200,-12.612655,-2.078167,-10.955867,65.368652,-1.861572,-26.580811,32.005859
34240,-14.686033,-8.039729,-12.100295,-88.745117,47.485352,-20.019531,31.986328
34280,-7.460332,-4.529830,-5.875371,-46.142578,-67.749023,-8.728027,32.005859
34320,-6.727707,1.101333,1.532289,70.434570,-176.086426,82.031250,32.007812
34360,-19.373880,4.912902,-2.748544,140.533447,-28.503418,6.835938,32.001953
34400,-6.224925,7.105990,0.095768,-2.105713,-68.267822,70.770264,32.007812
34440,-6.698977,5.961562,4.347870,65.277100,-221.313477,105.438232,31.986328
34480,-12.033257,0.761356,3.347094,111.511230,-109.313965,65.673828,31.982422
34520,-10.807426,-1.441309,1.393425,-0.183105,-77.575684,82.000732,32.005859
34560,-8.853758,0.751779,-0.253785,-55.603027,-85.052490,63.232422,32.001953
34600,-7.929596,1.316811,0.296881,-64.941406,-27.008057,50.048828,32.035156
34640,-9.169792,-0.876278,0.598550,30.944824,-83.709717,12.573242,32.011719
34680,-9.509769,-0.502782,0.196325,17.822266,-84.167480,8.605957,32.001953
34720,-9.481039,0.684742,0.316035,-8.728027,-41.503906,2.746582,32.037109
34760,-10.658986,1.278504,1.733402,126.678467,-19.317627,-19.409180,32.082031
34800,-11.473015,1.508347,2.446874,21.850586,-39.611816,8.331299,32.068359
34840,-13.488933,0.253785,0.047884,-38.360596,75.805664,-4.058838,32.070312
34880,-13.867216,-1.058237,-1.757344,89.996338,125.976562,-68.145752,32.068359
34920,-12.334928,0.861913,-1.000776,3.997803,180.816650,-79.040527,32.074219
34960,-13.129802,4.165911,2.092532,31.036377,133.880615,-91.308594,32.078125
35000,-14.585477,4.410120,1.005565,248.077393,50.292969,-114.257812,32.080078
35040,-13.206416,0.708684,0.579397,-58.074951,145.782471,-94.543457,32.095703
35080,-8.829816,-0.277727,1.513135,-98.937988,112.365723,-90.911865,32.103516
35120,-5.013458,1.675941,1.379060,-117.462158,61.065674,-83.587646,32.091797
35160,-4.865018,1.010353,0.900220,-125.610352,22.186279,-65.093994,32.091797
35200,-4.812346,2.164358,0.995988,-109.375000,-15.258789,-22.888184,32.082031
35240,-3.835511,4.673482,-0.143652,-70.098877,-49.072266,24.993896,32.089844
35280,-6.785168,2.743755,-4.395754,-10.772705,-37.780762,47.851562,32.095703
35320,-16.754623,-6.277597,-12.243947,12.725830,94.848633,-64.819336,32.097656
35360,-12.531252,-6.660669,-8.877700,-108.917236,76.507568,-45.043945,32.097656
35400,-5.679047,-4.587290,-2.480393,108.184814,-211.090088,32.714844,32.095703
35440,-13.737929,3.466804,-1.723825,-109.588623,28.411865,61.401367,32.097656
35480,-12.899959,5.329493,-1.149217,66.802979,-59.295654,-44.128418,32.093750
35520,-3.275268,7.852982,1.206678,132.537842,-114.074707,138.977051,32.082031
35560,-9.404425,6.090849,4.256891,17.089844,-186.950684,108.459473,32.085938
35600,-12.167333,-0.689530,3.361459,9.796143,-62.713623,77.148438,32.103516
35640,-11.037270,-3.112462,1.029507,8.331299,-86.486816,71.563721,32.083984
35680,-9.184157,0.938527,-1.043872,-69.305420,-56.976318,65.979004,32.115234
35720,-8.226477,0.464475,0.167594,-73.272705,-38.360596,40.435791,32.093750
35760,-9.035717,-0.191536,0.766145,2.929688,-66.619873,12.420654,32.130859
35800,-9.390059,0.354342,0.579397,-20.111084,-85.845947,15.991211,32.105469
35840,-8.801085,0.799663,0.450110,-19.592285,-53.894043,10.101318,32.093750
35880,-10.108319,1.335965,1.115698,101.531982,-31.311035,-18.981934,32.101562
35920,-11.037270,0.713472,2.810793,98.541260,-6.164551,-1.983643,32.130859
35960,-12.612655,0.900220,0.263362,-84.594727,60.974121,15.228271,32.113281
36000,-13.852851,-0.938527,-1.537078,88.348389,100.128174,-40.924072,32.103516
36040,-12.464214,-0.119710,-1.216254,28.045654,144.439697,-72.998047,32.093750
36080,-12.674904,3.131616,1.561020,-6.958008,186.096191,-97.778320,32.123047
36120,-14.719552,5.501875,1.039083,208.129883,61.187744,-105.987549,32.132812
36160,-13.393165,3.572149,-0.330400,43.884277,120.819092,-90.728760,32.097656
36200,-10.376471,-0.071826,1.005565,-55.053711,129.547119,-97.290039,32.101562
36240,-6.742072,1.048660,1.326388,-93.566895,74.615479,-92.468262,32.101562
36280,-4.841076,1.139640,1.019930,-127.166748,56.396484,-68.115234,32.105469
36320,-4.774038,1.331176,0.938527,-96.008301,11.718750,-34.606934,32.130859
36360,-3.768473,3.706224,0.603339,-88.775635,-21.820068,-1.770020,32.136719
36400,-4.367024,3.371036,-1.915361,-11.077881,-91.918945,45.593262,32.117188
36440,-12.397177,-2.437297,-9.974244,22.033691,7.598877,-20.324707,32.130859
36480,-17.008410,-9.169792,-11.362882,-75.012207,99.029541,-52.612305,32.146484
36520,-6.818686,-4.869806,-5.406107,9.124756,-136.810303,2.990723,32.138672
36560,-8.010999,2.375048,1.766921,15.411377,-123.138428,122.985840,32.132812
36600,-17.070658,5.904101,-1.795651,117.645264,-26.336670,20.507812,32.123047
36640,-5.521029,6.732495,1.091756,-13.214111,-57.250977,92.315674,32.132812
36680,-8.192958,5.707777,4.434062,-7.934570,-209.411621,73.944092,32.126953
36720,-11.133038,1.024718,3.337517,122.650146,-113.037109,64.605713,32.193359
36760,-10.347740,-1.264138,1.043872,36.743164,-81.604004,79.528809,32.208984
36800,-9.284714,0.306458,-0.330400,-63.140869,-49.316406,48.339844,32.171875
36840,-8.403648,0.766145,0.574608,-85.723877,-33.142090,33.172607,32.189453
36880,-9.198523,-0.560243,0.703895,38.635254,-74.768066,-3.112793,32.208984
36920,-9.179369,-0.081403,0.656011,-11.413574,-79.528809,-0.549316,32.185547
36960,-8.848969,1.383849,0.694318,17.852783,-80.261230,0.640869,32.189453
37000,-10.175357,2.494758,0.684742,102.233887,-30.517578,1.251221,32.207031
37040,-10.654198,0.746991,1.987187,62.438965,5.920410,19.622803,32.195312
37080,-12.923901,-0.718261,0.359130,-44.525146,65.124512,-3.570557,32.199219
37120,-14.432248,-0.861913,-1.771709,79.650879,136.199951,-76.934814,32.234375
37160,-12.799402,1.599327,-1.149217,39.245605,163.208008,-92.132568,32.214844
37200,-13.675680,4.592079,2.379837,43.640137,123.229980,-113.830566,32.205078
37240,-15.773001,4.745308,0.632069,197.631836,80.444336,-116.271973,32.207031
37280,-13.244724,1.268927,0.186748,-49.041748,143.127441,-89.660645,32.208984
37320,-8.255207,0.895431,1.216254,-70.587158,97.381592,-84.594727,32.195312
37360,-4.525041,1.642422,1.412579,-104.431152,73.303223,-78.491211,32.193359
37400,-4.898537,0.383072,1.364695,-128.906250,43.395996,-57.159424,32.224609
37440,-4.692636,2.494758,1.446098,-97.595215,6.866455,-28.472900,32.203125
37480,-3.270479,5.248090,-0.009577,-53.527832,-47.790527,22.308350,32.205078
37520,-6.813898,2.193089,-4.788404,-15.014648,-62.042236,48.126221,32.208984
37560,-17.573441,-8.944737,-14.111424,0.396729,67.504883,-53.771973,32.214844
37600,-11.563994,-7.489063,-9.141062,-154.968262,46.722412,-32.348633,32.230469
37640,-4.975151,-2.667141,2.193089,157.470703,-250.671387,59.234619,32.224609
37680,-17.990032,5.736507,-4.041412,23.254395,-17.303467,38.848877,32.222656
37720,-9.495404,7.350199,1.058237,-19.836426,-31.677246,2.868652,32.224609
37760,-5.185841,6.612785,3.821146,56.152344,-193.969727,125.091553,32.195312
37800,-11.027693,2.499547,4.242526,92.987061,-122.497559,44.586182,32.232422
37840,-11.252748,-1.173159,1.790863,7.019043,-75.866699,75.775146,32.208984
37880,-9.284714,0.378284,-0.114922,-28.930664,-106.262207,80.932617,32.222656
37920,-8.446744,1.771709,-0.354342,-92.834473,-24.688721,67.779541,32.224609
37960,-8.772355,-0.584185,0.445322,-1.281738,-60.455322,13.824463,32.228516
38000,-9.385271,-0.569820,0.603339,17.120361,-85.571289,1.556396,32.203125
38040,-9.193734,0.890643,0.636858,-13.397217,-91.369629,11.596680,32.240234
38080,-10.285490,1.786075,0.301669,81.176758,-37.384033,-3.997803,32.224609
38120,-10.888829,1.249773,1.417367,79.742432,-22.521973,-7.965088,32.203125
38160,-11.937490,0.138864,1.201889,37.322998,27.191162,-5.218506,32.226562
38200,-14.140155,-0.928950,-0.296881,24.017334,108.123779,-53.009033,32.222656
38240,-13.206416,0.550666,-2.126051,39.062500,169.097900,-85.632324,32.238281
38280,-12.909535,3.888184,0.895431,53.192139,140.777588,-109.985352,32.238281
38320,-14.973337,5.841852,2.092532,159.698486,81.878662,-119.781494,32.205078
38360,-14.973337,1.814805,0.181959,7.476807,163.421631,-105.010986,32.228516
38400,-9.777920,0.770933,1.086968,-66.864014,111.938477,-87.005615,32.222656
38440,-4.979939,1.920150,1.541866,-77.728271,74.371338,-80.413818,32.236328
38480,-4.367024,0.866701,1.374272,-120.208740,53.588867,-68.054199,32.224609
38520,-4.390966,1.388637,1.302446,-89.996338,5.340576,-37.017822,32.208984
38560,-3.538630,4.079720,0.081403,-78.155518,-35.644531,22.979736,32.230469
38600,-5.904101,2.786851,-4.065354,-25.512695,-42.907715,59.295654,32.244141
38640,-16.433800,-6.665458,-13.268666,37.963867,56.427002,-60.607910,32.232422
38680,-12.808979,-6.818686,-9.830592,-124.023438,49.163818,-39.825439,32.287109
38720,-7.335834,-3.466804,-2.365471,122.100830,-196.411133,29.785156,32.285156
38760,-14.686033,3.002329,-0.699107,-4.333496,-7.141113,10.528564,32.296875
38800,-8.499416,7.383718,0.153229,44.891357,-54.870605,34.698486,32.287109
38840,-6.258443,7.436390,3.179500,139.343262,-177.276611,136.199951,32.283203
38880,-10.510546,3.404555,3.888184,25.390625,-132.049561,105.041504,32.306641
38920,-11.650186,-1.350330,2.557007,13.183594,-62.988281,89.996338,32.279297
38960,-10.304645,-1.771709,0.253785,-4.364014,-99.456787,87.432861,32.310547
39000,-8.403648,1.029507,-1.048660,-133.453369,-22.460938,71.868896,32.314453
39040,-8.465898,-0.622492,0.809240,-46.966553,-41.717529,19.042969,32.285156
39080,-9.648633,-0.723049,0.957681,54.962158,-96.649170,-5.523682,32.304688
39120,-9.428367,0.565032,0.359130,-12.084961,-90.026855,3.875732,32.302734
39160,-9.351752,1.527501,0.292093,75.439453,-42.114258,-7.812500,32.300781
39200,-10.984597,2.044648,1.608904,72.631836,-44.158936,-1.464844,32.306641
39240,-12.038046,1.201889,0.818817,-10.406494,24.261475,28.503418,32.291016
39280,-13.795390,-1.345541,-0.392649,21.667480,93.414307,-30.364990,32.316406
39320,-13.464991,-1.417367,-1.273715,64.147949,149.139404,-91.308594,32.310547
39360,-13.043611,2.231396,0.569820,41.503906,149.536133,-111.297607,32.314453
39400,-15.073894,5.789180,2.106898,89.782715,92.803955,-114.471436,32.300781
39440,-14.724340,4.711789,-0.153229,28.442383,121.856689,-101.196289,32.308594
39480,-11.219229,0.699107,0.766145,-25.268555,134.887695,-101.409912,32.320312
39520,-7.134721,1.192312,1.651999,-84.472656,87.280273,-93.109131,32.304688
39560,-4.563348,1.656788,1.541866,-110.626221,63.659668,-83.374023,32.318359
39600,-3.998317,1.431733,1.110910,-94.238281,19.805908,-50.903320,32.326172
39640,-3.303998,3.361459,0.823605,-109.252930,5.432129,13.488770,32.326172
39680,-4.189853,3.189077,-1.896208,-46.905518,-72.143555,55.664062,32.302734
39720,-12.133814,-2.925714,-10.682928,40.344238,11.688232,-13.977051,32.341797
39760,-16.821661,-7.718906,-11.195287,-53.192139,71.807861,-60.913086,32.335938
39800,-7.455544,-3.945644,-6.675035,23.040771,-117.218018,-16.967773,32.324219
39840,-8.690952,-0.617704,2.633622,35.156250,-103.179932,88.897705,32.337891
39880,-16.917429,4.740520,-1.613692,69.824219,-6.652832,-26.214600,32.326172
39920,-4.055778,8.355764,-0.076614,90.454102,-64.941406,106.781006,32.347656
39960,-7.158663,6.991069,3.811569,64.727783,-161.956787,128.631592,32.320312
40000,-11.942278,2.044648,3.845088,-50.201416,-144.073486,92.346191,32.339844
40040,-11.903971,-2.537854,1.460463,56.365967,-65.673828,111.419678,32.332031
40080,-9.255983,-1.173159,-0.708684,-21.331787,-68.511963,60.424805,32.320312
40120,-8.063671,0.948104,-0.469264,-139.892578,-0.457764,48.492432,32.339844
40160,-9.222465,-0.842759,1.086968,-1.007080,-70.343018,-0.976562,32.333984
40200,-9.548077,-0.316035,0.746991,50.903320,-125.640869,-12.542725,32.353516
40240,-8.973468,1.436521,-0.311246,22.369385,-51.422119,13.000488,32.339844
40280,-10.046070,1.441309,1.182736,79.467773,3.173828,0.946045,32.328125
40320,-11.587936,1.221043,1.963245,-4.364014,-54.443359,22.979736,32.326172
40360,-12.909535,0.210690,-0.119710,-33.874512,61.309814,11.016846,32.324219
40400,-13.498509,-1.383849,-1.268927,66.497803,107.910156,-61.706543,32.339844
40440,-12.646173,0.837971,-1.489193,62.103271,144.592285,-102.722168,32.333984
40480,-13.723564,4.687847,1.900996,30.517578,133.453369,-109.588623,32.343750
40520,-15.471332,6.114791,0.344765,202.514648,94.299316,-110.107422,32.333984
40560,-12.813767,3.711013,-0.158017,-13.275146,108.398438,-96.649170,32.357422
40600,-9.011775,-0.201113,1.029507,-38.665771,109.100342,-105.102539,32.361328
40640,-5.578490,1.264138,1.350330,-100.311279,65.460205,-85.601807,32.404297
40680,-4.213795,0.952892,1.000776,-127.166748,36.773682,-67.810059,32.404297
40720,-4.065354,1.465251,1.115698,-89.385986,-9.887695,-31.341553,32.402344
40760,-3.667917,4.127604,0.593762,-87.341309,-42.266846,21.057129,32.408203
40800,-6.177041,2.758120,-2.935291,-11.352539,-74.432373,49.102783,32.392578
40840,-16.146496,-6.224925,-12.320562,58.044434,47.912598,-64.086914,32.421875
40880,-14.877569,-9.461885,-9.974244,-124.816895,87.219238,-35.919189,32.404297
40920,-8.082825,-4.558560,-1.786075,91.094971,-188.598633,33.416748,32.394531
40960,-14.216769,2.868254,-0.646434,39.337158,-0.457764,22.979736,32.408203
41000,-8.355764,8.465898,-0.239420,41.137695,-47.912598,21.362305,32.402344
41040,-5.669470,8.240842,2.609680,122.528076,-166.046143,154.907227,32.388672
41080,-10.769119,4.841076,3.610456,24.200439,-141.143799,79.895020,32.408203
41120,-10.979809,-0.387861,2.638410,26.367188,-54.046631,96.832275,32.400391
41160,-10.515334,-2.489970,0.641646,-15.869141,-69.610596,92.956543,32.416016
41200,-8.863335,-0.138864,-0.737414,-80.505371,-37.994385,49.774170,32.392578
41240,-8.695741,-0.167594,0.316035,-60.272217,-48.400879,29.724121,32.406250
41280,-9.299079,-0.699107,0.842759,22.308350,-88.439941,-1.983643,32.425781
41320,-9.078813,0.392649,0.349553,6.591797,-78.216553,8.697510,32.437500
41360,-9.370906,1.182736,0.775721,76.965332,-38.513184,-7.720947,32.394531
41400,-10.802638,1.762132,2.087744,99.273682,-53.070068,4.028320,32.423828
41440,-12.071565,1.412579,1.340753,-38.055420,28.961182,36.285400,32.429688
41480,-13.709199,-0.976834,-0.306458,35.034180,79.559326,-18.524170,32.421875
41520,-13.053187,-1.393425,-1.474828,71.868896,127.075195,-81.695557,32.412109
41560,-12.344504,1.771709,-0.440533,57.678223,164.611816,-103.332520,32.419922
41600,-13.809755,5.578490,2.293645,55.267334,118.469238,-102.081299,32.421875
41640,-14.925453,5.425261,-0.067038,221.527100,84.075928,-102.905273,32.429688
41680,-11.875240,1.757344,0.134075,-55.694580,108.581543,-102.355957,32.437500
41720,-7.934384,-0.761356,0.890643,-58.288574,95.764160,-91.003418,32.437500
41760,-5.085284,0.972046,1.187524,-110.412598,65.856934,-75.897217,32.441406
41800,-4.596867,1.264138,0.909797,-100.616455,27.008057,-57.830811,32.427734
41840,-4.213795,2.470816,0.890643,-108.947754,10.894775,-18.188477,32.423828
41880,-3.931279,3.399766,-0.809240,-40.100098,-63.079834,27.862549,32.435547
41920,-7.632715,0.833182,-5.645528,-15.594482,-37.689209,38.024902,32.441406
41960,-17.219099,-9.323022,-11.908759,-14.373779,74.645996,-45.043945,32.435547
42000,-11.717223,-6.689400,-8.202535,-131.805420,42.114258,-30.761719,32.445312
42040,-6.162675,-1.709460,0.699107,131.347656,-226.501465,61.584473,32.451172
42080,-16.208746,4.458004,-2.906561,39.520264,15.289307,30.334473,32.445312
42120,-10.218452,6.497863,-0.435745,2.593994,-39.154053,18.249512,32.455078
42160,-5.415684,7.053318,2.796427,43.945312,-98.144531,148.529053,32.457031
42200,-9.974244,4.821922,4.189853,-38.330078,-164.428711,81.237793,32.457031
42240,-11.142614,0.076614,2.992752,-51.452637,-83.435059,117.279053,32.433594
42280,-10.160992,-1.690306,-0.416591,90.270996,-89.294434,71.197510,32.445312
42320,-8.556877,0.181959,-1.019930,-91.308594,-37.689209,37.994385,32.476562
42360,-9.107543,-0.330400,0.497994,-28.991699,-35.644531,6.652832,32.460938
42400,-9.567230,-0.775721,0.914585,60.058594,-93.719482,-14.892578,32.453125
42440,-9.141062,1.029507,0.033519,-17.944336,-83.465576,3.234863,32.472656
42480,-9.318233,2.207454,0.478840,106.170654,-22.766113,-4.699707,32.455078
42520,-10.491392,2.796427,2.145205,23.376465,-41.809082,28.533936,32.464844
42560,-12.057199,1.158794,1.546654,-4.913330,9.399414,37.200928,32.457031
42600,-13.862428,-1.599327,-0.019154,20.294189,71.777344,-18.157959,32.447266
42640,-13.115437,-1.771709,-0.814029,71.289062,103.332520,-85.449219,32.531250
42680,-12.234370,1.963245,-0.440533,10.375977,156.738281,-101.043701,32.505859
42720,-13.412318,5.482722,2.025495,28.137207,124.176025,-100.646973,32.507812
42760,-13.910312,5.185841,0.407014,192.840576,69.183350,-104.553223,32.519531
42800,-11.726800,0.622492,0.612916,-14.312744,112.243652,-119.628906,32.519531
42840,-8.714894,-0.421380,1.288081,-87.524414,109.130859,-93.963623,32.511719
42880,-5.430049,1.738190,1.273715,-109.527588,57.556152,-86.914062,32.519531
42920,-5.300763,0.962469,0.928950,-117.797852,20.477295,-64.544678,32.511719
42960,-4.783615,2.212242,1.230620,-108.154297,-4.241943,-18.859863,32.527344
43000,-3.931279,4.204218,-0.612916,-68.237305,-47.393799,25.421143,32.525391
43040,-6.732495,1.723825,-5.023035,-20.141602,-29.571533,50.659180,32.533203
43080,-15.567100,-6.737284,-11.592725,-47.088623,58.776855,-14.556885,32.513672
43120,-13.297397,-5.765238,-8.173804,-70.281982,36.499023,-39.215088,32.513672
43160,-7.900866,-3.256114,-2.537854,91.949463,-164.825439,30.426025,32.529297
43200,-13.311762,0.881066,-0.268151,28.778076,-30.364990,40.496826,32.550781
43240,-11.750742,6.967127,-1.110910,-11.596680,-17.364502,0.152588,32.515625
43280,-4.261679,8.250419,1.235408,108.856201,-93.841553,143.402100,32.533203
43320,-9.275137,6.114791,4.252102,-51.422119,-153.442383,89.843750,32.525391
43360,-11.358093,-0.009577,3.615245,-54.321289,-88.256836,108.032227,32.525391
43400,-10.922348,-2.715025,0.014365,131.988525,-113.708496,86.395264,32.531250
43440,-9.016563,0.727837,-1.527501,-89.477539,-12.542725,58.410645,32.519531
43480,-8.853758,-0.354342,0.411803,-106.842041,23.437500,20.751953,32.542969
43520,-9.251195,-0.622492,1.211466,25.817871,-95.458984,-15.808105,32.523438
43560,-8.959103,1.532289,0.383072,-22.705078,-102.081299,12.207031,32.531250
43600,-9.030929,2.288857,-0.071826,48.431396,-21.270752,6.317139,32.523438
43640,-10.955867,2.059013,1.211466,90.881348,-62.011719,2.929688,32.535156
43680,-11.856087,0.876278,0.957681,8.483887,13.061523,32.043457,32.542969
43720,-12.914324,-1.187524,-0.608127,41.839600,78.491211,-18.066406,32.513672
43760,-12.665327,-0.962469,-1.484405,59.509277,127.960205,-78.063965,32.548828
43800,-12.229582,1.867477,0.019154,3.570557,145.355225,-108.795166,32.542969
43840,-14.748282,5.233725,2.327164,48.034668,108.917236,-121.368408,32.542969
43880,-15.164873,5.248090,-0.043096,213.409424,50.048828,-108.276367,32.535156
43920,-11.832145,1.508347,0.138864,-28.015137,107.727051,-114.227295,32.535156
43960,-8.049306,0.574608,0.924162,-74.523926,88.989258,-88.012695,32.541016
44000,-4.687847,1.881842,1.254562,-102.325439,45.410156,-77.148438,32.531250
44040,-4.620809,1.230620,1.096544,-122.619629,9.918213,-51.605225,32.535156
44080,-4.309563,3.160346,1.058237,-109.863281,4.791260,-13.488770,32.544922
44120,-4.309563,4.419696,-0.363919,-72.448730,-43.823242,33.142090,32.546875
44160,-9.323022,0.004788,-6.258443,13.122559,-23.284912,11.749268,32.542969
44200,-17.257406,-10.280702,-12.253524,-7.904053,56.884766,-54.351807,32.546875
44240,-9.983821,-8.140285,-7.211336,-88.958740,-5.462646,-35.003662,32.546875
44280,-5.224148,-1.608904,4.850653,80.932617,-197.631836,95.977783,32.562500
44320,-18.842367,6.924031,-6.545747,54.565430,-27.862549,11.413574,32.548828
44360,-7.795521,7.963115,-2.624045,-45.684814,-39.459229,12.939453,32.568359
44400,-5.123591,7.254431,3.581726,44.128418,-135.559082,142.791748,32.548828
44440,-11.578360,3.897760,3.643975,71.472168,-196.685791,64.544678,32.546875
44480,-11.367670,-0.842759,2.116474,-44.738770,-28.503418,105.194092,32.548828
44520,-9.677363,-1.556231,0.320823,14.160156,-86.639404,56.518555,32.548828
44560,-8.192958,0.469264,-0.134075,-57.830811,-45.562744,29.846191,32.556641
44600,-8.724471,0.043096,0.521936,-2.929688,-66.711426,13.885498,32.609375
44640,-9.490616,-0.550666,0.512359,-10.498047,-58.105469,-4.119873,32.601562
44680,-8.724471,0.651223,0.483629,-14.404297,-53.771973,-1.953125,32.599609
44720,-9.753978,2.197877,1.240196,122.406006,-52.459717,-14.160156,32.607422
44760,-10.807426,2.264915,2.154782,70.190430,-57.739258,12.420654,32.605469
44800,-12.042834,0.569820,1.019930,-22.003174,48.645020,29.205322,32.603516
44840,-13.642161,-1.781286,-0.440533,32.501221,108.489990,-36.407471,32.599609
44880,-12.866440,-0.627281,-1.766921,68.237305,153.656006,-90.911865,32.625000
44920,-12.694057,2.667141,0.895431,24.932861,141.082764,-109.161377,32.634766
44960,-15.145720,5.535394,2.212242,106.964111,96.771240,-111.053467,32.623047
45000,-14.872781,3.423708,0.368707,58.197021,96.466064,-118.774414,32.628906
45040,-11.214440,-0.507571,0.612916,-67.657471,133.087158,-100.585938,32.617188
45080,-6.363788,1.699883,1.288081,-91.033936,78.796387,-89.385986,32.630859
45120,-4.108450,1.790863,1.254562,-108.917236,45.806885,-64.971924,32.623047
45160,-4.587290,1.230620,0.905008,-95.092773,-9.307861,-43.731689,32.621094
45200,-3.816358,3.873818,0.814029,-93.902588,-22.613525,5.889893,32.621094
45240,-4.304775,4.390966,-0.723049,-33.233643,-68.115234,61.492920,32.634766
45280,-12.593501,-2.552219,-9.624691,29.724121,40.222168,-13.854980,32.630859
45320,-17.401058,-10.457873,-12.052411,-45.867920,85.906982,-56.762695,32.628906
45360,-8.532935,-5.521029,-5.770026,24.749756,-148.101807,9.277344,32.619141
45400,-12.837709,0.100556,1.470040,23.376465,-20.233154,42.541504,32.632812
45440,-11.334151,7.527370,-0.885855,-11.749268,-22.369385,8.056641,32.619141
45480,-4.912902,8.868123,1.187524,124.053955,-94.665527,148.376465,32.611328
45520,-9.615114,6.248867,3.706224,-27.404785,-158.905029,88.470459,32.628906
45560,-10.874464,0.670376,3.390190,-23.925781,-100.555420,98.907471,32.644531
45600,-10.879252,-2.614468,0.809240,87.188721,-101.379395,89.019775,32.646484
45640,-9.145850,-0.263362,-0.995988,-68.450928,-42.327881,54.412842,32.634766
45680,-8.628703,0.311246,0.004788,-118.957520,-9.704590,27.099609,32.660156
45720,-9.323022,-0.497994,0.842759,27.526855,-72.021484,-12.023926,32.636719
45760,-9.026140,0.756568,0.636858,0.976562,-91.552734,6.469727,32.652344
45800,-8.801085,1.709460,-0.105345,38.299561,-50.811768,5.615234,32.626953
45840,-10.362105,1.345541,1.479617,118.469238,-28.503418,-5.432129,32.642578
45880,-11.496957,0.957681,1.972822,31.250000,-23.620605,25.665283,32.646484
45920,-13.417107,-0.306458,0.316035,-31.951904,74.645996,-2.655029,32.650391
45960,-13.503298,-1.182736,-1.460463,66.558838,115.142822,-61.218262,32.654297
46000,-12.320562,1.426944,-1.221043,6.195068,170.898438,-85.266113,32.652344
46040,-13.110648,4.874595,1.503559,49.224854,139.984131,-109.710693,32.652344
46080,-14.733917,5.875371,0.287304,254.669189,39.916992,-113.525391,32.640625
46120,-13.005303,2.408567,-0.076614,-29.785156,114.654541,-114.654541,32.642578
46160,-8.887277,-0.043096,0.732626,-76.385498,113.189697,-88.256836,32.669922
46200,-5.535394,1.388637,0.914585,-82.214355,61.584473,-81.207275,32.656250
46240,-4.888960,0.967257,0.823605,-108.489990,32.440186,-59.265137,32.664062
46280,-4.084508,2.461239,0.905008,-95.550537,0.244141,-19.256592,32.660156
46320,-3.667917,3.950433,-0.383072,-59.204102,-46.997070,29.113770,32.660156
46360,-6.373365,2.370260,-4.055778,-15.411377,-51.452637,50.994873,32.662109
46400,-16.543934,-7.038953,-12.306197,47.393799,60.668945,-67.443848,32.667969
46440,-13.781025,-8.350976,-9.514558,-127.593994,73.577881,-38.848877,32.648438
46480,-5.789180,-3.596091,-1.130063,98.205566,-219.726562,41.748047,32.658203
46520,-11.650186,5.248090,-2.087744,-72.753906,-24.169922,84.777832,32.660156
46560,-13.857639,5.214571,0.986411,79.650879,-29.571533,9.918213,32.685547
46600,-6.440403,6.119579,1.968034,33.477783,-92.437744,124.633789,32.738281
46640,-8.997410,5.166687,3.586514,-54.840088,-162.017822,86.914062,32.724609
46680,-10.568007,0.881066,2.528277,40.283203,-116.424561,77.941895,32.722656
46720,-9.744401,-1.101333,0.656011,98.388672,-95.458984,62.408447,32.736328
46760,-9.078813,0.761356,-0.220267,-37.200928,-42.694092,52.429199,32.736328
46800,-9.193734,0.177171,0.220267,-50.201416,-33.172607,24.902344,32.746094
46840,-9.619903,-0.713472,0.799663,14.801025,-68.389893,-1.861572,32.738281
46880,-9.121908,0.344765,0.718261,-26.824951,-70.800781,4.180908,32.728516
46920,-9.035717,1.762132,0.488417,38.696289,-64.361572,-1.159668,32.730469
46960,-10.568007,2.135628,1.398214,107.269287,-35.949707,-3.448486,32.736328
47000,-11.334151,1.369483,1.249773,77.270508,-9.552002,17.211914,32.757812
47040,-13.316550,-0.378284,-0.344765,3.784180,76.904297,-19.439697,32.753906
47080,-13.685257,-1.259350,-1.374272,89.111328,120.819092,-82.580566,32.751953
47120,-12.368446,1.331176,-0.866701,19.805908,164.794922,-103.820801,32.746094
47160,-13.924677,5.027823,2.403779,6.011963,160.034180,-106.567383,32.765625
47200,-15.993267,4.323928,0.924162,221.862793,71.746826,-132.751465,32.734375
47240,-13.283031,0.474052,0.124498,-55.541992,153.198242,-97.167969,32.757812
47280,-7.671022,1.364695,1.024718,-72.753906,83.526611,-89.782715,32.757812
47320,-4.663905,2.068590,1.292869,-108.520508,73.120117,-79.498291,32.750000
47360,-4.553771,1.010353,0.890643,-94.512939,22.949219,-57.373047,32.765625
47400,-4.137180,2.049437,1.053449,-96.466064,2.075195,-10.711670,32.740234
47440,-3.557784,3.663129,-0.651223,-55.816650,-54.229736,38.269043,32.755859
47480,-7.896077,0.493206,-6.200983,-15.838623,-40.191650,48.065186,32.740234
47520,-18.229452,-8.700529,-12.282255,-32.989502,102.264404,-47.698975,32.748047
47560,-10.860099,-4.754885,-8.264784,-96.160889,24.475098,-41.168213,32.740234
47600,-3.955221,-2.710236,0.526724,142.852783,-249.877930,62.255859,32.765625
47640,-13.359646,5.142745,-3.629610,-121.368408,8.850098,95.214844,32.781250
47680,-14.772224,4.525041,-0.627281,108.703613,-38.269043,-25.482178,32.742188
47720,-4.132392,6.066907,1.589750,37.048340,-57.678223,118.621826,32.771484
47760,-8.810662,5.477933,3.691859,-64.971924,-161.163330,101.867676,32.767578
47800,-11.971008,0.579397,2.925714,-65.887451,-90.118408,110.107422,32.763672
47840,-10.251971,-1.742979,-0.023942,107.879639,-114.715576,66.711426,32.753906
47880,-8.686164,0.837971,-1.292869,-86.578369,-41.412354,34.118652,32.751953
47920,-8.580819,0.076614,0.435745,-74.645996,-29.693604,6.408691,32.753906
47960,-9.193734,0.000000,0.967257,21.667480,-78.430176,-16.326904,32.773438
48000,-8.757990,1.618480,0.804452,-39.825439,-69.885254,9.063721,32.765625
48040,-9.203311,1.948880,0.694318,80.596924,-55.755615,-1.098633,32.771484
48080,-10.975020,2.116474,1.393425,77.056885,-52.062988,2.166748,32.777344
48120,-11.851298,0.004788,1.034295,24.871826,4.821777,29.571533,32.771484
48160,-13.292608,-1.752556,-0.335188,24.139404,91.247559,-17.578125,32.775391
48200,-12.995727,-1.221043,-1.632846,42.510986,140.960693,-74.615479,32.767578
48240,-12.162544,1.843535,-0.110133,30.761719,166.809082,-102.050781,32.765625
48280,-14.748282,5.248090,2.652776,66.680908,111.022949,-114.562988,32.773438
48320,-16.041151,4.218584,0.272939,158.508301,71.350098,-130.310059,32.761719
48360,-12.943054,0.588974,0.497994,-54.229736,149.505615,-106.597900,32.775391
48400,-7.929596,0.837971,1.403002,-94.726562,100.158691,-89.263916,32.775391
48440,-4.783615,2.154782,1.455675,-119.598389,70.953369,-88.348389,32.789062
48480,-4.137180,1.412579,0.905008,-108.367920,15.594482,-54.321289,32.791016
48520,-3.576937,2.734178,0.924162,-113.342285,-4.180908,-6.317139,32.773438
48560,-3.284845,4.611232,-0.612916,-55.847168,-67.047119,44.708252,32.824219
48600,-9.174581,0.172383,-7.024588,2.777100,-24.475098,33.721924,32.857422
48640,-17.961302,-9.399636,-12.722788,-21.423340,69.122314,-69.396973,32.832031
48680,-9.682152,-7.177817,-8.025364,-103.668213,-11.230469,-36.499023,32.833984
48720,-5.257667,-2.413355,4.544195,102.783203,-225.982666,74.432373,32.826172
48760,-18.444929,5.334281,-5.875371,39.703369,8.941650,10.467529,32.837891
48800,-8.829816,7.383718,-1.537078,-52.581787,-37.353516,0.976562,32.828125
48840,-4.740520,7.067683,3.112462,74.859619,-132.751465,136.871338,32.828125
48880,-10.874464,4.175488,3.921702,-6.286621,-222.076416,83.007812,32.828125
48920,-11.741165,-0.981623,2.097321,68.908691,-26.977539,95.367432,32.839844
48960,-10.261548,-1.671153,0.153229,37.170410,-104.980469,75.500488,32.830078
49000,-8.394072,1.273715,-0.598550,-110.565186,-16.418457,70.220947,32.845703
49040,-8.647857,0.067038,0.354342,-107.666016,-33.355713,41.046143,32.853516
49080,-8.973468,-0.450110,1.091756,-8.911133,-82.885742,0.122070,32.839844
49120,-8.791509,0.914585,0.316035,0.061035,-80.169678,2.288818,32.837891
49160,-9.466674,1.929727,0.545878,15.228271,-26.855469,2.929688,32.853516
49200,-10.481815,1.508347,1.786075,98.846436,-7.751465,1.342773,32.851562
49240,-11.908759,0.718261,1.412579,30.883789,-19.561768,4.272461,32.839844
49280,-14.178462,-0.507571,-0.416591,-0.946045,116.760254,-41.748047,32.847656
49320,-13.311762,0.627281,-2.331953,63.018799,157.379150,-81.909180,32.857422
49360,-12.588713,3.160346,0.651223,45.104980,148.529053,-109.680176,32.865234
49400,-14.891934,5.195418,1.910573,154.174805,68.908691,-119.659424,32.863281
49440,-15.356410,2.537854,0.196325,22.918701,133.331299,-123.077393,32.843750
49480,-11.286267,0.196325,0.924162,-86.151123,128.570557,-92.041016,32.871094
49520,-6.430826,2.092532,1.331176,-95.153809,87.707520,-88.378906,32.871094
49560,-4.817134,1.920150,0.909797,-105.133057,46.844482,-74.707031,32.853516
49600,-4.553771,1.699883,0.852336,-83.160400,-5.950928,-46.569824,32.875000
49640,-3.586514,3.902549,0.411803,-86.334229,-7.232666,5.126953,32.861328
49680,-4.228160,3.308787,-1.776498,-30.364990,-62.927246,51.300049,32.876953
49720,-11.803414,-3.634398,-9.610326,19.500732,4.028320,0.701904,32.873047
49760,-17.300501,-10.228029,-10.855310,-94.696045,78.918457,-55.541992,32.875000
49800,-8.288726,-4.592079,-5.042189,15.960693,-102.020264,-3.326416,32.884766
49840,-8.834604,2.035071,1.005565,62.286377,-122.070312,59.051514,32.878906
49880,-14.508862,5.521029,-1.072602,54.290771,1.495361,0.518799,32.867188
49920,-5.760449,6.612785,1.010353,78.826904,-74.249268,95.977783,32.882812
49960,-8.293514,5.578490,4.055778,29.449463,-197.387695,103.210449,32.871094
50000,-11.348516,1.412579,2.370260,50.781250,-90.270996,103.973389,32.892578
50040,-11.544841,-1.843535,1.221043,-1.037598,-63.232422,102.996826,32.892578
50080,-9.174581,0.095768,-0.167594,-62.011719,-62.927246,70.373535,32.873047
50120,-7.656657,1.412579,-0.153229,-141.143799,-15.289307,60.150146,32.873047
50160,-8.283937,-0.033519,0.464475,-54.870605,-41.748047,9.948730,32.855469
50200,-9.050082,0.402226,0.670376,22.827148,-70.129395,-4.058838,32.892578
50240,-8.786720,1.570596,0.483629,-1.953125,-64.483643,18.554688,32.890625
50280,-9.888053,1.201889,1.053449,64.849854,-7.690430,6.042480,32.871094
50320,-11.501745,0.306458,2.245761,120.422363,-66.436768,3.753662,32.875000
50360,-13.450625,0.344765,0.067038,-57.342529,64.453125,-11.047363,32.869141
50400,-14.231135,-0.641646,-1.671153,57.647705,123.901367,-67.901611,32.888672
50440,-12.794614,2.432509,-1.556231,30.761719,176.483154,-89.050293,32.857422
50480,-13.297397,5.449203,1.714248,80.841064,122.802734,-107.055664,32.869141
50520,-14.911088,4.769250,0.545878,224.822998,40.283203,-124.176025,32.873047
50560,-12.981361,0.995988,0.287304,-26.275635,111.236572,-115.264893,32.917969
50600,-8.777143,0.258574,1.307234,-106.750488,103.302002,-91.613770,32.925781
50640,-5.267244,1.857901,1.422156,-107.879639,64.270020,-82.977295,32.939453
50680,-5.157111,0.866701,0.761356,-131.195068,11.718750,-65.521240,32.929688
50720,-4.548983,3.126827,0.837971,-108.154297,1.586914,-26.824951,32.941406
50760,-3.825934,4.860229,-0.445322,-69.000244,-30.578613,20.782471,32.939453
50800,-6.675035,2.106898,-4.697424,-1.525879,-20.843506,38.482666,32.925781
50840,-15.327680,-7.498640,-12.042834,12.512207,37.109375,-33.843994,32.912109
50880,-13.464991,-8.322245,-8.571242,-134.521484,53.710938,-36.834717,32.935547
50920,-8.944737,-3.624821,-2.202666,69.396973,-142.578125,31.372070,32.958984
50960,-13.876793,3.993528,-2.159570,30.059814,-14.465332,-14.495850,32.955078
51000,-6.248867,7.718906,0.301669,41.809082,-62.469482,59.631348,32.931641
51040,-8.015787,6.895301,2.868254,143.829346,-164.123535,93.505859,32.949219
51080,-11.434708,1.728614,3.380613,41.534424,-107.757568,83.099365,32.951172
51120,-10.860099,-0.311246,2.193089,42.724609,-85.571289,72.418213,32.943359
51160,-9.504981,0.450110,0.488417,4.608154,-98.022461,87.646484,32.949219
51200,-8.480263,1.513135,-0.100556,-95.092773,-48.614502,96.466064,32.943359
51240,-8.552089,-0.339977,0.612916,-48.034668,-40.252686,46.600342,32.964844
51280,-9.323022,-1.197101,0.627281,26.367188,-77.911377,7.843018,32.949219
51320,-8.978256,0.450110,0.258574,-16.784668,-62.347412,8.575439,32.935547
51360,-8.738836,1.575385,0.512359,6.469727,-29.876709,12.359619,32.931641
51400,-10.510546,1.527501,1.987187,110.076904,-47.241211,4.852295,32.933594
51440,-11.803414,1.292869,1.379060,55.725098,-19.622803,21.697998,32.964844
51480,-13.699622,-0.057461,0.402226,-2.258301,72.875977,-21.301270,32.941406
51520,-14.058752,-0.521936,-1.877054,55.084229,119.873047,-70.495605,32.958984
51560,-12.799402,2.317587,-1.225831,28.350830,183.959961,-95.764160,32.939453
51600,-13.086706,5.568913,1.857901,46.295166,122.772217,-108.520508,32.980469
51640,-14.662091,4.955997,0.258574,246.643066,56.976318,-133.483887,32.962891
51680,-12.732365,0.761356,0.335188,-51.452637,131.591797,-105.621338,32.951172
51720,-7.738060,0.780510,1.431733,-66.925049,91.430664,-91.918945,32.960938
51760,-4.458004,1.489193,1.364695,-104.156494,63.842773,-84.075928,32.984375
51800,-4.644751,0.790087,0.924162,-109.344482,20.446777,-65.612793,32.947266
51840,-4.194642,2.719813,0.790087,-118.286133,15.289307,-13.885498,32.958984
51880,-4.232949,3.667917,-1.613692,-34.454346,-65.124512,32.379150,32.949219
51920,-9.006987,-0.296881,-7.431602,-6.500244,-29.998779,34.240723,32.955078
51960,-16.381128,-9.198523,-11.420342,-45.257568,79.010010,-40.130615,32.968750
52000,-10.635044,-5.075707,-7.455544,-126.556396,-3.051758,-20.507812,32.970703
52040,-10.208876,-0.699107,-1.154005,119.537354,-137.298584,27.923584,32.984375
52080,-12.694057,4.898537,-0.320823,32.989502,-5.340576,-3.967285,32.990234
52120,-5.386954,7.292738,1.470040,90.820312,-82.031250,104.827881,32.968750
52160,-10.065224,6.172252,3.433285,111.968994,-205.566406,118.896484,33.007812
52200,-11.085154,1.953669,2.949656,-32.684326,-82.366943,98.968506,32.968750
52240,-10.759542,-1.273715,1.570596,34.881592,-95.794678,80.047607,32.974609
52280,-9.275137,0.469264,-0.488417,-23.284912,-84.472656,79.193115,32.968750
52320,-8.489840,1.053449,-0.770933,-111.968994,-11.077881,66.162109,32.974609
52360,-8.710106,-0.900220,0.210690,-27.954102,-51.605225,7.751465,32.988281
52400,-9.366117,-0.373495,0.555455,40.649414,-94.970703,-7.202148,32.994141
52440,-8.700529,1.216254,0.526724,-6.286621,-59.143066,13.824463,32.986328
52480,-9.940725,1.584962,1.144428,56.732178,-30.578613,-7.507324,32.990234
52520,-11.061212,1.441309,1.642422,75.836182,-50.598145,2.075195,33.042969
52560,-12.521675,0.794875,0.244209,51.818848,21.026611,-1.800537,33.042969
52600,-13.809755,-0.636858,-1.221043,36.590576,95.092773,-36.773682,33.037109
52640,-12.531252,-0.292093,-1.608904,55.908203,149.810791,-73.272705,33.005859
52680,-12.516887,3.193865,1.000776,1.586914,183.502197,-98.419189,33.056641
52720,-15.049952,5.908890,1.719037,175.964355,57.159424,-117.584229,33.056641
52760,-14.073117,3.562572,-0.296881,129.180908,72.448730,-111.816406,33.039062
52800,-10.577583,0.028730,0.684742,-85.632324,124.969482,-101.745605,33.044922
52840,-7.043741,0.814029,1.163582,-98.571777,78.216553,-90.789795,33.050781
52880,-4.879383,1.675941,1.034295,-114.715576,48.797607,-69.732666,33.060547
52920,-4.491522,2.001553,0.957681,-96.252441,25.573730,-42.266846,33.056641
52960,-3.447650,3.687071,0.507571,-91.583252,-3.387451,-2.655029,33.046875
53000,-4.108450,3.289633,-1.829170,-29.968262,-63.354492,38.177490,33.052734
53040,-11.540052,-3.088520,-10.266336,42.144775,-13.885498,-21.209717,33.033203
53080,-17.123331,-10.089166,-11.348516,-103.729248,78.338623,-44.586182,33.042969
53120,-8.341399,-3.945644,-4.912902,-19.439697,-78.582764,6.072998,33.042969
53160,-8.729259,4.199430,-1.230620,34.851074,-126.800537,65.643311,33.037109
53200,-15.461755,3.854665,0.603339,95.489502,13.458252,23.223877,33.042969
53240,-6.244078,5.904101,1.259350,31.616211,-72.631836,106.933594,33.050781
53280,-7.920019,5.492299,3.926491,27.008057,-217.315674,115.447998,33.039062
53320,-11.262324,1.158794,2.485181,70.739746,-78.887939,78.948975,33.062500
53360,-10.553641,-0.957681,0.536301,13.702393,-92.529297,86.334229,33.068359
53400,-8.815451,1.546654,-0.397437,-56.732178,-54.656982,78.643799,33.068359
53440,-8.633492,0.464475,0.392649,-103.576660,-28.137207,41.595459,33.052734
53480,-9.160215,-1.024718,0.943315,-11.566162,-73.242188,2.410889,33.072266
53520,-9.155427,0.368707,0.727837,4.089355,-85.205078,5.249023,33.056641
53560,-8.935161,1.647211,0.392649,32.531738,-57.586670,2.349854,33.056641
53600,-10.328587,2.274492,1.244985,60.546875,-25.756836,-7.873535,33.066406
53640,-11.401189,1.537078,1.264138,101.135254,-43.334961,-3.173828,33.076172
53680,-13.077129,0.282516,-0.177171,14.923096,51.177979,-9.979248,33.066406
53720,-14.144943,-0.670376,-1.632846,89.385986,133.697510,-65.002441,33.062500
53760,-12.919112,1.053449,-0.943315,61.065674,177.459717,-98.724365,33.044922
53800,-13.163321,4.309563,2.102109,25.238037,142.181396,-107.269287,33.082031
53840,-15.667656,4.654328,0.565032,237.335205,56.823730,-134.674072,33.072266
53880,-13.627796,1.249773,0.167594,-41.534424,142.395020,-99.975586,33.087891
53920,-8.331821,0.881066,1.345541,-62.744141,85.906982,-89.874268,33.076172
53960,-4.673482,1.857901,1.642422,-114.807129,72.631836,-85.052490,33.060547
54000,-4.443638,1.268927,1.024718,-113.739014,24.993896,-66.406250,33.072266
54040,-4.046201,2.432509,0.737414,-109.588623,9.735107,-14.617920,33.060547
54080,-3.351882,3.993528,-1.010353,-56.671143,-53.131104,30.914307,33.087891
54120,-7.149086,0.622492,-5.458780,-22.644043,-40.954590,45.227051,33.074219
54160,-17.013197,-8.552089,-11.851298,-1.434326,39.001465,-54.138184,33.070312
54200,-11.903971,-6.359000,-8.078036,-118.804932,16.021729,-20.629883,33.060547
54240,-8.303091,-1.862689,0.110133,129.730225,-199.920654,40.771484,33.085938
54280,-15.887922,3.797204,-1.819593,41.687012,10.437012,11.047363,33.068359
54320,-6.861782,7.642292,0.272939,42.541504,-60.180664,62.713623,33.082031
54360,-6.325481,7.220912,3.715801,59.600830,-187.011719,136.871338,33.097656
54400,-10.970232,3.725378,3.533842,0.366211,-139.068604,99.151611,33.072266
54440,-11.262324,-1.426944,1.881842,78.155518,-58.593750,85.540771,33.082031
54480,-9.854534,-0.900220,-0.124498,-10.498047,-63.171387,74.645996,33.099609
54520,-8.513782,0.780510,-0.191536,-163.024902,-7.141113,55.664062,33.125000
54560,-8.829816,-0.296881,1.043872,-37.231445,-66.192627,13.427734,33.126953
54600,-9.117120,0.134075,0.828394,24.017334,-66.833496,3.204346,33.107422
54640,-8.949526,0.995988,0.225055,-4.974365,-81.146240,4.760742,33.128906
54680,-9.672575,2.298434,0.244209,8.056641,2.899170,12.634277,33.146484
54720,-10.989386,1.230620,1.900996,95.855713,-38.909912,12.451172,33.134766
54760,-12.483368,0.244209,0.885855,19.378662,34.210205,1.892090,33.148438
54800,-14.173674,-1.158794,-0.756568,32.318115,89.263916,-56.610107,33.166016
54840,-13.057976,0.967257,-2.413355,61.218262,152.191162,-88.714600,33.130859
54880,-12.531252,4.649539,0.737414,47.027588,159.729004,-104.461670,33.148438
54920,-14.575900,6.038177,1.556231,179.931641,66.802979,-106.170654,33.132812
54960,-14.513651,2.547431,-0.110133,12.481689,123.046875,-107.269287,33.138672
55000,-10.266336,-0.158017,0.742203,-57.220459,107.238770,-104.278564,33.158203
55040,-5.961562,1.604115,1.436521,-81.695557,71.960449,-83.343506,33.152344
55080,-4.458004,1.206678,1.321599,-121.948242,37.902832,-71.014404,33.148438
55120,-4.199430,1.824382,1.359907,-104.522705,8.209229,-40.496826,33.164062
55160,-3.375824,4.156334,0.052672,-90.515137,-23.468018,16.998291,33.160156
55200,-5.434838,3.179500,-3.677494,-28.167725,-43.609619,55.480957,33.140625
55240,-14.968549,-5.042189,-11.932701,39.855957,52.642822,-53.100586,33.138672
55280,-14.346057,-7.762002,-10.017340,-101.623535,66.040039,-45.379639,33.177734
55320,-7.244854,-4.501099,-4.122815,50.384521,-162.475586,5.157471,33.167969
55360,-11.741165,1.958457,-0.023942,-37.933350,-37.322998,52.154541,33.160156
55400,-13.086706,6.306327,-1.508347,52.459717,-37.811279,-18.768311,33.154297
55440,-4.347870,7.340622,1.738190,140.625000,-89.202881,125.793457,33.150391
55480,-9.212888,5.664681,4.314352,67.840576,-205.474854,111.175537,33.146484
55520,-11.994950,0.565032,2.264915,5.950928,-62.316895,93.383789,33.130859
55560,-10.965444,-1.905785,0.809240,1.342773,-79.803467,81.726074,33.154297
55600,-8.839393,1.455675,-0.794875,-110.260010,-38.421631,84.350586,33.162109
55640,-8.408437,0.608127,-0.014365,-103.240967,-17.272949,46.844482,33.148438
55680,-8.997410,-0.842759,0.909797,9.155273,-71.319580,4.241943,33.191406
55720,-9.366117,0.483629,0.531513,3.631592,-86.029053,14.739990,33.164062
55760,-9.030929,1.000776,-0.014365,34.301758,-47.180176,7.690430,33.181641
55800,-10.175357,1.063026,1.139640,107.299805,-39.825439,-19.439697,33.148438
55840,-11.008539,2.111686,1.479617,41.290283,-46.844482,14.404297,33.167969
55880,-12.761095,0.857124,0.134075,6.835938,52.734375,11.993408,33.167969
55920,-13.713987,-1.637634,-0.833182,59.753418,96.954346,-52.947998,33.167969
55960,-12.296620,0.033519,-1.096544,-9.674072,155.975342,-82.244873,33.171875
56000,-13.000515,4.175488,1.393425,-8.972168,168.426514,-108.581543,33.189453
56040,-14.786590,6.239290,0.972046,220.733643,33.660889,-109.313965,33.171875
56080,-13.249513,2.911349,-0.009577,46.844482,97.839355,-117.279053,33.173828
56120,-9.907207,-0.579397,0.928950,-82.550049,123.168945,-93.017578,33.164062
56160,-6.133945,1.580173,1.398214,-103.973389,68.023682,-87.463379,33.173828
56200,-4.587290,1.527501,1.063026,-119.018555,38.604736,-63.873291,33.166016
56240,-4.783615,2.035071,1.125275,-102.539062,13.824463,-37.017822,33.181641
56280,-3.950433,4.146757,0.363919,-97.137451,-14.007568,7.843018,33.183594
56320,-5.439626,3.098097,-2.916138,-19.042969,-66.894531,39.825439,33.193359
56360,-13.982138,-4.984728,-11.726800,59.570312,14.251709,-42.846680,33.187500
56400,-15.308526,-9.782708,-10.362105,-117.187500,64.239502,-36.651611,33.177734
56440,-7.867347,-5.583278,-2.480393,81.634521,-188.659668,12.512207,33.167969
56480,-10.946290,3.711013,0.890643,-38.360596,-4.394531,86.517334,33.216797
56520,-13.421895,7.814674,-1.699883,38.787842,-14.495850,-16.876221,33.222656
56560,-4.850653,7.412448,1.450886,68.572998,-96.893311,127.990723,33.226562
56600,-9.217676,5.722142,4.338294,19.561768,-175.415039,87.982178,33.248047
56640,-11.281479,0.900220,3.256114,51.147461,-68.878174,88.043213,33.234375
56680,-11.008539,-2.379837,0.952892,71.716309,-99.609375,93.658447,33.216797
56720,-8.815451,0.488417,-0.770933,-91.888428,-32.043457,66.650391,33.242188
56760,-8.350976,0.330400,-0.114922,-144.195557,-3.479004,37.445068,33.242188
56800,-8.916007,-0.665588,0.981623,28.137207,-66.864014,-13.122559,33.240234
56840,-9.054871,0.617704,0.799663,4.943848,-92.651367,-3.204346,33.230469
56880,-9.418790,2.149993,0.215478,6.072998,-41.229248,12.786865,33.234375
56920,-10.850522,1.517924,1.537078,104.095459,-28.900146,15.136719,33.242188
56960,-12.004527,0.153229,1.015141,24.383545,22.460938,23.590088,33.230469
57000,-13.378799,-1.379060,-0.761356,37.139893,85.113525,-43.121338,33.250000
57040,-12.761095,0.062249,-2.169147,56.152344,143.188477,-80.810547,33.251953
57080,-12.583924,3.055001,0.220267,4.852295,166.351318,-107.391357,33.236328
57120,-15.600618,6.033388,1.714248,132.843018,71.258545,-124.328613,33.248047
57160,-14.724340,5.310339,-0.828394,173.400879,68.786621,-110.473633,33.236328
57200,-10.453085,1.010353,0.071826,-54.351807,103.088379,-102.722168,33.236328
57240,-7.120356,0.541090,1.019930,-89.630127,82.153320,-85.113525,33.257812
57280,-4.841076,1.489193,1.517924,-107.147217,56.488037,-66.131592,33.240234
57320,-4.912902,1.403002,1.010353,-103.118896,11.474609,-49.194336,33.263672
57360,-4.199430,3.744531,0.397437,-92.773438,-7.232666,-7.965088,33.250000
57400,-4.884171,3.983952,-1.412579,-29.296875,-55.297852,31.646729,33.269531
57440,-10.098742,-1.307234,-7.872135,18.066406,-10.681152,4.486084,33.251953
57480,-16.318878,-11.061212,-11.750742,-22.186279,38.940430,-33.660889,33.255859
57520,-10.208876,-5.928043,-5.688623,-94.573975,-18.829346,-3.234863,33.265625
57560,-8.456321,1.225831,0.622492,85.449219,-147.827148,52.459717,33.271484
57600,-14.341269,5.123591,-0.756568,110.534668,-29.815674,24.749756,33.267578
57640,-6.536170,6.722919,1.326388,21.453857,-63.079834,107.635498,33.265625
57680,-8.614338,5.937620,3.610456,43.090820,-215.301514,103.454590,33.277344
57720,-10.888829,1.264138,3.136404,76.324463,-79.376221,63.507080,33.275391
57760,-10.386047,-1.244985,1.077391,42.602539,-95.031738,79.040527,33.250000
57800,-9.035717,0.905008,0.095768,-0.366211,-75.592041,70.922852,33.261719
57840,-8.350976,0.972046,0.435745,-72.723389,-29.052734,62.316895,33.269531
57880,-9.346964,-0.933739,0.718261,19.134521,-60.638428,17.852783,33.269531
57920,-9.605537,-1.125275,0.450110,34.729004,-73.181152,-8.575439,33.265625
57960,-8.609550,0.588974,0.478840,-47.729492,-50.231934,-1.434326,33.253906
58000,-8.753201,2.250550,1.091756,60.882568,-34.423828,-1.007080,33.251953
58040,-10.218452,2.130840,2.494758,102.355957,-43.060303,8.239746,33.242188
58080,-11.822568,0.823605,0.766145,26.885986,27.801514,24.749756,33.259766
58120,-13.393165,-1.565808,-0.847547,-4.272461,109.985352,-18.005371,33.281250
58160,-13.311762,-1.465251,-1.877054,49.102783,154.632568,-79.498291,33.289062
58200,-13.110648,1.575385,0.114922,-18.005371,179.931641,-111.053467,33.289062
58240,-16.041151,5.971139,1.709460,105.712891,83.129883,-144.927979,33.261719
58280,-16.180016,5.544971,-0.086191,172.973633,97.076416,-128.021240,33.285156
58320,-11.760319,0.153229,0.407014,-71.228027,145.050049,-108.154297,33.283203
58360,-7.230489,1.000776,1.321599,-80.749512,88.287354,-94.757080,33.292969
58400,-4.812346,1.719037,1.628057,-128.967285,81.878662,-73.089600,33.273438
58440,-4.323928,1.493982,1.086968,-96.679688,22.735596,-53.649902,33.265625
58480,-3.375824,3.658340,0.775721,-114.898682,7.446289,-8.880615,33.332031
58520,-3.888184,3.438074,-1.551443,-40.649414,-58.837891,30.670166,33.337891
58560,-10.175357,-3.529053,-10.347740,38.360596,-49.499512,12.145996,33.330078
58600,-16.160862,-10.754754,-11.942278,-105.316162,44.891357,-32.592773,33.343750
58640,-10.060435,-4.386178,-4.979939,-45.013428,-61.981201,-0.549316,33.333984
58680,-10.888829,3.016694,-2.595315,41.442871,-88.195801,20.202637,33.339844
58720,-11.822568,4.999093,1.776498,71.350098,-22.064209,21.240234,33.333984
58760,-6.660669,6.196194,2.710236,80.383301,-137.847900,118.682861,33.328125
58800,-10.357317,3.907337,3.246537,35.308838,-125.305176,112.548828,33.341797
58840,-10.572795,0.866701,1.642422,-14.099121,-72.174072,77.728271,33.326172
58880,-9.911995,-0.454898,0.440533,20.416260,-95.703125,84.075928,33.335938
58920,-8.834604,1.393425,-0.450110,-84.167480,-42.541504,96.923828,33.353516
58960,-8.681376,-0.019154,0.124498,-89.324951,-22.918701,47.271729,33.332031
59000,-9.294291,-0.770933,0.459687,13.397217,-77.758789,10.559082,33.335938
59040,-9.476251,0.579397,-0.057461,5.462646,-77.575684,16.296387,33.337891
59080,-8.743625,1.225831,-0.177171,-19.897461,-29.083252,15.167236,33.328125
59120,-9.902418,0.502782,1.230620,97.412109,-31.036377,-18.432617,33.322266
59160,-11.008539,1.340753,1.541866,63.781738,-71.075439,-7.446289,33.353516
59200,-12.512098,1.101333,-0.167594,29.693604,62.011719,0.335693,33.351562
59240,-13.661315,-1.019930,-1.570596,41.534424,112.091064,-51.544189,33.367188
59280,-12.358870,0.344765,-1.608904,7.659912,168.884277,-77.178955,33.328125
59320,-13.192051,3.552995,1.455675,5.767822,145.141602,-108.795166,33.367188
59360,-15.614984,5.152322,1.460463,245.452881,20.202637,-114.807129,33.353516
59400,-13.852851,2.834735,0.320823,-12.390137,101.684570,-135.192871,33.351562
59440,-9.696517,0.009577,0.656011,-97.564697,112.213135,-87.249756,33.347656
59480,-5.702989,1.977611,1.259350,-122.497559,56.884766,-80.688477,33.361328
59520,-4.941632,1.484405,1.216254,-130.920410,30.761719,-56.365967,33.351562
59560,-4.960786,2.542642,0.636858,-93.872070,9.124756,-28.411865,33.371094
59600,-4.065354,4.534618,-0.565032,-72.601318,-15.716553,16.113281,33.353516
59640,-5.851429,2.614468,-3.016694,1.434326,-38.604736,27.679443,33.351562
59680,-12.636597,-4.242526,-9.591172,41.931152,18.951416,-33.020020,33.373047
59720,-15.365987,-9.490616,-9.706094,-73.303223,69.885254,-36.254883,33.376953
59760,-8.863335,-3.816358,-5.200206,-31.799316,-65.521240,-2.868652,33.367188
59800,-9.294291,1.704672,0.004788,67.474365,-126.007080,44.708252,33.359375
59840,-13.508086,3.476381,-1.019930,55.480957,-31.066895,9.277344,33.363281
59880,-5.516241,5.540183,1.273715,108.001709,-87.127686,98.114014,33.365234
59920,-8.456321,5.391742,3.471592,119.781494,-183.776855,105.682373,33.361328
59960,-11.314998,1.810017,2.284068,-7.385254,-67.077637,107.238770,33.378906
60000,-11.089942,-0.928950,0.804452,3.417969,-74.554443,92.895508,33.388672
60040,-9.706094,0.234632,-0.569820,-76.843262,-60.852051,70.983887,33.373047
60080,-8.384495,0.646434,0.043096,-101.379395,-19.073486,46.783447,33.378906
60120,-8.604761,-0.660800,0.914585,-23.101807,-54.138184,4.760742,33.373047
60160,-9.217676,0.306458,0.526724,37.658691,-82.916260,-3.082275,33.386719
60200,-8.623915,1.647211,0.311246,-0.762939,-55.908203,14.648438,33.375000
60240,-8.978256,1.489193,0.962469,57.098389,-24.841309,10.253906,33.367188
60280,-10.668563,1.355118,2.078167,50.262451,-65.277100,9.643555,33.380859
60320,-11.903971,1.115698,0.464475,48.980713,-1.922607,17.700195,33.367188
60360,-13.493721,-0.550666,-0.895431,31.890869,84.014893,-14.404297,33.367188
60400,-13.541605,-0.507571,-1.570596,80.780029,126.190186,-71.105957,33.402344
60440,-12.129025,1.900996,-0.258574,44.586182,165.985107,-104.125977,33.419922
60480,-13.397953,4.888960,1.412579,94.238281,105.621338,-120.941162,33.433594
60520,-15.471332,4.668694,0.100556,217.468262,34.820557,-132.965088,33.419922
60560,-12.890382,0.416591,-0.004788,-45.440674,132.751465,-98.266602,33.455078
60600,-8.441956,0.440533,1.240196,-84.930420,96.893311,-86.700439,33.449219
60640,-4.802769,1.651999,1.546654,-112.915039,50.323486,-80.932617,33.449219
60680,-4.443638,1.029507,0.876278,-108.947754,17.608643,-49.743652,33.425781
60720,-3.519476,3.126827,0.555455,-97.686768,-4.699707,-12.878418,33.425781
60760,-3.256114,4.189853,-0.823605,-40.222168,-60.333252,29.571533,33.421875
60800,-8.097190,0.229843,-6.009446,-13.610840,-26.641846,34.576416,33.443359
60840,-18.124107,-10.601525,-12.425907,-23.895264,69.244385,-55.389404,33.439453
60880,-11.003751,-7.603985,-7.608773,-96.160889,2.258301,-24.719238,33.443359
60920,-7.307104,0.023942,2.590526,117.218018,-201.782227,77.850342,33.443359
60960,-17.539921,5.616797,-1.824382,91.400146,-13.092041,0.030518,33.449219
61000,-5.621585,6.933608,0.651223,20.874023,-64.971924,76.110840,33.439453
61040,-6.732495,7.551312,4.232949,80.322266,-178.924561,134.124756,33.449219
61080,-11.731588,3.596091,3.165135,42.083740,-125.885010,91.033936,33.455078
61120,-11.228806,-2.193089,1.651999,44.250488,-72.052002,102.081299,33.447266
61160,-9.495404,-1.082179,-0.205901,-29.541016,-55.877686,72.143555,33.447266
61200,-8.561666,0.339977,-0.536301,-153.045654,-18.981934,62.408447,33.431641
61240,-8.643068,-0.675165,0.555455,-35.797119,-60.760498,12.481689,33.464844
61280,-9.002198,-0.244209,0.775721,48.706055,-78.033447,-16.571045,33.441406
61320,-9.045294,2.054225,0.646434,0.396729,-77.514648,5.737305,33.447266
61360,-10.687716,2.949656,1.091756,52.093506,-27.313232,22.033691,33.447266
61400,-12.076353,0.301669,0.809240,36.895752,0.823975,28.656006,33.453125
61440,-13.603854,-1.771709,-0.167594,-7.141113,89.721680,-17.578125,33.457031
61480,-13.771448,-2.006341,-1.173159,30.944824,142.761230,-88.165283,33.443359
61520,-13.038822,1.991976,-0.818817,22.857666,182.952881,-115.325928,33.439453
61560,-15.495274,6.804321,1.699883,92.010498,113.433838,-127.563477,33.460938
61600,-16.017210,6.210559,0.019154,85.327148,104.644775,-138.702393,33.447266
61640,-12.100295,0.488417,0.497994,-41.381836,136.108398,-124.755859,33.445312
61680,-6.746861,1.000776,1.642422,-57.617188,90.942383,-89.477539,33.472656
61720,-4.074931,1.388637,1.685518,-116.180420,77.606201,-84.838867,33.464844
61760,-4.180276,0.943315,1.383849,-101.348877,29.052734,-61.340332,33.474609
61800,-3.236961,2.983175,1.450886,-116.851807,20.904541,0.305176,33.447266
61840,-3.629610,3.284845,-1.455675,-37.200928,-77.026367,36.773682,33.457031
61880,-10.366894,-2.509123,-10.074800,49.072266,-44.219971,4.699707,33.455078
61920,-16.539145,-9.710882,-11.913548,-81.787109,42.083740,-32.135010,33.443359
61960,-9.504981,-3.955221,-7.082048,-74.310303,-37.139893,-14.404297,33.453125
62000,-7.096414,0.330400,1.723825,162.261963,-225.341797,68.725586,33.466797
62040,-17.238253,4.467580,-2.849100,121.368408,6.622314,4.150391,33.470703
62080,-6.660669,7.120356,0.172383,5.584717,-59.967041,70.861816,33.472656
62120,-6.277597,5.453991,4.525041,38.604736,-184.570312,139.221191,33.464844
62160,-12.181698,1.403002,4.232949,9.887695,-118.988037,107.757568,33.482422
62200,-11.492168,-1.795651,1.345541,72.753906,-77.148438,92.834473,33.488281
62240,-8.662222,0.258574,-0.603339,-11.840820,-76.354980,66.162109,33.478516
62280,-7.795521,1.019930,-0.363919,-136.718750,-24.841309,47.454834,33.492188
62320,-8.729259,-0.359130,0.842759,-26.336670,-68.359375,6.347656,33.480469
62360,-9.222465,0.378284,0.952892,8.880615,-84.686279,11.383057,33.486328
62400,-9.184157,1.197101,0.478840,20.965576,-66.619873,10.986328,33.488281
62440,-10.769119,1.632846,0.842759,106.781006,-31.799316,-7.995605,33.523438
62480,-11.559206,1.034295,1.292869,43.701172,-21.331787,14.739990,33.523438
62520,-12.899959,-0.258574,0.306458,15.472412,61.187744,-11.718750,33.527344
62560,-13.843274,-1.508347,-1.005565,47.424316,118.652344,-76.568604,33.544922
62600,-13.129802,1.000776,-1.144428,15.991211,175.384521,-108.306885,33.550781
62640,-14.556746,5.664681,1.695095,63.964844,122.009277,-126.098633,33.535156
62680,-16.357185,6.550536,0.181959,229.919434,83.740234,-149.353027,33.554688
62720,-13.541605,1.810017,0.296881,-84.747314,152.923584,-117.767334,33.546875
62760,-7.809886,0.229843,1.221043,-57.312012,97.991943,-82.550049,33.541016
62800,-4.199430,1.450886,1.680730,-100.738525,79.376221,-84.808350,33.544922
62840,-3.907337,1.043872,1.201889,-99.121094,38.696289,-76.873779,33.546875
62880,-3.600879,2.341529,1.091756,-119.506836,26.428223,-12.359619,33.537109
62920,-3.749320,3.404555,-1.283292,-48.889160,-54.290771,38.787842,33.556641
62960,-8.288726,-0.100556,-7.752425,29.907227,-40.405273,17.791748,33.560547
63000,-17.176003,-9.447520,-12.440272,-59.631348,91.278076,-51.666260,33.529297
63040,-10.333375,-4.999093,-8.250419,-122.009277,13.000488,-25.512695,33.574219
63080,-6.157887,-1.781286,-0.450110,148.956299,-222.839355,32.287598,33.554688
63120,-14.791378,3.505111,-2.738967,8.331299,-22.033691,12.268066,33.541016
63160,-8.810662,5.286397,0.392649,96.832275,-67.138672,60.211182,33.525391
63200,-7.091625,5.947197,3.232172,139.404297,-181.610107,143.249512,33.537109
63240,-10.453085,3.275268,3.189077,19.317627,-105.010986,106.353760,33.562500
63280,-11.343728,-1.292869,1.877054,4.821777,-68.023682,91.461182,33.541016
63320,-9.950302,-0.675165,0.100556,-24.414062,-76.812744,109.466553,33.570312
63360,-8.781932,1.077391,-0.627281,-124.755859,-23.986816,68.145752,33.556641
63400,-8.336611,-0.253785,0.943315,-66.986084,-44.952393,32.470703,33.566406
63440,-9.112331,-0.205901,0.972046,7.202148,-91.003418,19.836426,33.568359
