MS,Accel X (m/s²),Accel Y (m/s²),Accel Z (m/s²),Gyro X (°/s),Gyro Y (°/s),Gyro Z (°/s),Temp (°C)
2480,6.952762,1.814805,-1.948880,-32.073975,21.087646,-3.479004,27.255859
2520,7.513005,1.493982,-2.126051,-10.314941,9.826660,-3.906250,27.269531
2560,8.331821,1.254562,-1.359907,17.547607,-8.575439,-3.173828,27.257812
2600,9.279925,1.039083,-0.311246,30.364990,5.065918,3.143311,27.259766
2640,10.477027,1.470040,-0.727837,18.890381,25.726318,9.429932,27.257812
2680,11.841722,2.111686,-1.403002,22.277832,34.240723,-0.183105,27.275391
2720,12.794614,0.794875,-1.278504,7.873535,81.481934,10.223389,27.267578
2760,11.856087,2.614468,-4.788404,11.474609,-23.651123,8.880615,27.271484
2800,9.414001,2.777274,-5.841852,57.952881,0.549316,-3.875732,27.292969
2840,8.178593,1.221043,-6.023811,118.743896,-27.984619,-14.343262,27.291016
2880,8.757990,0.651223,-5.564125,88.531494,-20.263672,-8.514404,27.263672
2920,8.422802,0.809240,-3.514688,47.332764,-16.204834,-5.401611,27.291016
2960,7.426814,0.924162,-2.494758,34.210205,-11.840820,-6.652832,27.263672
3000,7.153875,1.029507,-2.987964,34.362793,-14.404297,-11.413574,27.281250
3040,7.690176,1.024718,-3.213019,37.139893,-15.045166,-14.709473,27.283203
3080,8.647857,0.670376,-2.628834,24.383545,-8.605957,-14.282227,27.281250
3120,9.299079,0.253785,-1.958457,14.251709,0.488281,-12.390137,27.269531
3160,9.198523,0.277727,-2.346318,0.640869,4.974365,-5.493164,27.296875
3200,9.433155,0.565032,-2.700660,-8.941650,13.885498,2.655029,27.294922
3240,10.443508,-0.407014,-2.437297,2.655029,11.810303,2.441406,27.283203
3280,11.166556,-1.312023,-2.279280,-4.852295,14.343262,6.378174,27.273438
3320,11.496957,-0.814029,-3.303998,-4.425049,13.031006,11.016846,27.261719
3360,11.104307,0.296881,-4.132392,0.366211,12.298584,7.690430,27.308594
3400,9.519346,1.546654,-4.467580,-12.023926,-1.495361,0.030518,27.298828
3440,8.542512,4.237737,-3.988740,-24.414062,-6.011963,-8.636475,27.267578
3480,8.868123,5.631162,-2.877831,-7.873535,1.373291,-13.000488,27.296875
3520,9.591172,3.165135,-3.174711,11.260986,2.960205,-18.188477,27.296875
3560,9.284714,0.502782,-2.633622,-25.756836,17.517090,-8.819580,27.306641
3600,8.078036,1.072602,-1.541866,-35.552979,13.519287,-6.622314,27.300781
3640,7.374141,2.145205,-1.728614,-12.207031,16.815186,-4.882812,27.310547
3680,7.680599,2.020706,-1.838747,-4.547119,15.899658,-3.417969,27.300781
3720,8.169016,1.623269,-1.043872,9.429932,-14.282227,3.845215,27.306641
3760,8.662222,1.221043,-0.699107,15.014648,-19.927979,10.162354,27.296875
3800,9.236830,1.407791,-0.823605,14.678955,-4.638672,11.566162,27.322266
3840,10.156203,1.915361,-1.508347,1.037598,4.730225,11.383057,27.300781
3880,11.899182,1.331176,-0.349553,40.557861,27.282715,0.518799,27.306641
3920,13.125013,0.474052,-0.047884,-0.061035,44.677734,15.167236,27.306641
3960,11.894394,3.284845,-3.198653,-13.000488,-20.141602,14.617920,27.300781
4000,8.868123,4.716578,-4.338294,20.263672,-16.632080,-0.885010,27.306641
4040,7.656657,2.777274,-4.175488,6.164551,3.601074,-0.946045,27.298828
4080,9.265560,1.273715,-5.430049,24.688721,-16.723633,7.080078,27.310547
4120,9.974244,1.383849,-3.438074,-31.768799,-17.944336,19.805908,27.333984
4160,8.446744,1.723825,-1.235408,-31.860352,-14.587402,16.937256,27.312500
4200,6.833052,1.288081,-2.456451,-38.574219,-21.209717,10.986328,27.328125
4240,7.302315,1.101333,-2.523489,-33.813477,-22.796631,7.110596,27.332031
4280,8.518570,0.948104,-1.910573,-36.010742,-21.453857,4.821777,27.320312
4320,9.150639,0.497994,-1.709460,-33.935547,-18.981934,2.258301,27.304688
4360,9.217676,0.569820,-1.723825,-35.797119,-8.911133,7.049561,27.320312
4400,9.902418,0.972046,-1.795651,-40.130615,3.936768,17.303467,27.326172
4440,11.037270,0.229843,-1.752556,-48.583984,1.800537,21.820068,27.416016
4480,11.559206,-0.263362,-1.618480,-51.208496,-5.065918,22.216797,27.396484
4520,12.387600,0.541090,-1.714248,-76.660156,23.071289,28.930664,27.408203
4560,11.382035,1.939303,-3.404555,-67.779541,29.693604,15.930176,27.410156
4600,8.470686,3.059790,-5.985504,-24.291992,-34.271240,-8.361816,27.408203
4640,8.599973,5.295974,-5.817910,-54.565430,-36.529541,-0.152588,27.412109
4680,10.371682,4.989516,-1.833959,-61.737061,3.143311,-4.577637,27.384766
4720,9.572019,1.747767,-1.661576,-56.732178,5.889893,-5.065918,27.421875
4760,7.369353,0.675165,-2.542642,-90.393066,19.500732,0.610352,27.427734
4800,6.253655,1.350330,-2.116474,-68.084717,18.493652,0.427246,27.423828
4840,6.804321,1.503559,-1.829170,-71.472168,19.622803,1.068115,27.412109
4880,7.800309,2.035071,-0.986411,-42.175293,-3.570557,2.014160,27.406250
4920,8.786720,1.699883,0.105345,-10.925293,-44.372559,13.153076,27.417969
4960,10.156203,1.024718,0.095768,1.983643,-34.149170,16.448975,27.417969
5000,11.635820,1.082179,-0.957681,-26.214600,0.061035,18.737793,27.419922
5040,12.741941,1.537078,-0.368707,14.251709,34.301758,4.516602,27.410156
5080,13.441049,1.498770,-0.225055,-18.768311,34.179688,6.134033,27.417969
5120,11.233594,4.185065,-2.896984,-37.078857,-20.477295,9.552002,27.433594
5160,7.934384,5.032612,-4.041412,-15.136719,-31.616211,3.479004,27.417969
5200,7.934384,3.529053,-4.367024,3.662109,-11.505127,11.047363,27.431641
5240,9.179369,2.092532,-5.161899,32.348633,-39.764404,16.143799,27.437500
5280,9.442732,1.661576,-3.016694,-53.985596,-16.448975,19.897461,27.437500
5320,7.776367,1.762132,-1.077391,-39.123535,-13.031006,16.204834,27.427734
5360,6.397307,1.493982,-2.829947,-41.717529,-24.108887,11.260986,27.451172
5400,7.412448,1.244985,-2.561796,-46.844482,-22.155762,8.728027,27.443359
5440,8.848969,1.091756,-1.719037,-38.299561,-20.751953,4.547119,27.437500
5480,9.006987,0.675165,-1.752556,-27.099609,-18.554688,1.464844,27.443359
5520,9.054871,0.608127,-2.240973,-31.555176,-12.786865,10.040283,27.435547
5560,10.644621,0.679953,-1.805228,-39.428711,3.723145,21.301270,27.441406
5600,12.368446,0.153229,-2.288857,-36.468506,-2.166748,23.681641,27.431641
5640,13.283031,1.398214,-2.652776,-74.340820,13.763428,27.923584,27.455078
5680,11.942278,3.002329,-2.896984,-92.773438,18.096924,16.174316,27.447266
5720,8.221688,4.314352,-5.899313,-43.121338,-36.926270,-11.047363,27.466797
5760,7.393295,6.296751,-5.798757,-59.051514,-20.629883,-13.732910,27.458984
5800,9.255983,5.200206,-2.212242,-78.521729,-3.875732,-6.835938,27.447266
5840,9.212888,1.968034,-1.944092,-77.392578,5.493164,-1.281738,27.439453
5880,7.335834,0.440533,-2.844312,-113.006592,52.795410,1.892090,27.441406
5920,6.248867,0.962469,-1.441309,-94.604492,61.859131,-12.451172,27.431641
5960,6.258443,1.805228,-0.478840,-47.424316,-18.829346,-12.084961,27.447266
6000,7.407660,2.422932,0.100556,-15.899658,-31.066895,8.819580,27.466797
6040,9.476251,1.810017,0.665588,4.730225,-9.643555,15.930176,27.466797
6080,12.076353,2.097321,-0.191536,-30.395508,15.258789,6.835938,27.453125
6120,13.934254,3.610456,0.349553,-18.127441,15.777588,-11.047363,27.464844
6160,14.987702,2.992752,0.349553,-20.538330,47.851562,-35.095215,27.476562
6200,11.784261,4.568137,-1.321599,-27.893066,4.364014,-9.490967,27.443359
6240,6.397307,5.535394,-2.887407,-51.666260,-82.153320,22.094727,27.462891
6280,7.474698,4.438850,-5.051765,2.777100,-11.260986,29.510498,27.472656
6320,8.413225,3.198653,-4.941632,34.881592,-78.857422,53.649902,27.462891
6360,9.308656,2.308010,-3.950433,51.483154,-14.068604,11.199951,27.478516
6400,7.718906,0.909797,-1.924938,13.366699,-5.981445,12.786865,27.478516
6440,6.019023,0.656011,-2.542642,6.958008,-18.280029,2.746582,27.552734
6480,6.454768,1.043872,-2.351106,-4.028320,-5.218506,-1.434326,27.546875
6520,7.915231,1.048660,-1.527501,3.082275,-7.568359,-4.211426,27.544922
6560,8.609550,0.584185,-1.580173,1.678467,-5.798340,-2.014160,27.542969
6600,9.251195,1.029507,-2.647987,6.530762,0.762939,3.692627,27.554688
6640,11.899182,1.144428,-1.829170,9.460449,20.019531,17.639160,27.568359
6680,13.690045,-0.392649,-2.221819,-5.706787,5.798340,16.571045,27.562500
6720,13.838486,0.517148,-3.327940,-37.170410,23.925781,18.127441,27.562500
6760,11.176133,1.872266,-3.591303,-45.715332,28.350830,11.474609,27.562500
6800,8.240842,4.199430,-5.655105,-1.495361,-13.854980,-7.904053,27.552734
6840,8.633492,6.066907,-5.166687,14.221191,-8.941650,-10.711670,27.556641
6880,9.471462,4.256891,-2.542642,3.143311,12.145996,-8.666992,27.556641
6920,8.384495,1.235408,-1.417367,-16.296387,32.196045,-0.701904,27.574219
6960,6.320693,0.464475,-1.642422,-47.271729,29.388428,2.716064,27.568359
7000,5.114015,1.230620,-1.814805,-25.024414,35.858154,-3.234863,27.562500
7040,6.148310,1.489193,-1.671153,-1.617432,37.567139,-11.657715,27.570312
7080,7.608773,1.642422,-0.220267,23.681641,-5.950928,1.129150,27.572266
7120,9.188946,1.359907,0.392649,38.116455,-21.820068,9.979248,27.572266
7160,11.449073,1.642422,-0.459687,6.072998,8.636475,2.655029,27.574219
7200,13.737929,2.494758,-0.330400,18.341064,23.468018,-13.702393,27.583984
7240,15.375564,1.350330,0.339977,0.457764,79.681396,-30.822754,27.574219
7280,13.005303,3.342306,-1.762132,-8.514404,31.463623,-25.177002,27.578125
7320,7.115568,5.238513,-3.289633,-18.066406,-66.009521,10.375977,27.583984
7360,7.685388,3.897760,-4.515464,22.949219,25.207520,8.758545,27.593750
7400,8.872911,2.489970,-5.003881,49.438477,-52.551270,32.775879,27.578125
7440,9.643845,2.212242,-2.834735,46.081543,-13.366699,10.192871,27.582031
7480,8.039729,1.120486,0.148441,2.563477,-10.375977,12.451172,27.591797
7520,6.282385,0.665588,-1.647211,-1.831055,-30.456543,0.854492,27.583984
7560,6.665458,0.507571,-1.417367,-3.509521,-16.357422,-4.913330,27.582031
7600,8.212111,0.660800,-0.521936,0.488281,-12.969971,-5.249023,27.582031
7640,8.954314,0.272939,-0.703895,13.397217,-12.390137,-3.173828,27.587891
7680,9.504981,0.651223,-1.618480,8.392334,-9.826660,4.699707,27.589844
7720,11.784261,1.211466,-0.675165,-10.375977,5.310059,17.150879,27.587891
7760,13.158532,-0.349553,-0.737414,-17.517090,3.814697,17.486572,27.595703
7800,12.713211,-0.665588,-0.612916,-49.652100,21.820068,26.092529,27.611328
7840,10.376471,1.939303,-3.083732,-66.223145,79.315186,21.972656,27.615234
7880,8.178593,4.553771,-6.679823,36.437988,-31.646729,-15.716553,27.603516
7920,10.515334,5.185841,-6.473921,39.428711,-35.888672,-15.838623,27.607422
7960,12.220005,3.481169,-2.135628,-39.428711,16.815186,-5.584717,27.611328
8000,9.811439,1.206678,0.488417,-53.527832,50.994873,-8.422852,27.603516
8040,6.105214,1.249773,-1.628057,-61.218262,22.277832,-21.820068,27.605469
8080,4.529830,1.470040,-2.944868,-14.404297,32.958984,-17.456055,27.591797
8120,5.597643,1.283292,-1.857901,-0.488281,22.796631,-29.876709,27.583984
8160,7.268796,1.786075,1.010353,35.583496,-6.927490,-12.847900,27.587891
8200,9.806650,1.446098,1.795651,60.455322,1.556396,5.462646,27.628906
8240,12.976573,0.651223,-0.057461,15.960693,16.174316,-0.061035,27.603516
8280,14.006080,1.824382,0.603339,26.184082,18.768311,-1.434326,27.603516
8320,14.523228,2.106898,1.134852,14.709473,29.724121,-16.540527,27.621094
8360,11.980585,3.744531,-1.412579,-17.181396,0.274658,-9.277344,27.626953
8400,7.493851,4.678270,-3.442862,-9.368896,-52.978516,10.009766,27.699219
8440,8.073248,3.734955,-3.878607,42.053223,16.906738,12.908936,27.701172
8480,9.648633,2.030283,-4.285621,71.533203,-44.708252,25.543213,27.705078
8520,9.662998,1.886631,-3.169923,46.600342,-19.409180,3.906250,27.707031
8560,7.800309,1.383849,-0.191536,12.451172,1.831055,13.854980,27.695312
8600,5.889736,1.010353,-1.331176,14.892578,-24.108887,4.608154,27.712891
8640,6.028600,0.981623,-1.580173,8.972168,-21.728516,-3.601074,27.703125
8680,7.647080,1.110910,-0.421380,6.469727,-15.228271,-3.906250,27.695312
8720,8.963891,0.703895,-0.675165,6.439209,-10.437012,-1.861572,27.693359
8760,9.739613,0.627281,-1.493982,11.077881,-10.131836,3.723145,27.687500
8800,11.654974,0.507571,-0.670376,-23.071289,3.845215,14.953613,27.710938
8840,12.966996,-0.679953,-0.924162,-14.862061,-20.965576,18.127441,27.736328
8880,13.800179,0.186748,-0.938527,-55.755615,28.198242,27.252197,27.712891
8920,10.879252,2.044648,-3.064578,-50.231934,67.047119,16.693115,27.718750
8960,7.833828,3.778050,-6.502652,26.672363,-38.879395,-9.643555,27.695312
9000,9.916783,5.137957,-5.861006,3.051758,-31.280518,-5.035400,27.724609
9040,11.496957,4.007894,-1.168370,-37.414551,9.338379,-5.584717,27.712891
9080,9.265560,1.077391,0.014365,-24.902344,31.677246,-7.812500,27.728516
9120,6.110003,0.445322,-1.738190,-65.399170,24.505615,-11.840820,27.726562
9160,5.123591,1.206678,-1.910573,-32.806396,32.623291,-15.716553,27.716797
9200,6.162675,1.446098,-0.914585,0.030518,18.402100,-22.827148,27.716797
9240,7.560889,1.460463,0.550666,36.163330,-11.199951,-6.652832,27.718750
9280,10.141838,0.651223,1.369483,56.610107,-1.953125,5.218506,27.701172
9320,13.053187,0.967257,0.047884,-1.861572,15.625000,-2.136230,27.722656
9360,14.925453,2.877831,0.627281,6.530762,34.179688,-36.712646,27.738281
9400,15.538369,3.145981,-1.024718,-29.937744,56.396484,-62.408447,27.738281
9440,8.786720,4.620809,-1.987187,-36.773682,-60.333252,14.862061,27.720703
9480,8.288726,4.410120,-4.764462,25.787354,22.277832,3.295898,27.736328
9520,8.954314,2.676718,-4.807557,47.607422,-21.881104,52.215576,27.734375
9560,9.658210,2.059013,-3.160346,81.970215,-15.838623,19.561768,27.746094
9600,8.054094,1.015141,-0.162806,33.843994,-3.906250,8.758545,27.736328
9640,6.090849,0.636858,-0.928950,15.594482,-27.435303,7.568359,27.738281
9680,5.583278,0.914585,-1.781286,24.383545,-25.268555,-9.246826,27.753906
9720,7.053318,1.101333,0.181959,24.505615,-12.420654,-9.765625,27.714844
9760,8.690952,0.392649,-0.541090,17.120361,-12.695312,-3.326416,27.748047
9800,10.405201,0.450110,-1.273715,14.251709,-13.671875,3.631592,27.748047
9840,12.421119,0.177171,-0.268151,-26.336670,-0.335693,20.355225,27.736328
9880,13.364434,-0.512359,-1.201889,-26.367188,-8.026123,24.902344,27.746094
9920,13.608643,0.876278,-2.202666,-57.769775,45.349121,27.465820,27.755859
9960,10.443508,2.743755,-4.539406,-6.927490,7.202148,6.439209,27.750000
10000,9.174581,4.606444,-5.717354,-15.472412,-32.775879,0.030518,27.738281
10040,10.448297,5.564125,-2.863465,-6.530762,24.047852,-11.016846,27.755859
10080,9.854534,3.308787,-0.972046,8.331299,22.613525,-16.082764,27.750000
10120,7.838616,0.450110,-1.000776,-57.586670,36.010742,-10.437012,27.730469
10160,5.650316,0.526724,-1.268927,-56.884766,29.388428,-17.395020,27.755859
10200,5.204995,1.628057,-0.708684,-5.584717,27.954102,-11.596680,27.763672
10240,6.636727,1.604115,-0.100556,25.421143,-9.582520,-8.697510,27.759766
10280,8.489840,1.292869,1.120486,51.513672,-7.232666,8.972168,27.746094
10320,11.262324,0.751779,1.010353,25.451660,13.702393,9.460449,27.775391
10360,13.766660,2.149993,0.430956,2.838135,0.549316,-10.803223,27.748047
10400,14.226347,1.833959,3.011906,19.195557,61.523438,-10.620117,27.822266
10440,13.407530,2.753332,-0.296881,-43.640137,33.264160,-20.050049,27.830078
10480,8.829816,5.396531,-3.098097,-24.322510,-77.117920,2.868652,27.820312
10520,8.700529,4.802769,-3.892972,19.287109,11.169434,2.075195,27.833984
10560,9.452309,2.504335,-3.983952,35.400391,-55.236816,35.308838,27.832031
10600,9.327810,1.800440,-4.347870,69.091797,-28.045654,11.444092,27.843750
10640,7.781156,1.244985,-0.383072,-16.693115,2.075195,10.772705,27.849609
10680,6.100426,1.278504,0.014365,2.441406,-29.907227,5.096436,27.826172
10720,6.023811,0.459687,-1.230620,-2.990723,-21.362305,-7.781982,27.839844
10760,7.733272,0.464475,-0.598550,9.552002,-21.270752,-11.993408,27.845703
10800,9.193734,0.148441,-0.287304,18.707275,-19.927979,-10.253906,27.869141
10840,9.883265,0.545878,-1.101333,5.920410,-12.817383,-1.434326,27.830078
10880,11.985373,1.182736,-0.359130,-21.850586,-1.586914,12.786865,27.818359
10920,13.517663,0.028730,-0.665588,-14.709473,-12.054443,16.143799,27.855469
10960,13.862428,0.809240,-1.000776,-56.732178,21.423340,18.341064,27.845703
11000,11.540052,2.149993,-2.351106,-70.190430,50.445557,9.307861,27.849609
11040,8.599973,3.610456,-5.851429,18.768311,-40.222168,-9.399414,27.849609
11080,9.428367,5.243302,-6.090849,16.479492,-18.157959,-18.798828,27.851562
11120,10.223241,4.089296,-1.412579,6.866455,29.724121,-20.843506,27.857422
11160,8.513782,1.187524,0.565032,-28.106689,43.579102,-14.068604,27.841797
11200,6.200983,0.641646,-1.039083,-46.783447,15.197754,-22.674561,27.857422
11240,5.272032,1.561020,-1.719037,-19.439697,35.491943,-17.974854,27.853516
11280,6.210559,2.006341,-0.545878,5.950928,4.821777,-10.467529,27.835938
11320,8.001422,1.766921,0.450110,32.989502,-13.763428,2.319336,27.849609
11360,9.983821,1.307234,1.575385,46.142578,3.631592,9.704590,27.853516
11400,12.670115,1.379060,0.301669,-6.469727,12.847900,8.209229,27.839844
11440,14.149732,1.982399,1.704672,27.587891,36.865234,-2.502441,27.859375
11480,13.962984,1.407791,2.202666,-24.719238,81.573486,-6.713867,27.845703
11520,10.146626,4.874595,-2.504335,-24.658203,-43.914795,4.272461,27.871094
11560,8.911219,5.904101,-4.783615,14.587402,-26.763916,4.089355,27.873047
11600,9.768343,3.251326,-3.428497,31.677246,-26.184082,34.149170,27.857422
11640,9.629479,1.364695,-4.826711,105.377197,-49.835205,19.927979,27.888672
11680,7.829040,1.010353,-2.595315,-19.683838,-6.408691,8.300781,27.857422
11720,5.918467,1.474828,0.440533,0.335693,-16.815186,9.063721,27.882812
11760,5.492299,1.034295,-0.972046,-1.586914,-24.078369,-3.356934,27.867188
11800,7.125144,0.632069,-0.890643,2.532959,-19.439697,-8.789062,27.878906
11840,9.255983,0.454898,-0.545878,13.366699,-23.437500,-10.253906,27.865234
11880,10.141838,0.497994,-0.766145,10.559082,-13.702393,-1.159668,27.865234
11920,12.009315,1.288081,-0.148441,-17.242432,3.021240,8.819580,27.867188
11960,13.503298,0.086191,-0.335188,-16.204834,-0.915527,14.831543,27.853516
12000,13.350069,-0.038307,0.148441,-58.227539,-0.457764,16.754150,27.857422
12040,10.979809,2.068590,-2.537854,-59.478760,72.998047,14.556885,27.876953
12080,8.384495,3.691859,-6.081272,43.853760,-24.444580,-10.711670,27.876953
12120,10.175357,4.084508,-6.296751,37.628174,-26.214600,-9.826660,27.873047
12160,11.683704,3.414132,-2.935291,-16.021729,14.709473,-6.958008,27.884766
12200,9.275137,1.302446,0.392649,-28.289795,65.521240,-11.199951,27.882812
12240,5.942409,0.924162,-0.474052,-15.563965,29.083252,-17.974854,27.876953
12280,4.764462,1.086968,-2.303222,-12.603760,25.054932,-17.913818,27.910156
12320,5.477933,1.278504,-1.632846,-9.338379,18.402100,-13.031006,27.867188
12360,7.599196,1.417367,0.454898,35.552979,-9.460449,-0.305176,27.962891
12400,10.156203,1.335965,1.637634,53.161621,-0.823975,15.991211,27.947266
12440,12.401965,0.957681,0.430956,-2.563477,2.777100,8.728027,27.964844
12480,14.068329,1.532289,1.637634,46.173096,30.761719,-2.563477,27.925781
12520,14.369999,0.014365,2.748544,-7.171631,90.881348,2.227783,27.951172
12560,10.965444,3.624821,-3.016694,-37.078857,-47.424316,2.502441,27.964844
12600,8.944737,5.501875,-5.200206,40.557861,-4.791260,-17.639160,27.943359
12640,9.595961,2.705448,-2.700660,57.556152,-7.781982,20.507812,27.951172
12680,9.926360,0.627281,-4.908113,85.510254,-61.706543,9.124756,27.968750
12720,8.350976,1.000776,-2.643199,3.295898,-22.796631,1.831055,27.941406
12760,6.617573,1.268927,0.555455,12.664795,-17.181396,2.807617,27.935547
12800,5.731719,0.780510,-0.909797,14.068604,-38.726807,-10.345459,27.953125
12840,6.971915,1.130063,-0.847547,5.493164,-18.981934,-11.077881,27.960938
12880,8.623915,0.809240,-0.407014,8.453369,-15.991211,-12.878418,27.945312
12920,9.433155,0.301669,-0.957681,7.904053,-15.350342,-6.835938,27.955078
12960,11.659762,0.861913,-0.512359,-14.923096,7.080078,8.178711,27.964844
13000,13.651738,-0.244209,-0.636858,-14.404297,-6.225586,15.014648,27.968750
13040,14.183250,0.311246,-1.331176,-47.882080,21.453857,19.683838,27.951172
13080,11.674128,1.733402,-2.700660,-42.938232,46.508789,10.772705,27.974609
13120,8.791509,3.442862,-5.841852,37.261963,-32.562256,-6.683350,27.958984
13160,9.337387,5.789180,-6.287174,10.589600,-25.238037,-12.725830,27.957031
13200,10.146626,4.836287,-2.250550,-5.310059,10.864258,-15.869141,27.982422
13240,8.877700,0.976834,0.263362,-8.758545,35.186768,-15.228271,27.980469
13280,6.603208,0.205901,-1.125275,-55.938721,28.686523,-20.690918,27.947266
13320,5.310339,1.350330,-1.340753,-42.694092,55.511475,-19.042969,27.972656
13360,5.784391,1.987187,-0.421380,4.486084,4.791260,-11.199951,27.960938
13400,7.522582,1.537078,0.301669,23.071289,-16.143799,0.610352,27.976562
13440,9.639056,1.029507,1.259350,25.756836,-2.502441,12.115479,27.957031
13480,12.674904,1.335965,0.569820,-7.171631,9.643555,7.598877,27.970703
13520,14.235924,1.656788,1.733402,28.808594,28.625488,3.356934,27.970703
13560,14.528016,0.656011,2.408567,-6.439209,88.439941,-2.746582,27.945312
13600,11.056423,4.199430,-2.437297,-46.844482,-40.069580,-22.766113,27.984375
13640,7.929596,6.248867,-4.544195,16.571045,-7.812500,11.901855,27.980469
13680,9.504981,3.457227,-2.652776,42.602539,4.943848,40.069580,27.970703
13720,10.055647,0.981623,-4.817134,108.337402,-66.528320,21.942139,27.976562
13760,8.461109,1.134852,-3.184288,-3.753662,-17.791748,2.685547,27.980469
13800,6.493075,1.685518,0.593762,22.155762,-15.289307,3.387451,27.984375
13840,5.559336,1.091756,-0.885855,9.277344,-33.050537,-7.232666,27.988281
13880,6.655881,0.766145,-0.790087,7.141113,-23.254395,-9.979248,27.980469
13920,8.566454,0.593762,-0.287304,22.430420,-27.313232,-11.077881,27.968750
13960,10.012551,0.306458,-0.962469,9.460449,-20.843506,-0.976562,28.000000
14000,12.220005,0.761356,-0.320823,-4.241943,2.807617,17.211914,27.992188
14040,13.661315,-0.095768,-0.363919,-34.729004,3.448486,25.024414,27.986328
14080,13.335704,0.881066,-1.063026,-68.725586,35.064697,23.559570,28.013672
14120,10.783484,2.959233,-3.332729,-38.665771,34.667969,10.253906,27.994141
14160,9.504981,4.831499,-6.177041,-5.432129,-29.846191,-3.662109,28.005859
14200,10.836157,6.708553,-4.362236,-31.066895,2.044678,-8.789062,28.000000
14240,10.266336,4.501099,-0.775721,-9.552002,38.116455,-14.587402,28.007812
14280,7.824251,0.852336,-0.272939,-37.719727,32.257080,-12.664795,27.990234
14320,5.286397,0.296881,-1.417367,-81.054688,14.404297,-17.456055,28.007812
14360,4.376601,1.537078,-1.091756,-25.817871,18.829346,-11.199951,28.048828
14400,6.014235,1.900996,-0.100556,11.077881,-5.401611,-8.422852,28.068359
14440,8.576031,1.335965,1.086968,43.975830,-17.791748,9.124756,28.062500
14480,11.563994,0.584185,1.508347,12.908936,7.659912,17.242432,28.066406
14520,13.857639,2.547431,0.938527,-13.183594,5.157471,0.457764,28.066406
14560,14.920665,2.336741,2.738967,15.686035,71.929932,-13.824463,28.037109
14600,13.800179,3.050213,0.521936,-59.082031,41.320801,-33.752441,28.072266
14640,7.881712,5.104438,-2.327164,-52.307129,-80.810547,13.000488,28.062500
14680,8.552089,4.587290,-4.007894,10.803223,14.953613,18.493652,28.052734
14720,9.490616,2.341529,-4.414908,46.600342,-65.673828,35.980225,28.082031
14760,9.337387,1.829170,-4.261679,75.195312,-28.533936,9.826660,28.058594
14800,8.245630,0.986411,0.177171,-21.087646,-2.563477,13.732910,28.083984
14840,6.473921,0.986411,0.038307,-3.479004,-32.745361,5.645752,28.097656
14880,5.837064,0.928950,-1.331176,-4.608154,-23.284912,-3.997803,28.070312
14920,7.216124,0.967257,-0.416591,11.474609,-25.238037,-8.300781,28.064453
14960,8.829816,0.517148,-0.158017,10.864258,-23.315430,-4.547119,28.076172
15000,10.625467,0.876278,-0.651223,-2.716064,-3.784180,5.157471,28.072266
15040,12.947843,0.430956,-0.153229,-29.571533,-0.213623,21.728516,28.095703
15080,13.939042,-0.220267,-0.746991,-32.470703,-4.974365,22.521973,28.082031
15120,13.354857,1.039083,-1.192312,-80.688477,53.649902,24.200439,28.095703
15160,9.710882,2.288857,-3.256114,-38.970947,22.094727,8.148193,28.087891
15200,8.585608,5.094861,-6.200983,4.516602,-35.766602,-8.819580,28.066406
15240,10.170568,6.445191,-3.749320,2.899170,-5.462646,-19.897461,28.078125
15280,10.429143,3.069367,-0.081403,-20.507812,34.362793,-17.150879,28.107422
15320,8.494628,0.225055,-0.512359,-70.922852,24.108887,-12.603760,28.085938
15360,6.263232,0.818817,-1.216254,-72.357178,39.581299,-14.495850,28.066406
15400,5.501875,1.671153,-0.153229,-9.429932,18.951416,-10.803223,28.078125
15440,6.770802,1.130063,0.086191,24.383545,-13.580322,-6.072998,28.085938
15480,8.293514,0.617704,1.082179,39.520264,-6.378174,9.277344,28.101562
15520,10.682928,0.627281,1.273715,12.695312,26.550293,17.120361,28.101562
15560,13.555970,2.489970,0.957681,4.364014,-0.823975,-5.279541,28.103516
15600,14.963760,1.675941,2.533065,2.532959,90.026855,-11.322021,28.105469
15640,13.110648,3.007117,-0.751779,-32.501221,-6.530762,-6.134033,28.099609
15680,9.380483,4.400543,-3.993528,9.552002,-35.583496,27.740479,28.101562
15720,8.710106,2.547431,-4.501099,43.823242,-19.378662,19.256592,28.099609
15760,8.853758,1.704672,-4.252102,84.136963,-31.555176,27.008057,28.109375
15800,8.858546,1.580173,-2.116474,46.661377,-21.392822,6.103516,28.093750
15840,7.584831,0.799663,0.028730,30.090332,-25.451660,6.011963,28.095703
15880,6.900089,0.617704,-0.981623,5.401611,-27.648926,-0.976562,28.123047
15920,7.230489,0.550666,-1.072602,10.406494,-18.280029,-7.080078,28.111328
15960,8.145074,0.818817,-0.569820,5.920410,-10.101318,-7.110596,28.087891
16000,8.853758,0.143652,-0.612916,9.948730,-10.070801,-11.016846,28.121094
16040,9.619903,-0.675165,-1.024718,3.204346,-9.979248,-6.774902,28.109375
16080,11.238382,-0.679953,-1.134852,-5.981445,-6.011963,4.028320,28.115234
16120,12.823344,-1.288081,-0.632069,-2.410889,-1.831055,8.239746,28.117188
16160,13.168109,-0.790087,-0.890643,-12.603760,11.047363,13.793945,28.109375
16200,12.526464,0.770933,-0.905008,-48.553467,64.300537,19.256592,28.105469
16240,10.074800,2.341529,-2.863465,-37.445068,35.888672,12.603760,28.103516
16280,9.169792,5.032612,-5.023035,-13.061523,-10.772705,-6.744385,28.125000
16320,10.309433,6.114791,-2.853889,4.302979,-10.772705,-21.118164,28.183594
16360,10.457873,3.471592,0.775721,-20.385742,25.756836,-16.387939,28.173828
16400,8.140285,1.043872,1.130063,-30.609131,36.560059,-12.023926,28.181641
16440,6.100426,0.411803,-0.560243,-32.989502,16.784668,-13.946533,28.181641
16480,6.071695,0.550666,-1.206678,4.821777,3.601074,-16.845703,28.169922
16520,7.201759,0.742203,-0.612916,22.338867,-7.904053,-12.817383,28.183594
16560,8.499416,0.924162,0.622492,15.655518,-10.314941,-4.058838,28.171875
16600,9.677363,1.082179,1.101333,26.306152,-5.554199,0.549316,28.205078
16640,11.228806,1.977611,1.053449,-15.380859,7.171631,1.708984,28.193359
16680,13.096283,2.284068,2.221819,12.756348,20.690918,-2.929688,28.191406
16720,13.292608,0.316035,3.557784,20.416260,51.361084,12.786865,28.189453
16760,11.257536,1.350330,-0.095768,-46.661377,11.260986,29.144287,28.183594
16800,9.126697,4.180276,-4.242526,-6.317139,-19.683838,-0.701904,28.195312
16840,9.203311,4.802769,-3.940856,80.169678,-3.814697,-18.493652,28.187500
16880,11.089942,1.623269,-2.547431,133.148193,-29.785156,-3.845215,28.201172
16920,10.256760,-0.555455,-2.030283,-21.728516,-38.513184,6.195068,28.207031
16960,7.192182,0.972046,-0.478840,-30.883789,-47.668457,4.272461,28.199219
17000,5.430049,1.867477,-0.201113,-3.295898,-40.374756,-0.457764,28.173828
17040,6.373365,1.479617,-0.268151,-18.646240,-28.076172,-3.662109,28.201172
17080,8.145074,0.703895,-0.325611,-9.490967,-21.514893,-6.622314,28.173828
17120,9.208099,-0.210690,-0.890643,7.598877,-22.216797,-6.134033,28.169922
17160,10.759542,0.450110,-1.048660,0.701904,-19.104004,-0.488281,28.197266
17200,13.235147,0.507571,0.052672,-31.036377,1.312256,14.465332,28.187500
17240,14.106636,-0.023942,-0.588974,-19.470215,6.134033,12.969971,28.177734
17280,13.469779,1.043872,-1.158794,-68.725586,61.248779,16.448975,28.189453
17320,9.763555,2.207454,-3.672705,-13.397217,19.409180,4.455566,28.203125
17360,8.537724,3.567361,-6.550536,30.059814,-24.566650,-3.631592,28.193359
17400,10.644621,5.219360,-3.825934,26.428223,-3.082275,-15.045166,28.207031
17440,10.280702,2.863465,0.454898,-16.357422,34.057617,-8.178711,28.199219
17480,7.738060,0.316035,-0.134075,-28.717041,31.646729,-8.941650,28.222656
17520,5.482722,0.665588,-1.848324,-25.085449,33.782959,-14.068604,28.187500
17560,5.224148,1.201889,-1.048660,5.187988,25.573730,-10.894775,28.207031
17600,6.617573,1.101333,-0.167594,34.240723,-5.584717,-4.089355,28.222656
17640,8.537724,0.957681,0.948104,36.132812,-4.577637,12.451172,28.230469
17680,10.769119,1.288081,1.182736,17.120361,18.066406,12.512207,28.203125
17720,13.402741,2.106898,0.474052,20.111084,-4.547119,-8.789062,28.201172
17760,14.662091,0.560243,3.193865,42.968750,69.793701,-3.662109,28.228516
17800,14.087482,1.225831,0.617704,-37.658691,49.743652,-12.176514,28.205078
17840,9.040505,4.893748,-3.509900,-9.948730,-99.121094,5.615234,28.197266
17880,8.633492,4.735731,-4.094085,64.727783,35.919189,-8.056641,28.212891
17920,9.701305,1.259350,-3.452439,85.296631,-56.213379,25.573730,28.207031
17960,9.572019,0.656011,-4.429273,46.051025,-48.431396,0.183105,28.232422
18000,7.651869,1.144428,-0.038307,20.782471,-14.617920,0.885010,28.228516
18040,5.774815,0.852336,-0.009577,11.077881,-32.440186,-3.479004,28.197266
18080,5.875371,0.670376,-1.273715,8.209229,-32.897949,-12.176514,28.226562
18120,7.943961,1.149217,-0.272939,10.101318,-21.392822,-12.603760,28.226562
18160,9.318233,0.344765,-0.335188,11.444092,-12.512207,-8.483887,28.226562
18200,10.338163,0.421380,-1.244985,-5.706787,-13.977051,-0.732422,28.222656
18240,12.713211,0.517148,-0.229843,-21.301270,-0.640869,13.824463,28.226562
18280,14.140155,-0.694318,-0.847547,-9.735107,-4.180908,14.038086,28.222656
18320,13.929465,0.847547,-1.244985,-68.054199,53.527832,19.714355,28.275391
18360,10.338163,2.820370,-3.567361,-28.106689,22.766113,6.835938,28.279297
18400,8.791509,4.730943,-6.607996,39.215088,-52.368164,-12.695312,28.275391
18440,10.084377,5.841852,-4.841076,5.126953,5.432129,-10.864258,28.277344
18480,9.945514,3.222595,-0.756568,-19.134521,33.477783,-10.345459,28.259766
18520,8.015787,0.292093,0.215478,-41.015625,36.224365,-9.399414,28.291016
18560,5.535394,0.770933,-1.302446,-41.107178,31.219482,-14.190674,28.304688
18600,4.754885,1.393425,-1.000776,-16.204834,28.686523,-12.847900,28.289062
18640,6.038177,1.561020,-0.344765,15.380859,-2.166748,-5.615234,28.281250
18680,8.350976,1.268927,0.569820,39.703369,-10.284424,6.408691,28.300781
18720,11.066000,0.751779,1.101333,18.432617,12.145996,13.671875,28.275391
18760,13.876793,1.661576,0.612916,4.516602,-3.906250,-0.274658,28.289062
18800,15.150508,0.742203,2.882619,24.658203,74.554443,-7.659912,28.277344
18840,13.283031,2.557007,0.023942,-53.100586,39.978027,-14.739990,28.289062
18880,8.274361,6.057330,-3.658340,-7.507324,-91.461182,0.152588,28.294922
18920,8.753201,5.046977,-3.509900,29.907227,40.344238,2.227783,28.291016
18960,10.065224,2.355895,-3.342306,45.318604,-44.158936,41.778564,28.294922
19000,9.758766,1.240196,-3.883395,44.311523,-36.865234,16.143799,28.291016
19040,7.829040,1.158794,0.258574,-11.840820,-4.302979,10.894775,28.291016
19080,5.789180,1.015141,-0.474052,0.915527,-34.423828,1.129150,28.294922
19120,5.698200,1.158794,-1.063026,-14.862061,-27.984619,-6.378174,28.310547
19160,7.522582,1.230620,-0.038307,4.241943,-25.604248,-9.124756,28.304688
19200,9.241618,0.301669,-0.258574,0.335693,-18.920898,-2.410889,28.294922
19240,10.860099,0.890643,-0.560243,-12.207031,-13.214111,4.333496,28.283203
19280,13.354857,0.684742,-0.047884,-22.247314,-9.796143,15.716553,28.279297
19320,14.398729,0.038307,-0.191536,-37.506104,-6.896973,16.143799,28.308594
19360,13.168109,1.541866,-1.398214,-68.389893,61.401367,15.167236,28.300781
19400,9.629479,3.055001,-4.323928,-9.216309,13.458252,1.922607,28.314453
19440,9.289502,5.453991,-6.703765,21.789551,-40.985107,-11.322021,28.300781
19480,10.117896,6.086061,-4.079720,-0.061035,-16.113281,-15.625000,28.328125
19520,9.054871,2.715025,-0.287304,-27.984619,20.690918,-13.366699,28.302734
19560,6.890512,0.124498,-0.023942,-54.168701,23.773193,-15.716553,28.310547
19600,5.190629,0.895431,-1.177947,-67.901611,23.345947,-21.881104,28.310547
19640,5.463568,1.484405,-0.684742,-25.238037,23.376465,-15.808105,28.320312
19680,7.321469,1.292869,-0.407014,3.082275,-7.476807,-6.195068,28.314453
19720,9.323022,0.995988,0.976834,27.374268,6.469727,6.591797,28.292969
19760,12.162544,1.403002,1.173159,-0.640869,31.188965,0.640869,28.316406
19800,14.063540,2.614468,1.139640,9.124756,10.406494,-10.864258,28.324219
19840,14.053964,1.637634,2.916138,14.160156,70.922852,-4.241943,28.343750
19880,12.267890,2.810793,-0.651223,-42.846680,19.287109,-28.167725,28.326172
19920,7.364564,5.439626,-3.749320,-26.733398,-76.324463,9.582520,28.312500
19960,9.188946,4.750096,-3.634398,39.459229,47.576904,26.824951,28.318359
20000,10.376471,1.431733,-3.581726,77.545166,-60.150146,48.217773,28.333984
20040,9.576807,0.823605,-3.691859,50.842285,-31.707764,5.126953,28.324219
20080,7.086837,1.345541,-0.330400,4.791260,-6.591797,6.774902,28.330078
20120,5.324705,1.527501,-0.794875,35.827637,-34.637451,-5.462646,28.310547
20160,5.755661,1.206678,-0.651223,13.092041,-23.590088,-11.993408,28.318359
20200,7.647080,0.952892,0.253785,12.512207,-19.226074,-11.505127,28.337891
20240,9.193734,0.019154,-1.225831,10.375977,-28.808594,-5.157471,28.314453
20280,11.353305,0.497994,-0.804452,-4.302979,-7.690430,8.453369,28.386719
20320,13.642161,-0.215478,-0.593762,-11.962891,-6.134033,20.538330,28.388672
20360,14.470555,-0.095768,-1.388637,-30.151367,9.857178,20.141602,28.376953
20400,13.077129,1.613692,-1.632846,-93.017578,58.868408,21.820068,28.402344
20440,9.648633,3.873818,-4.563348,-6.652832,-4.608154,3.417969,28.402344
20480,9.155427,6.387730,-5.798757,17.578125,-20.111084,-11.474609,28.376953
20520,10.232818,5.731719,-1.829170,-14.739990,10.345459,-12.145996,28.390625
20560,9.265560,2.102109,-0.023942,-9.307861,31.402588,-8.850098,28.400391
20600,6.900089,0.320823,-0.746991,-64.239502,29.937744,-10.925293,28.384766
20640,4.850653,1.216254,-0.689530,-43.212891,39.855957,-9.796143,28.412109
20680,4.979939,1.546654,-0.454898,2.990723,17.730713,-7.598877,28.406250
20720,6.928820,1.067814,-0.038307,24.047852,-13.641357,-1.678467,28.402344
20760,9.227253,0.694318,1.335965,41.351318,-1.220703,11.871338,28.412109
20800,12.196063,1.077391,0.972046,4.913330,14.892578,5.065918,28.390625
20840,14.168885,2.068590,1.953669,29.907227,19.409180,-9.490967,28.402344
20880,13.493721,0.316035,4.673482,42.663574,74.218750,14.984131,28.390625
20920,11.554418,1.857901,0.052672,-40.069580,8.117676,16.174316,28.396484
20960,9.006987,5.683835,-5.372589,7.446289,-82.275391,1.892090,28.404297
21000,9.442732,5.353435,-3.878607,69.702148,41.168213,3.845215,28.412109
21040,11.204864,1.393425,-1.819593,83.465576,-35.675049,27.008057,28.435547
21080,9.677363,0.426168,-4.055778,25.238037,-48.217773,13.061523,28.414062
21120,6.943185,1.240196,-0.608127,-22.033691,-26.062012,10.253906,28.400391
21160,5.252879,1.513135,-0.081403,-10.559082,-33.142090,1.007080,28.439453
21200,5.722142,1.077391,-0.186748,-16.357422,-27.008057,-8.605957,28.439453
21240,7.642292,0.823605,-0.454898,-2.166748,-30.975342,-9.155273,28.439453
21280,9.591172,0.426168,-0.737414,4.180908,-26.519775,-6.134033,28.441406
21320,12.071565,1.149217,0.383072,-18.524170,0.549316,4.852295,28.468750
21360,13.761871,0.450110,0.191536,-30.731201,2.410889,12.664795,28.423828
21400,13.737929,-0.062249,-0.311246,-70.953369,18.981934,18.188477,28.451172
21440,11.884817,1.513135,-2.135628,-76.477051,69.396973,19.378662,28.447266
21480,9.418790,2.853889,-5.482722,44.525146,-18.127441,0.122070,28.441406
21520,10.477027,4.955997,-7.144298,31.097412,-27.404785,-16.021729,28.441406
21560,11.473015,4.357447,-2.657564,15.045166,1.556396,-23.590088,28.449219
21600,9.524135,0.885855,1.417367,-44.860840,64.239502,-16.967773,28.470703
21640,6.129156,0.531513,0.143652,-56.182861,44.158936,-20.874023,28.437500
21680,4.314352,1.489193,-1.446098,-18.432617,32.806396,-20.202637,28.427734
21720,4.908113,1.474828,-1.077391,33.905029,1.281738,-13.275146,28.449219
21760,7.144298,0.804452,0.670376,38.787842,-9.399414,3.479004,28.439453
21800,10.170568,0.919373,1.800440,20.904541,10.498047,15.808105,28.451172
21840,13.436260,1.819593,0.986411,-9.368896,3.540039,0.885010,28.457031
21880,14.403518,1.206678,2.877831,40.405273,38.177490,2.716064,28.437500
21920,14.671668,0.378284,1.991976,-26.641846,86.639404,-5.828857,28.451172
21960,10.457873,4.692636,-3.481169,-39.398193,-73.852539,-2.685547,28.435547
22000,9.026140,5.731719,-4.558560,38.238525,15.167236,-2.868652,28.453125
22040,10.055647,2.466028,-2.389413,40.802002,-45.867920,36.437988,28.455078
22080,9.466674,1.154005,-4.817134,79.071045,-66.436768,16.296387,28.464844
22120,7.963115,1.417367,-1.106121,1.708984,-20.111084,4.180908,28.458984
22160,6.330269,1.297657,1.426944,0.457764,-22.399902,5.798340,28.458984
22200,5.674258,0.320823,-0.948104,-7.507324,-34.088135,-5.401611,28.470703
22240,6.837840,0.694318,-0.440533,-1.312256,-23.254395,-7.751465,28.470703
22280,8.724471,0.679953,-0.134075,2.807617,-12.908936,-7.568359,28.455078
22320,10.189722,0.134075,-0.837971,-5.096436,-16.174316,-1.739502,28.482422
22360,12.382812,0.387861,-0.138864,-15.502930,-2.746582,11.383057,28.468750
22400,13.752295,-0.746991,-0.450110,-2.807617,-6.927490,15.167236,28.478516
22440,13.843274,0.177171,-0.785298,-47.119141,49.194336,19.287109,28.498047
22480,11.161768,1.996764,-2.667141,-34.332275,55.389404,12.878418,28.486328
22520,8.935161,4.261679,-6.622362,23.956299,-36.804199,-3.814697,28.462891
22560,10.046070,5.693412,-5.827487,18.035889,-26.855469,-17.364502,28.503906
22600,10.845734,4.290410,-0.756568,-1.983643,13.336182,-20.477295,28.476562
22640,8.475474,1.388637,1.101333,-38.146973,41.564941,-14.862061,28.488281
22680,5.717354,0.881066,-0.679953,-62.896729,28.228760,-18.737793,28.474609
22720,4.879383,0.866701,-0.766145,-25.482178,32.501221,-14.617920,28.480469
22760,6.248867,0.842759,-0.574608,13.244629,-5.462646,-9.918213,28.474609
22800,8.049306,1.130063,0.598550,37.017822,-10.406494,4.669189,28.470703
22840,10.520123,0.818817,1.762132,36.437988,11.352539,8.728027,28.478516
22880,13.551182,2.298434,1.029507,-17.456055,7.659912,-1.403809,28.478516
22920,13.991714,2.413355,3.021482,20.202637,38.360596,3.540039,28.478516
22960,13.766660,1.326388,1.900996,-61.462402,83.068848,8.270264,28.496094
23000,10.467450,3.974375,-2.341529,-56.823730,-41.748047,4.455566,28.458984
23040,8.848969,4.826711,-4.458004,10.406494,-3.692627,-0.671387,28.492188
23080,10.041282,2.782062,-3.136404,108.154297,-13.092041,23.071289,28.484375
23120,10.821792,1.575385,-2.801216,119.049072,-32.775879,14.495850,28.464844
23160,8.441956,0.474052,-1.426944,-43.731689,-26.733398,6.805420,28.542969
23200,5.722142,0.852336,0.047884,-45.654297,-34.332275,5.889893,28.562500
23240,4.874595,1.455675,-0.402226,-17.669678,-33.813477,-2.410889,28.544922
23280,5.980716,1.010353,-0.330400,-5.584717,-21.270752,-10.986328,28.568359
23320,8.101978,0.253785,-0.502782,7.598877,-19.592285,-12.390137,28.542969
23360,10.433931,0.004788,-0.991199,18.218994,-31.555176,-9.246826,28.556641
23400,13.048399,0.177171,0.526724,-9.490967,-11.016846,4.852295,28.542969
23440,14.192827,-0.761356,0.105345,-25.817871,0.915527,13.641357,28.556641
23480,13.469779,0.076614,-0.991199,-57.922363,48.675537,18.249512,28.566406
23520,10.553641,1.800440,-3.117251,-42.327881,40.527344,12.939453,28.542969
23560,9.562442,4.017470,-6.430826,10.192871,-32.745361,-0.793457,28.564453
23600,11.104307,5.252879,-4.826711,44.891357,-11.077881,-20.050049,28.546875
23640,11.061212,3.514688,0.780510,0.091553,38.238525,-14.282227,28.556641
23680,7.987057,0.632069,1.484405,-59.722900,46.600342,-7.232666,28.562500
23720,4.764462,0.924162,-1.431733,-34.118652,36.743164,-12.481689,28.572266
23760,4.209007,1.010353,-1.819593,16.571045,30.273438,-14.099121,28.560547
23800,6.167464,0.828394,-1.086968,28.015137,2.960205,-16.571045,28.593750
23840,8.681376,1.058237,1.206678,42.785645,-9.460449,0.213623,28.560547
23880,11.204864,1.623269,2.226608,23.193359,2.258301,3.387451,28.552734
23920,13.872005,1.283292,1.307234,28.106689,7.263184,-6.988525,28.568359
23960,14.298173,-0.181959,3.256114,51.086426,51.513672,-3.936768,28.576172
24000,12.947843,1.091756,1.273715,-19.317627,56.274414,-11.047363,28.582031
24040,9.030929,5.779603,-3.931279,-23.132324,-103.942871,-11.352539,28.593750
24080,9.184157,6.258443,-3.208230,49.163818,60.943604,5.859375,28.572266
24120,10.658986,2.681506,-1.814805,40.679932,-64.331055,51.361084,28.570312
24160,9.931149,1.043872,-4.726154,84.869385,-70.983887,14.923096,28.574219
24200,7.517793,1.096544,-0.919373,-23.284912,-8.636475,7.537842,28.572266
24240,5.525817,1.388637,0.488417,11.444092,-26.550293,-0.213623,28.572266
24280,5.540183,0.938527,-0.574608,-10.925293,-32.318115,-7.751465,28.583984
24320,7.460332,0.670376,-0.172383,3.845215,-32.562256,-9.582520,28.580078
24360,9.107543,0.497994,-0.766145,4.669189,-26.458740,-3.601074,28.576172
24400,10.917560,1.043872,-0.268151,-2.563477,-14.556885,0.091553,28.562500
24440,13.383588,0.560243,0.464475,-27.435303,0.213623,15.655518,28.566406
24480,13.848063,-0.301669,0.100556,-35.156250,-9.887695,19.409180,28.585938
24520,12.717999,1.407791,-1.000776,-73.577881,66.955566,20.141602,28.566406
24560,9.749189,3.572149,-4.711789,25.207520,0.671387,0.091553,28.603516
24600,9.639056,5.104438,-6.866570,10.589600,-48.522949,-5.004883,28.603516
24640,11.219229,5.798757,-3.983952,-33.264160,0.976562,-3.936768,28.582031
24680,9.964667,2.815581,0.383072,-35.827637,42.175293,-7.751465,28.599609
24720,6.823475,0.502782,0.363919,-40.710449,37.658691,-11.077881,28.582031
24760,4.424485,0.689530,-1.455675,-48.278809,28.350830,-14.129639,28.582031
24800,4.515464,1.206678,-1.144428,-15.716553,20.019531,-12.969971,28.593750
24840,6.780379,1.254562,-0.043096,21.606445,-16.784668,-9.826660,28.576172
24880,9.500193,1.240196,1.575385,52.307129,-5.584717,8.697510,28.597656
24920,12.636597,0.699107,1.192312,10.620117,25.848389,6.927490,28.583984
24960,14.460979,1.824382,1.503559,19.165039,8.453369,-12.451172,28.609375
25000,14.489709,0.905008,3.059790,7.263184,96.527100,-12.878418,28.593750
25040,11.741165,4.204218,-1.843535,-54.321289,-7.232666,-30.761719,28.589844
25080,8.494628,6.435614,-4.764462,6.225586,-41.748047,5.798340,28.589844
25120,10.084377,4.007894,-2.882619,24.536133,7.019043,27.160645,28.634766
25160,10.275913,1.886631,-4.151546,61.462402,-62.042236,45.471191,28.660156
25200,8.461109,1.244985,-2.590526,20.019531,-31.555176,12.145996,28.652344
25240,6.210559,1.063026,0.708684,13.214111,-13.092041,10.345459,28.621094
25280,5.147533,0.746991,-0.785298,-3.570557,-28.991699,-0.976562,28.644531
25320,6.210559,0.871489,-0.756568,-1.525879,-29.113770,-7.781982,28.648438
25360,8.370130,0.809240,-0.311246,12.573242,-24.841309,-9.277344,28.636719
25400,9.921572,0.531513,-0.541090,2.441406,-24.017334,-1.312256,28.658203
25440,11.961432,1.326388,-0.019154,-22.369385,-12.969971,7.537842,28.642578
25480,13.532028,0.445322,0.153229,-37.719727,2.410889,14.434814,28.666016
25520,13.828909,0.292093,-0.430956,-64.636230,19.592285,16.693115,28.662109
25560,11.999739,1.857901,-2.303222,-69.549561,63.720703,15.594482,28.658203
25600,9.313444,3.332729,-5.722142,49.652100,-23.345947,-2.319336,28.658203
25640,10.295067,5.324705,-6.794744,32.318115,-31.219482,-16.937256,28.644531
25680,10.960655,4.386178,-2.456451,11.169434,14.801025,-16.967773,28.654297
25720,9.040505,0.957681,1.086968,-24.078369,63.964844,-15.930176,28.634766
25760,6.014235,0.450110,-0.387861,-47.485352,26.611328,-21.881104,28.675781
25800,4.400543,1.355118,-1.264138,-25.115967,39.276123,-15.197754,28.683594
25840,4.898537,1.704672,-0.612916,17.028809,1.647949,-11.718750,28.675781
25880,7.235278,1.077391,0.205901,48.797607,-12.939453,-0.762939,28.667969
25920,10.108319,0.847547,1.561020,47.943115,13.916016,6.988525,28.681641
25960,13.479356,1.632846,0.995988,-0.518799,17.456055,-9.033203,28.671875
26000,14.197616,2.173935,2.882619,40.191650,23.468018,-11.016846,28.662109
26040,13.939042,0.976834,2.734178,-14.801025,105.468750,-0.457764,28.667969
26080,10.654198,4.845864,-3.208230,-42.846680,-75.836182,-9.368896,28.673828
26120,9.088389,5.741296,-4.941632,25.085449,20.660400,4.058838,28.687500
26160,9.749189,2.633622,-2.686294,36.254883,-39.794922,41.046143,28.681641
26200,10.084377,0.790087,-4.620809,80.963135,-68.969727,20.263672,28.691406
26240,8.259995,1.024718,-2.298434,-1.007080,-14.251709,9.033203,28.689453
26280,6.148310,1.235408,0.335188,11.840820,-17.700195,5.493164,28.679688
26320,5.492299,0.914585,-0.861913,22.674561,-29.693604,-8.148193,28.693359
26360,6.694188,0.933739,-0.536301,11.932373,-27.343750,-13.366699,28.664062
26400,8.283937,0.928950,-0.215478,17.669678,-23.620605,-13.549805,28.677734
26440,9.801862,0.651223,-0.866701,-0.305176,-16.784668,-6.011963,28.693359
26480,12.449849,0.766145,-0.119710,-24.444580,2.868652,9.857178,28.697266
26520,14.053964,-0.579397,-0.411803,-20.568848,-0.946045,13.854980,28.695312
26560,14.111424,0.507571,-1.278504,-56.823730,23.773193,16.113281,28.689453
26600,11.707646,2.030283,-2.116474,-60.302734,58.532715,13.183594,28.707031
26640,9.356541,3.964798,-6.042965,61.462402,-37.994385,-5.523682,28.691406
26680,10.376471,6.339846,-6.301539,20.233154,-15.014648,-17.944336,28.699219
26720,10.591949,4.616021,-1.235408,-1.800537,24.841309,-15.533447,28.664062
26760,8.082825,1.067814,0.952892,-22.033691,47.851562,-13.427734,28.699219
26800,5.343858,0.560243,-0.876278,-50.506592,31.951904,-13.702393,28.664062
26840,4.266468,1.331176,-0.981623,-29.144287,34.301758,-9.185791,28.712891
26880,5.425261,1.350330,-0.517148,3.082275,-1.678467,-5.828857,28.710938
26920,7.709330,1.173159,0.148441,29.724121,-10.009766,2.746582,28.691406
26960,10.472239,1.101333,1.589750,40.679932,0.823975,9.460449,28.691406
27000,13.608643,1.316811,0.919373,-4.699707,2.380371,-1.007080,28.691406
27040,14.686033,1.091756,3.169923,42.419434,41.137695,-3.112793,28.699219
27080,13.670892,1.158794,2.523489,-19.165039,79.803467,-6.744385,28.687500
27120,9.552865,5.291186,-3.031059,-29.296875,-65.917969,10.162354,28.738281
27160,9.208099,5.803545,-4.587290,43.060303,7.263184,1.800537,28.755859
27200,10.084377,2.992752,-2.082955,39.398193,-25.939941,33.142090,28.742188
27240,10.098742,1.216254,-3.672705,84.442139,-66.619873,24.230957,28.759766
27280,8.034941,0.962469,-1.953669,-13.854980,-15.991211,8.789062,28.753906
27320,5.932832,1.283292,0.330400,-5.462646,-20.019531,6.195068,28.750000
27360,5.219360,1.125275,-1.005565,-6.256104,-31.982422,-6.469727,28.755859
27400,6.679823,1.029507,-0.469264,-6.835938,-31.372070,-11.962891,28.773438
27440,8.523358,0.814029,-0.373495,-3.143311,-29.052734,-9.796143,28.773438
27480,10.204087,0.675165,-0.656011,-10.162354,-31.066895,-4.821777,28.759766
27520,13.038822,0.905008,0.502782,-42.114258,-1.770020,10.345459,28.765625
27560,14.279019,-0.282516,-0.392649,-34.027100,-3.356934,14.068604,28.769531
27600,13.809755,1.000776,-1.283292,-80.474854,42.205811,18.432617,28.783203
27640,10.989386,2.566584,-2.911349,-44.006348,47.332764,9.948730,28.759766
27680,9.624691,4.673482,-7.015011,63.140869,-60.150146,-10.040283,28.777344
27720,10.879252,6.387730,-5.525817,12.939453,7.202148,-17.974854,28.783203
27760,10.319010,3.294421,-0.416591,4.730225,47.607422,-12.878418,28.789062
27800,7.321469,0.545878,1.106121,-54.565430,53.649902,-14.251709,28.783203
27840,4.453215,1.039083,-0.842759,-40.252686,27.984619,-19.165039,28.787109
27880,3.653552,1.939303,-1.369483,-5.981445,32.592773,-16.357422,28.792969
27920,5.726931,1.388637,-0.665588,32.531738,-6.866455,-14.648438,28.783203
27960,8.930372,0.852336,1.508347,39.520264,-3.356934,1.007080,28.773438
28000,12.368446,1.024718,1.991976,15.289307,24.932861,4.486084,28.775391
28040,14.642938,2.015918,1.379060,27.252197,0.915527,-18.737793,28.792969
28080,14.513651,1.714248,3.227384,9.033203,76.934814,-15.899658,28.763672
28120,13.043611,4.510676,-1.048660,-43.182373,27.038574,-48.065186,28.783203
28160,7.388506,6.296751,-3.433285,-40.802002,-64.239502,16.174316,28.810547
28200,9.447520,4.855441,-2.940080,15.167236,-8.789062,30.639648,28.759766
28240,10.290278,2.183512,-4.065354,39.489746,-69.427490,64.880371,28.783203
28280,9.093178,1.426944,-3.758897,42.205811,-29.479980,13.946533,28.798828
28320,6.809110,0.957681,0.057461,-3.509521,-11.596680,11.199951,28.802734
28360,4.999093,0.948104,-0.536301,22.155762,-34.271240,0.640869,28.798828
28400,5.353435,0.617704,-1.082179,11.230469,-27.557373,-11.260986,28.800781
28440,7.513005,0.976834,0.134075,10.314941,-28.839111,-14.739990,28.792969
28480,9.567230,0.430956,-0.316035,-1.586914,-23.742676,-5.035400,28.763672
28520,11.635820,1.034295,-0.464475,-24.993896,4.608154,4.577637,28.802734
28560,13.795390,0.435745,-0.057461,-26.763916,-5.584717,15.197754,28.765625
28600,14.365211,-0.114922,-0.474052,-26.916504,3.662109,10.955811,28.794922
28640,12.574347,1.810017,-1.728614,-55.145264,59.265137,10.864258,28.779297
28680,9.825804,3.830723,-5.717354,22.766113,-28.808594,-0.030518,28.779297
28720,10.371682,5.564125,-5.894525,-6.347656,-10.772705,-5.126953,28.792969
28760,10.692505,5.592855,-2.403779,0.610352,21.057129,-10.589600,28.810547
28800,8.336611,2.638410,0.263362,-9.277344,51.300049,-13.092041,28.769531
28840,5.947197,0.464475,-0.679953,-23.590088,31.463623,-12.786865,28.802734
28880,4.438850,0.928950,-1.335965,-39.855957,51.727295,-14.129639,28.808594
28920,4.611232,1.766921,-0.665588,13.275146,19.836426,-9.002686,28.796875
28960,6.895301,1.513135,0.282516,46.539307,-12.817383,-4.730225,28.791016
29000,9.959879,1.115698,1.795651,58.441162,-3.784180,8.148193,28.802734
29040,12.909535,1.316811,1.379060,5.218506,13.732910,7.293701,28.794922
29080,14.135366,2.188300,2.331953,27.160645,18.554688,-7.110596,28.826172
29120,14.374787,2.106898,2.590526,-12.786865,96.374512,-23.773193,28.851562
29160,10.754754,5.128380,-1.766921,-47.912598,-37.078857,-23.162842,28.861328
29200,8.398860,6.459556,-4.156334,-8.209229,-12.817383,9.582520,28.867188
29240,9.892841,4.285621,-2.427721,5.523682,-19.531250,41.534424,28.873047
29280,10.314221,2.226608,-4.055778,50.109863,-68.572998,46.386719,28.861328
29320,8.877700,1.283292,-2.384625,11.108398,-31.097412,9.796143,28.851562
29360,6.698977,0.651223,0.488417,1.525879,-24.414062,8.514404,28.857422
29400,5.233725,0.488417,-0.814029,-3.082275,-32.196045,-1.434326,28.859375
29440,5.750873,1.067814,-0.809240,1.739502,-34.240723,-9.613037,28.865234
29480,7.838616,1.067814,0.043096,18.127441,-31.250000,-11.993408,28.875000
29520,9.830592,0.636858,-0.440533,6.561279,-26.489258,-2.532959,28.867188
29560,12.339716,1.422156,0.177171,-21.850586,0.976562,11.047363,28.857422
29600,14.087482,0.229843,-0.110133,-24.383545,-1.617432,18.157959,28.855469
29640,14.245501,0.617704,-0.919373,-59.112549,18.524170,18.493652,28.847656
29680,11.903971,2.528277,-2.063802,-72.753906,67.443848,15.136719,28.884766
29720,9.466674,4.323928,-6.200983,54.565430,-38.146973,-3.845215,28.865234
29760,10.232818,6.392519,-6.579266,17.730713,-14.770508,-17.028809,28.875000
29800,10.414778,4.414908,-1.551443,7.812500,31.097412,-15.716553,28.890625
29840,8.006210,0.871489,1.331176,-30.731201,61.676025,-15.533447,28.867188
29880,5.061342,0.756568,-0.565032,-51.025391,22.247314,-19.744873,28.880859
29920,3.998317,1.699883,-1.345541,-29.754639,36.102295,-10.742188,28.855469
29960,5.363012,1.829170,-0.646434,17.333984,-10.253906,-8.605957,28.888672
30000,8.350976,1.216254,0.622492,46.813965,-14.129639,2.044678,28.882812
30040,11.482592,0.818817,2.049437,36.102295,14.343262,7.324219,28.861328
30080,14.092271,1.733402,1.197101,-5.065918,8.453369,-10.803223,28.865234
30120,13.905523,2.509123,3.189077,32.745361,46.325684,-4.333496,28.875000
30160,13.287820,2.676718,1.589750,-25.909424,63.842773,-15.625000,28.894531
30200,9.126697,5.032612,-2.858677,-41.778564,-70.281982,-0.946045,28.906250
30240,9.212888,5.243302,-4.247314,23.895264,23.010254,10.894775,28.896484
30280,10.041282,2.288857,-2.987964,27.038574,-53.558350,49.255371,28.896484
30320,9.979033,1.139640,-4.237737,69.702148,-56.640625,20.233154,28.878906
30360,7.881712,1.130063,-1.177947,-3.997803,0.396729,14.709473,28.886719
30400,5.746084,1.297657,0.148441,17.211914,-27.984619,8.850098,28.902344
30440,5.070919,0.646434,-1.259350,5.187988,-28.350830,-7.354736,28.888672
30480,6.617573,0.890643,-0.497994,5.340576,-30.792236,-15.319824,28.902344
30520,8.935161,0.723049,-0.440533,8.819580,-29.418945,-13.427734,28.884766
30560,10.716447,0.565032,-0.612916,-11.566162,-18.096924,-3.723145,28.900391
30600,12.962208,0.656011,0.272939,-36.865234,-4.547119,9.307861,28.884766
30640,13.929465,-0.426168,-0.430956,-19.622803,-6.530762,10.009766,28.906250
30680,13.713987,0.742203,-0.770933,-64.941406,35.583496,13.000488,28.884766
30720,11.085154,2.600103,-2.547431,-53.466797,49.468994,10.009766,28.900391
30760,9.466674,4.299986,-6.751649,67.749023,-58.319092,-9.185791,28.894531
30800,10.845734,5.908890,-5.521029,16.357422,11.657715,-14.831543,28.890625
30840,10.357317,3.715801,-0.497994,3.265381,52.825928,-14.221191,28.910156
30880,7.235278,1.134852,0.943315,-42.449951,48.339844,-13.244629,28.910156
30920,4.639963,1.110910,-1.264138,-36.071777,27.587891,-16.784668,28.906250
30960,4.089296,1.747767,-1.594538,-7.263184,25.482178,-14.526367,28.890625
31000,5.947197,1.374272,-0.502782,21.575928,-15.014648,-14.434814,28.894531
31040,8.676587,1.216254,1.278504,55.053711,-10.162354,1.525879,28.902344
31080,11.841722,0.713472,1.886631,31.066895,27.557373,11.077881,28.966797
31120,14.322115,2.164358,0.991199,0.335693,0.823975,-11.779785,28.968750
31160,15.049952,2.466028,2.700660,16.571045,68.756104,-22.369385,28.949219
31200,13.330915,3.940856,-0.100556,-36.560059,35.339355,-33.966064,28.945312
31240,7.709330,5.702989,-3.126827,-40.466309,-72.021484,27.221680,28.943359
31280,9.481039,4.328717,-3.629610,27.587891,16.021729,32.775879,28.955078
31320,9.753978,1.972822,-3.830723,49.835205,-64.910889,56.884766,28.966797
31360,9.011775,1.230620,-3.682282,55.816650,-45.532227,14.404297,28.957031
31400,7.005434,0.962469,0.033519,-1.129150,2.227783,12.969971,28.966797
31440,5.458780,0.670376,-0.478840,24.780273,-28.076172,1.647949,28.978516
31480,5.736507,0.565032,-1.149217,0.793457,-28.411865,-9.429932,28.951172
31520,7.565677,1.106121,-0.129287,8.850098,-25.817871,-13.244629,28.939453
31560,9.246407,0.679953,-0.397437,4.425049,-18.829346,-6.683350,28.960938
31600,11.247959,1.063026,-0.531513,-14.282227,-12.603760,2.258301,28.958984
31640,13.517663,0.378284,-0.086191,-26.855469,-3.692627,14.770508,28.960938
31680,14.101848,-0.220267,-0.445322,-39.855957,-7.019043,14.923096,28.962891
31720,12.909535,1.580173,-1.340753,-76.995850,72.753906,17.883301,28.964844
31760,9.696517,3.078943,-4.826711,19.836426,8.728027,1.739502,28.978516
31800,9.442732,4.477157,-7.254431,39.276123,-49.194336,-10.955811,28.966797
31840,10.836157,5.133168,-4.185065,9.124756,17.608643,-13.244629,28.968750
31880,9.639056,2.451663,0.368707,-18.341064,63.781738,-14.709473,28.943359
31920,6.622362,0.608127,0.368707,-38.330078,34.790039,-21.118164,28.976562
31960,4.764462,0.972046,-1.369483,-26.336670,36.529541,-19.439697,28.982422
32000,4.826711,1.833959,-1.182736,-14.221191,20.599365,-14.251709,28.974609
32040,6.971915,1.680730,-0.225055,32.989502,-15.777588,-10.955811,28.966797
32080,9.241618,0.952892,1.163582,26.489258,-5.187988,3.723145,28.970703
32120,11.439496,1.244985,1.484405,11.383057,14.038086,4.608154,28.988281
32160,13.814544,1.537078,0.866701,17.364502,2.044678,-15.594482,28.976562
32200,15.045163,1.584962,2.829947,22.674561,82.183838,-31.829834,28.978516
32240,13.551182,3.624821,0.167594,-28.625488,39.062500,-42.663574,28.966797
32280,7.120356,5.669470,-2.432509,-57.800293,-93.444824,11.749268,28.966797
32320,8.432379,5.501875,-2.542642,18.554688,40.802002,31.311035,28.962891
32360,9.624691,2.705448,-3.505111,21.636963,-87.158203,64.697266,28.968750
32400,9.792285,1.623269,-4.371812,67.108154,-37.597656,20.385742,28.988281
32440,8.078036,0.876278,0.138864,-6.378174,0.152588,11.199951,28.988281
32480,6.071695,0.976834,-0.244209,15.289307,-38.879395,6.256104,28.998047
32520,5.626374,0.761356,-1.053449,4.577637,-21.728516,-5.981445,28.974609
32560,7.129933,0.933739,-0.057461,20.294189,-25.756836,-11.505127,28.978516
32600,8.748413,0.627281,-0.397437,20.935059,-26.611328,-6.469727,28.988281
32640,10.577583,1.077391,-0.766145,5.371094,-19.989014,-0.213623,28.982422
32680,13.086706,0.713472,0.268151,-28.930664,-3.540039,16.876221,28.984375
32720,14.006080,-0.071826,-0.718261,-20.446777,-7.324219,15.258789,29.011719
32760,13.670892,1.695095,-0.818817,-83.953857,48.278809,17.913818,28.996094
32800,10.687716,3.055001,-2.614468,-52.185059,40.100098,7.537842,28.984375
32840,8.930372,4.979939,-6.579266,48.370361,-56.976318,-9.155273,28.996094
32880,10.194510,6.110003,-4.984728,-10.894775,3.997803,-21.423340,28.986328
32920,10.113108,3.730166,0.014365,4.791260,38.635254,-19.470215,28.992188
32960,7.771579,0.986411,0.584185,-47.576904,37.750244,-19.073486,28.988281
33000,5.444415,0.995988,-0.948104,-52.490234,44.189453,-16.143799,29.005859
33040,4.754885,1.747767,-0.981623,-24.047852,20.263672,-13.671875,29.039062
33080,6.110003,1.532289,-0.244209,13.885498,-20.294189,-11.474609,29.041016
33120,8.082825,1.149217,1.173159,34.545898,-5.310059,5.371094,29.037109
33160,11.200075,0.976834,1.948880,31.860352,24.963379,8.239746,29.046875
33200,14.044387,1.991976,1.211466,9.063721,3.814697,-8.270264,29.042969
33240,14.504074,2.346318,2.944868,21.118164,72.814941,-8.483887,29.050781
33280,14.015656,3.811569,0.474052,-33.172607,53.039551,-50.994873,29.037109
33320,7.436390,5.578490,-2.537854,-54.870605,-84.838867,9.338379,29.033203
33360,9.121908,5.377377,-3.471592,20.477295,20.751953,21.423340,29.041016
33400,9.979033,2.839523,-3.543418,14.556885,-81.512451,66.162109,29.041016
33440,9.844957,1.771709,-4.438850,81.512451,-51.361084,22.277832,29.048828
33480,8.025364,0.890643,-0.344765,-18.554688,5.493164,11.413574,29.056641
33520,5.932832,1.000776,-0.038307,14.709473,-34.332275,6.835938,29.066406
33560,5.295974,0.785298,-1.364695,7.293701,-25.512695,-7.629395,29.064453
33600,6.794744,1.221043,-0.071826,7.385254,-28.625488,-14.068604,29.050781
33640,8.580819,0.766145,0.110133,2.410889,-20.019531,-11.047363,29.048828
33680,10.012551,0.794875,-0.775721,-4.425049,-15.960693,-3.143311,29.054688
33720,12.521675,0.962469,-0.043096,-30.273438,3.601074,12.817383,29.044922
33760,14.216769,-0.062249,-0.344765,-10.101318,-20.568848,14.038086,29.060547
33800,14.504074,0.861913,-0.699107,-53.283691,31.280518,17.120361,29.064453
33840,11.439496,2.202666,-2.724602,-32.623291,54.290771,8.270264,29.046875
33880,8.475474,3.390190,-6.435614,46.691895,-39.520264,-2.227783,29.054688
33920,9.423578,5.094861,-5.966351,23.651123,-15.380859,-9.063721,29.080078
33960,10.328587,4.414908,-1.077391,-12.298584,24.536133,-14.526367,29.076172
34000,8.609550,1.575385,0.976834,-8.605957,48.706055,-14.770508,29.060547
34040,6.296751,0.679953,-1.029507,-41.839600,33.264160,-14.129639,29.076172
34080,4.970363,1.393425,-1.149217,-38.665771,51.177979,-13.336182,29.083984
34120,5.722142,1.757344,-0.775721,13.610840,13.244629,-14.434814,29.060547
34160,7.795521,1.086968,0.268151,41.290283,-13.610840,-2.349854,29.091797
34200,9.878476,1.029507,1.479617,17.639160,-2.380371,7.141113,29.076172
34240,12.028469,1.872266,1.139640,17.669678,2.380371,3.265381,29.083984
34280,13.972561,0.799663,2.193089,45.135498,38.238525,0.946045,29.087891
34320,14.508862,0.737414,2.719813,-0.488281,91.339111,-16.723633,29.064453
34360,10.323798,4.156334,-1.441309,-42.053223,-44.555664,-8.361816,29.083984
34400,8.202535,6.354211,-4.165911,13.458252,-1.159668,0.610352,29.074219
34440,9.830592,4.520253,-1.790863,21.820068,5.187988,29.571533,29.074219
34480,10.879252,2.001553,-4.362236,78.308105,-71.380615,37.414551,29.072266
34520,9.519346,1.072602,-2.317587,3.234863,-18.127441,10.101318,29.070312
34560,6.871359,1.211466,0.861913,-8.880615,-30.181885,9.277344,29.087891
34600,5.066131,0.914585,-0.823605,-13.824463,-29.418945,-2.990723,29.076172
34640,5.798757,0.828394,-0.344765,5.737305,-30.914307,-11.718750,29.082031
34680,8.044518,0.799663,-0.038307,14.373779,-32.958984,-14.648438,29.085938
34720,9.524135,0.416591,-0.593762,17.852783,-28.289795,-6.713867,29.085938
34760,11.544841,1.517924,-0.043096,-10.772705,-5.401611,2.777100,29.091797
34800,13.781025,0.469264,0.244209,-26.519775,-1.251221,16.601562,29.076172
34840,14.269443,0.201113,-0.828394,-39.855957,-1.037598,15.411377,29.095703
34880,12.349293,2.030283,-1.522712,-90.026855,70.037842,17.395020,29.087891
34920,9.136273,3.667917,-4.730943,5.371094,-9.704590,1.403809,29.113281
34960,9.682152,5.789180,-6.526594,30.792236,-43.884277,-12.481689,29.091797
35000,11.128249,5.473145,-2.523489,3.540039,19.165039,-19.409180,29.097656
35040,9.730036,1.968034,1.063026,-18.188477,61.187744,-16.113281,29.142578
35080,6.550536,0.584185,-0.095768,-43.579102,35.583496,-18.096924,29.136719
35120,4.458004,1.364695,-1.264138,-36.743164,44.128418,-15.930176,29.130859
35160,4.534618,1.853112,-0.761356,4.699707,5.187988,-9.735107,29.121094
35200,6.708553,1.379060,0.335188,26.733398,-23.315430,-0.579834,29.152344
35240,9.409213,1.125275,1.857901,32.470703,-5.065918,9.948730,29.128906
35280,12.445061,1.446098,1.101333,-6.530762,19.744873,3.631592,29.136719
35320,14.413095,2.102109,2.164358,38.452148,7.629395,-9.765625,29.142578
35360,14.911088,1.268927,3.835511,8.392334,116.119385,-13.061523,29.148438
35400,11.980585,4.180276,-0.507571,-40.588379,-6.347656,-23.376465,29.148438
35440,7.513005,5.827487,-4.132392,-23.193359,-52.703857,21.697998,29.140625
35480,9.490616,4.491522,-2.466028,33.111572,11.169434,34.301758,29.142578
35520,10.749966,1.561020,-3.639187,69.335938,-75.469971,45.623779,29.146484
35560,9.437943,0.502782,-3.299210,40.679932,-34.332275,7.598877,29.140625
35600,6.986280,1.072602,0.569820,-13.824463,-5.798340,13.946533,29.146484
35640,5.003881,1.182736,-0.574608,14.648438,-38.360596,1.831055,29.156250
35680,5.238513,0.727837,-0.684742,8.148193,-27.313232,-9.033203,29.154297
35720,7.455544,1.010353,-0.081403,14.617920,-32.684326,-13.580322,29.132812
35760,9.519346,0.632069,-0.474052,6.439209,-28.411865,-6.286621,29.146484
35800,11.774684,1.359907,-0.009577,-19.134521,-10.620117,1.342773,29.156250
35840,13.843274,0.569820,0.474052,-39.520264,-2.563477,14.739990,29.134766
35880,14.666880,0.023942,-1.264138,-54.565430,-1.556396,15.747070,29.138672
35920,12.928689,1.991976,-1.800440,-91.033936,65.856934,15.594482,29.169922
35960,9.327810,3.366248,-5.104438,32.531738,-13.610840,-1.068115,29.158203
36000,9.921572,5.669470,-6.507440,15.441895,-29.998779,-13.366699,29.154297
36040,10.864887,5.018247,-2.011129,21.331787,25.207520,-19.256592,29.179688
36080,9.030929,1.340753,0.732626,-6.286621,54.199219,-14.984131,29.167969
36120,6.038177,0.354342,-0.670376,-40.557861,37.017822,-14.739990,29.138672
36160,4.141969,1.551443,-1.149217,-32.104492,38.604736,-15.350342,29.152344
36200,4.821922,1.877054,-0.646434,19.775391,3.173828,-10.040283,29.173828
36240,7.139510,1.192312,0.421380,37.109375,-19.897461,-0.671387,29.187500
36280,9.548077,0.785298,1.470040,26.763916,1.647949,12.756348,29.181641
36320,12.406754,1.364695,0.847547,10.589600,9.765625,2.044678,29.166016
36360,14.322115,1.575385,2.422932,39.337158,22.125244,-8.026123,29.171875
36400,14.551958,1.470040,3.581726,-2.014160,108.673096,-8.636475,29.167969
36440,12.023681,4.539406,-1.225831,-50.720215,-13.824463,-24.169922,29.160156
36480,8.092402,6.167464,-4.386178,-11.535645,-47.088623,8.728027,29.173828
36520,9.538500,4.204218,-2.116474,26.885986,25.817871,27.587891,29.167969
36560,10.462662,1.388637,-4.108450,60.302734,-82.611084,42.846680,29.187500
36600,9.270349,0.775721,-3.232172,29.998779,-38.085938,6.500244,29.181641
36640,7.211336,0.986411,1.024718,5.157471,-17.425537,8.666992,29.166016
36680,5.468357,0.550666,-0.493206,-4.394531,-29.327393,-0.885010,29.181641
36720,5.741296,0.742203,-0.976834,5.249023,-34.790039,-9.704590,29.166016
36760,7.661446,1.010353,0.119710,10.375977,-29.418945,-10.040283,29.185547
36800,9.433155,0.679953,-0.435745,-0.244141,-32.958984,-1.739502,29.146484
36840,11.401189,1.379060,-0.138864,-12.054443,-13.824463,5.249023,29.169922
36880,13.527240,0.129287,0.023942,-19.805908,-5.920410,16.021729,29.175781
36920,13.929465,-0.009577,-0.201113,-52.001953,2.563477,21.209717,29.156250
36960,11.808203,2.140416,-2.260126,-48.339844,73.791504,17.364502,29.183594
37000,9.260772,4.060566,-6.244078,41.046143,-20.965576,-2.838135,29.228516
37040,10.529699,5.813122,-6.478710,9.063721,-28.686523,-3.509521,29.212891
37080,11.348516,5.147533,-2.327164,-6.469727,6.225586,-12.878418,29.214844
37120,9.208099,1.613692,0.775721,-10.559082,52.856445,-13.092041,29.234375
37160,5.985504,0.234632,-0.814029,-40.527344,30.975342,-14.923096,29.230469
37200,4.094085,1.254562,-1.426944,-26.062012,22.552490,-21.423340,29.226562
37240,4.888960,1.819593,-0.847547,-6.591797,13.671875,-11.444092,29.248047
37280,7.335834,1.197101,0.225055,25.573730,-12.817383,-1.953125,29.255859
37320,10.079589,0.847547,1.613692,43.395996,4.150391,9.857178,29.230469
37360,12.928689,0.952892,0.579397,-4.455566,18.005371,1.129150,29.226562
37400,14.633361,2.092532,2.456451,31.463623,23.559570,-17.822266,29.232422
37440,14.599842,1.738190,2.858677,-21.179199,118.255615,-18.524170,29.240234
37480,10.175357,4.908113,-1.790863,-49.316406,-38.574219,-9.429932,29.232422
37520,9.145850,6.009446,-5.334281,23.071289,10.223389,0.122070,29.238281
37560,10.419566,3.198653,-3.016694,20.843506,-17.089844,34.790039,29.267578
37600,10.500969,1.407791,-4.529830,65.643311,-60.028076,33.355713,29.248047
37640,8.427590,0.790087,-1.728614,19.073486,-22.125244,12.817383,29.234375
37680,6.038177,0.790087,0.536301,4.791260,-26.763916,6.286621,29.248047
37720,4.635174,0.593762,-1.125275,2.288818,-35.369873,-6.225586,29.255859
37760,5.789180,1.125275,-0.454898,2.014160,-35.797119,-13.916016,29.244141
37800,8.513782,1.048660,0.339977,7.568359,-28.381348,-14.251709,29.244141
37840,10.266336,0.493206,-0.603339,3.631592,-20.111084,-4.028320,29.230469
37880,12.301409,1.110910,0.033519,-24.871826,-2.105713,10.406494,29.251953
37920,14.030022,-0.062249,-0.426168,-25.360107,-12.756348,15.350342,29.250000
37960,14.274231,0.737414,-0.828394,-56.762695,28.594971,16.876221,29.240234
38000,11.650186,2.331953,-3.098097,-39.703369,54.504395,10.772705,29.250000
38040,9.351752,4.118027,-6.493075,37.658691,-39.672852,-4.669189,29.273438
38080,10.558430,6.172252,-5.525817,16.021729,1.190186,-8.972168,29.248047
38120,10.591949,4.060566,-1.335965,29.693604,35.858154,-17.303467,29.261719
38160,8.379706,0.641646,0.541090,-21.179199,56.854248,-17.700195,29.255859
38200,5.449203,0.598550,-0.852336,-29.541016,29.449463,-18.707275,29.246094
38240,3.912126,2.073379,-1.154005,-19.226074,31.738281,-16.143799,29.234375
38280,5.114015,2.288857,-0.737414,17.517090,-2.105713,-10.406494,29.267578
38320,7.915231,1.240196,0.497994,44.586182,-11.230469,2.593994,29.275391
38360,10.726024,0.991199,1.613692,20.263672,14.068604,8.728027,29.261719
38400,13.536817,1.910573,1.053449,6.500244,-5.004883,-7.568359,29.253906
38440,14.317327,1.426944,3.275268,35.797119,41.412354,-5.554199,29.257812
38480,13.757083,1.623269,2.451663,-8.575439,101.226807,-4.730225,29.283203
38520,9.964667,4.711789,-2.762909,-46.081543,-72.723389,-11.535645,29.265625
38560,8.494628,6.009446,-4.156334,19.104004,32.562256,1.129150,29.287109
38600,9.998186,3.586514,-1.661576,13.610840,-25.512695,43.548584,29.263672
38640,10.395624,1.403002,-4.328717,79.589844,-73.516846,33.203125,29.273438
38680,8.499416,0.742203,-1.968034,1.403809,-19.165039,7.293701,29.250000
38720,6.282385,1.173159,0.665588,-10.437012,-28.930664,7.812500,29.273438
38760,5.410896,0.991199,-0.598550,-14.160156,-24.383545,-1.861572,29.267578
38800,6.531382,0.837971,-0.320823,3.814697,-25.695801,-9.216309,29.285156
38840,8.374918,0.823605,-0.454898,16.998291,-29.296875,-9.918213,29.257812
38880,9.902418,1.019930,-0.689530,7.598877,-28.472900,-3.570557,29.267578
38920,12.258312,1.455675,0.392649,-23.590088,-4.821777,7.781982,29.279297
38960,14.058752,0.292093,0.301669,-34.149170,-11.230469,14.343262,29.263672
39000,14.274231,0.847547,-0.507571,-63.171387,24.536133,17.852783,29.339844
39040,11.501745,2.461239,-2.523489,-47.149658,57.312012,12.939453,29.318359
39080,8.916007,3.840300,-6.191406,43.731689,-32.775879,0.854492,29.330078
39120,10.194510,5.774815,-5.985504,8.728027,-25.085449,-6.622314,29.326172
39160,10.467450,4.606444,-1.043872,-6.561279,17.120361,-15.350342,29.332031
39200,8.164227,1.283292,1.077391,-27.343750,44.433594,-11.047363,29.326172
39240,5.525817,0.383072,-0.881066,-51.177979,25.817871,-15.258789,29.318359
39280,4.276044,1.608904,-1.450886,-35.125732,36.499023,-16.418457,29.326172
39320,5.535394,1.666364,-0.694318,7.324219,-2.319336,-8.178711,29.332031
39360,8.221688,0.876278,0.430956,33.538818,-19.805908,2.593994,29.318359
39400,10.864887,0.943315,1.857901,30.731201,11.505127,11.016846,29.341797
39440,13.599066,1.565808,0.809240,-3.845215,10.223389,-6.286621,29.355469
39480,14.489709,1.757344,3.222595,30.883789,46.020508,-7.049561,29.349609
39520,13.800179,2.049437,2.288857,-26.611328,85.845947,-13.458252,29.322266
39560,9.141062,5.070919,-2.398990,-35.308838,-64.880371,1.861572,29.339844
39600,8.939949,5.554548,-4.424485,29.541016,19.378662,-2.746582,29.332031
39640,10.371682,2.485181,-2.667141,18.981934,-23.376465,39.184570,29.332031
39680,10.635044,0.885855,-4.697424,73.577881,-55.847168,23.040771,29.339844
39720,8.446744,1.125275,-1.489193,9.582520,-7.324219,12.512207,29.339844
39760,6.086061,1.120486,0.440533,1.007080,-31.616211,9.033203,29.322266
39800,4.999093,0.363919,-1.187524,10.772705,-35.827637,-6.835938,29.345703
39840,6.263232,0.828394,-0.363919,11.383057,-31.127930,-13.366699,29.355469
39880,8.518570,1.010353,0.081403,7.659912,-23.254395,-12.542725,29.335938
39920,9.940725,0.617704,-0.646434,5.828857,-19.744873,-3.967285,29.330078
39960,12.052411,0.943315,-0.086191,-31.158447,-1.068115,10.284424,29.351562
40000,13.948619,0.110133,-0.253785,-22.766113,-15.625000,14.617920,29.367188
40040,14.092271,-0.067038,0.478840,-53.985596,9.765625,16.387939,29.359375
40080,11.468226,2.006341,-1.699883,-49.682617,89.111328,13.946533,29.351562
40120,8.556877,3.620033,-6.828263,79.620361,-62.652588,-11.291504,29.369141
40160,9.993398,4.213795,-6.962338,27.923584,-30.578613,-1.342773,29.335938
40200,11.722012,4.697424,-1.762132,-51.116943,26.947021,-8.483887,29.349609
40240,9.332599,2.542642,1.628057,-12.390137,61.462402,-15.075684,29.361328
40280,6.138733,0.876278,-0.890643,-20.690918,25.207520,-18.005371,29.339844
40320,4.534618,0.962469,-2.126051,-19.775391,43.670654,-20.019531,29.361328
40360,5.090073,1.335965,-1.144428,-14.099121,12.573242,-17.303467,29.351562
40400,7.249643,1.407791,0.349553,30.273438,-22.277832,-7.232666,29.347656
40440,9.677363,1.268927,1.896208,35.095215,-6.225586,9.735107,29.345703
40480,12.717999,0.952892,1.000776,3.387451,11.474609,6.988525,29.345703
40520,14.532804,1.379060,1.958457,27.282715,13.946533,-10.986328,29.369141
40560,14.858416,1.455675,2.786851,-9.765625,119.079590,-24.597168,29.363281
40600,10.539276,5.056554,-1.441309,-37.506104,-32.501221,-17.761230,29.349609
40640,7.996634,6.220136,-4.170700,-0.793457,-15.197754,12.268066,29.353516
40680,10.160992,3.921702,-3.016694,12.359619,-11.016846,34.790039,29.363281
40720,10.615891,1.953669,-4.505888,68.389893,-65.765381,39.367676,29.367188
40760,8.872911,1.096544,-1.896208,10.437012,-12.969971,9.674072,29.371094
40800,6.378153,0.890643,0.948104,-17.578125,-28.839111,11.169434,29.355469
40840,4.932055,0.766145,-1.015141,-8.880615,-30.883789,-4.180908,29.378906
40880,5.923255,0.737414,-0.526724,4.699707,-24.383545,-12.695312,29.371094
40920,8.427590,0.723049,0.268151,18.554688,-27.282715,-12.908936,29.359375
40960,10.170568,0.665588,-0.359130,7.904053,-17.486572,-0.061035,29.404297
41000,12.301409,1.470040,0.287304,-23.193359,-1.983643,10.894775,29.404297
41040,13.718776,0.335188,0.248997,-27.435303,-11.932373,16.082764,29.427734
41080,13.350069,0.383072,-0.186748,-59.661865,12.939453,20.904541,29.421875
41120,11.152191,2.269703,-2.868254,-50.842285,69.793701,15.319824,29.423828
41160,8.939949,3.576937,-6.224925,46.203613,-39.703369,-2.868652,29.433594
41200,10.524911,4.845864,-6.344635,4.089355,-26.458740,-7.476807,29.427734
41240,11.520899,4.606444,-1.259350,-7.873535,44.982910,-17.822266,29.427734
41280,9.289502,1.594538,1.632846,-16.326904,63.751221,-18.280029,29.417969
41320,6.052542,0.727837,-0.794875,-39.306641,20.721436,-23.193359,29.437500
41360,4.290410,1.537078,-1.632846,-21.972656,37.322998,-14.312744,29.447266
41400,4.903325,1.829170,-0.837971,14.709473,0.549316,-12.481689,29.416016
41440,7.326257,1.268927,0.464475,46.783447,-22.094727,-0.244141,29.406250
41480,10.467450,0.914585,2.159570,35.797119,0.854492,9.552002,29.425781
41520,13.546393,1.268927,1.316811,-0.976562,8.483887,0.915527,29.408203
41560,14.216769,1.561020,2.959233,43.884277,31.372070,-4.089355,29.429688
41600,13.910312,1.312023,3.155558,-11.230469,113.586426,-9.704590,29.410156
41640,10.156203,4.683059,-2.513912,-40.466309,-66.345215,-7.568359,29.441406
41680,8.791509,5.731719,-4.400543,22.949219,24.536133,1.586914,29.439453
41720,10.070012,3.169923,-1.963245,21.759033,-32.287598,37.384033,29.433594
41760,10.419566,1.431733,-4.793192,79.986572,-77.880859,24.810791,29.437500
41800,8.858546,1.077391,-1.991976,1.342773,-8.239746,9.521484,29.433594
41840,6.842628,1.034295,1.125275,-5.645752,-20.385742,9.857178,29.439453
41880,5.453991,0.574608,-1.015141,1.800537,-30.853271,-2.044678,29.451172
41920,5.908890,0.881066,-0.890643,14.343262,-33.325195,-11.016846,29.429688
41960,7.891289,1.039083,0.019154,20.721436,-32.745361,-12.634277,29.439453
42000,9.883265,0.895431,0.043096,-2.838135,-23.681641,-2.655029,29.423828
42040,12.105083,1.254562,0.316035,-33.447266,1.373291,9.063721,29.433594
42080,13.723564,0.038307,-0.167594,-28.503418,-17.333984,14.282227,29.437500
42120,14.240712,0.699107,-0.488417,-64.605713,20.019531,19.775391,29.451172
42160,11.300632,2.384625,-2.485181,-44.738770,62.927246,11.932373,29.439453
42200,9.064447,3.998317,-6.751649,65.185547,-47.637939,-5.279541,29.425781
42240,10.591949,5.865794,-6.560112,11.505127,-21.270752,-11.230469,29.447266
42280,10.994174,4.070143,-1.158794,-5.279541,30.914307,-17.730713,29.453125
42320,8.384495,0.905008,1.039083,-20.599365,52.917480,-18.707275,29.466797
42360,5.382165,0.646434,-0.938527,-61.645508,30.517578,-23.895264,29.457031
42400,4.146757,1.776498,-0.938527,-23.956299,31.341553,-15.502930,29.445312
42440,5.588067,1.838747,-0.301669,13.977051,-8.575439,-10.772705,29.453125
42480,8.255207,1.000776,0.521936,42.846680,-6.988525,2.197266,29.439453
42520,11.195287,0.761356,1.546654,30.334473,17.059326,5.889893,29.443359
42560,14.034810,1.709460,1.144428,-6.469727,-2.532959,-8.911133,29.457031
42600,14.944607,2.331953,2.906561,12.542725,70.892334,-14.465332,29.443359
42640,14.173674,3.203442,0.881066,-27.587891,78.887939,-42.633057,29.457031
42680,7.393295,4.601655,-2.504335,-53.314209,-98.907471,23.284912,29.480469
42720,9.442732,4.582502,-3.998317,28.961182,33.691406,17.333984,29.460938
42760,10.055647,2.499547,-3.797204,33.630371,-59.936523,55.816650,29.470703
42800,9.691729,1.776498,-3.883395,82.885742,-38.635254,10.833740,29.460938
42840,7.546524,0.632069,0.205901,1.586914,-13.397217,9.155273,29.496094
42880,5.501875,0.746991,-0.339977,11.413574,-42.602539,0.701904,29.455078
42920,5.252879,0.507571,-1.273715,19.500732,-28.686523,-12.298584,29.474609
42960,7.297527,0.890643,-0.124498,20.111084,-26.245117,-15.106201,29.501953
43000,9.136273,0.689530,-0.301669,16.204834,-15.930176,-9.643555,29.500000
43040,10.831368,0.823605,-0.565032,1.953125,-14.129639,-0.885010,29.496094
43080,13.096283,0.296881,-0.119710,-20.141602,-2.990723,14.221191,29.505859
43120,14.025233,-0.158017,-1.063026,-26.733398,-4.943848,17.333984,29.529297
43160,13.675680,1.829170,-1.470040,-81.024170,58.135986,19.958496,29.507812
43200,10.386047,2.959233,-4.299986,-1.617432,12.329102,6.103516,29.494141
43240,9.739613,5.468357,-6.488286,13.092041,-32.470703,-7.080078,29.513672
43280,10.424355,6.344635,-2.844312,18.310547,23.925781,-19.012451,29.531250
43320,9.289502,2.604892,0.435745,-4.272461,52.124023,-16.601562,29.541016
43360,6.588843,0.201113,-0.234632,-50.079346,40.161133,-17.120361,29.533203
43400,4.572925,0.948104,-1.335965,-39.825439,32.714844,-19.927979,29.521484
43440,4.635174,2.197877,-0.541090,-5.157471,19.897461,-9.643555,29.529297
43480,6.981492,1.685518,0.201113,33.752441,-18.676758,-5.065918,29.529297
43520,9.658210,0.799663,1.661576,52.947998,-9.216309,9.674072,29.525391
43560,12.478580,0.675165,1.604115,10.131836,20.538330,11.444092,29.505859
43600,14.140155,2.130840,2.087744,25.360107,13.854980,-6.164551,29.500000
43640,14.307750,1.618480,3.768473,8.239746,111.022949,-6.378174,29.511719
43680,11.425131,4.328717,-1.039083,-44.769287,-21.301270,-7.659912,29.505859
43720,8.595184,5.932832,-4.563348,7.080078,-29.205322,12.084961,29.531250
43760,10.084377,3.845088,-2.681506,25.756836,-4.913330,32.989502,29.490234
43800,10.496181,1.599327,-3.979163,68.847656,-69.671631,32.073975,29.535156
43840,8.868123,0.938527,-2.834735,30.883789,-33.508301,6.805420,29.531250
43880,6.713342,0.943315,0.751779,-23.284912,-19.500732,8.880615,29.505859
43920,5.272032,0.646434,-0.679953,5.371094,-35.614014,-3.479004,29.535156
43960,5.793968,0.785298,-0.766145,1.068115,-31.951904,-9.643555,29.531250
44000,7.963115,1.067814,0.009577,12.084961,-28.503418,-12.237549,29.529297
44040,9.605537,0.612916,-0.320823,4.638672,-22.521973,-2.838135,29.529297
44080,11.520899,1.211466,-0.043096,-22.308350,-3.570557,6.103516,29.513672
44120,13.713987,0.181959,-0.244209,-22.369385,-9.429932,15.380859,29.519531
44160,14.681245,0.320823,-0.919373,-49.133301,1.220703,18.646240,29.519531
44200,12.416330,2.001553,-1.766921,-66.406250,72.509766,15.625000,29.509766
44240,9.107543,3.404555,-5.774815,39.398193,-19.866943,1.037598,29.523438
44280,9.619903,5.674258,-6.751649,17.608643,-32.409668,-8.911133,29.525391
44320,10.678140,5.042189,-2.197877,6.713867,12.878418,-19.165039,29.539062
44360,9.165004,1.312023,0.847547,-5.554199,52.886963,-16.723633,29.525391
44400,6.359000,0.167594,-0.636858,-51.147461,30.853271,-17.700195,29.544922
44440,4.596867,1.331176,-1.067814,-28.961182,31.127930,-17.517090,29.525391
44480,5.152322,1.810017,-0.646434,6.591797,9.826660,-9.399414,29.546875
44520,7.350199,1.149217,0.071826,35.003662,-15.136719,2.777100,29.529297
44560,9.825804,0.837971,1.450886,30.364990,-2.655029,17.608643,29.539062
44600,12.469003,1.623269,0.699107,-8.544922,-0.122070,6.561279,29.533203
44640,14.561535,1.551443,2.269703,35.461426,23.773193,-8.392334,29.515625
44680,15.557523,1.450886,2.331953,-35.034180,133.117676,-28.839111,29.529297
44720,10.386047,5.032612,-1.896208,-34.423828,-61.737061,12.023926,29.535156
44760,8.236053,5.487510,-3.806781,16.876221,-3.570557,9.490967,29.544922
44800,9.112331,3.213019,-2.466028,-7.263184,-18.096924,35.949707,29.544922
44840,9.864111,1.982399,-4.510676,73.394775,-55.206299,26.611328,29.546875
44880,9.212888,1.168370,-1.561020,35.034180,-26.214600,8.880615,29.542969
44920,7.168240,0.565032,1.273715,-17.150879,-19.744873,12.542725,29.603516
44960,5.468357,0.454898,-1.412579,-13.488770,-33.416748,-0.335693,29.587891
45000,6.162675,0.790087,-0.488417,-0.152588,-30.120850,-6.713867,29.617188
45040,8.192958,0.857124,0.181959,1.129150,-25.146484,-5.340576,29.603516
45080,9.576807,0.383072,-0.545878,-7.049561,-25.329590,3.662109,29.607422
45120,11.377247,0.450110,-0.411803,-16.998291,-20.355225,13.641357,29.603516
45160,13.369223,-0.392649,-0.411803,-24.444580,-16.845703,21.789551,29.597656
45200,14.082694,0.952892,-1.134852,-67.871094,15.777588,26.031494,29.611328
45240,12.421119,3.227384,-2.226608,-74.707031,69.641113,17.059326,29.609375
45280,9.782708,5.698200,-6.191406,-9.338379,-31.524658,-4.302979,29.591797
45320,9.548077,7.714118,-5.722142,-41.503906,-30.395508,-18.188477,29.597656
45360,10.184934,5.214571,-0.316035,-18.341064,17.150879,-25.543213,29.587891
45400,8.614338,1.680730,-0.579397,-48.767090,20.507812,-21.179199,29.607422
45440,6.397307,0.430956,-1.690306,-83.770752,15.106201,-16.510010,29.607422
45480,5.080496,1.316811,-0.828394,-47.241211,-9.216309,-10.925293,29.613281
45520,5.750873,1.848324,-0.129287,-28.259277,-17.761230,2.593994,29.585938
45560,7.790732,1.493982,0.742203,20.080566,-18.249512,18.707275,29.611328
45600,10.137050,0.905008,1.513135,18.280029,12.603760,28.717041,29.601562
45640,11.607090,1.699883,0.186748,-37.994385,7.537842,23.895264,29.615234
45680,12.574347,3.667917,1.628057,4.882812,11.627197,6.835938,29.611328
45720,13.843274,4.290410,1.292869,-94.360352,75.103760,2.349854,29.613281
45760,10.769119,5.961562,-2.801216,-88.195801,-24.505615,17.547607,29.605469
45800,9.093178,4.730943,-4.199430,-58.410645,-23.834229,4.608154,29.597656
45840,9.888053,3.016694,-3.394978,-40.435791,-29.022217,13.702393,29.597656
45880,9.691729,2.542642,-3.409343,-26.336670,-52.490234,14.099121,29.605469
45920,8.331821,1.948880,-1.546654,-123.992920,-22.583008,16.174316,29.623047
45960,7.316680,1.355118,-0.507571,-98.449707,-32.867432,18.066406,29.619141
46000,7.077260,0.646434,-2.255338,-93.688965,-40.161133,14.068604,29.626953
46040,7.603985,0.804452,-1.671153,-63.751221,-33.508301,8.209229,29.591797
46080,8.609550,0.464475,0.057461,-42.114258,-26.092529,7.446289,29.607422
46120,9.969456,-0.162806,-0.569820,-23.376465,-13.977051,6.408691,29.611328
46160,11.769896,0.857124,0.699107,-22.521973,8.728027,5.279541,29.603516
46200,12.210428,1.546654,1.604115,-67.230225,28.656006,6.774902,29.613281
46240,11.286267,1.479617,-0.842759,-119.018555,64.331055,10.314941,29.625000
46280,10.017340,2.552219,-4.266468,-24.322510,17.242432,1.068115,29.599609
46320,9.083601,2.882619,-7.460332,106.994629,-44.616699,-18.524170,29.613281
46360,11.626244,2.207454,-5.592855,16.326904,10.498047,-15.045166,29.619141
46400,11.951855,1.599327,-0.268151,-47.180176,52.551270,-20.446777,29.613281
46440,9.490616,2.442086,-0.828394,34.759521,21.850586,-18.402100,29.617188
46480,7.848193,1.604115,-2.590526,79.284668,12.390137,-18.341064,29.626953
46520,7.129933,0.426168,-2.011129,52.886963,21.881104,-18.676758,29.607422
46560,6.804321,0.603339,-1.651999,113.739014,9.643555,-18.218994,29.607422
46600,7.647080,0.124498,-1.422156,119.201660,7.781982,-12.207031,29.650391
46640,9.303867,1.086968,-0.579397,69.793701,18.157959,-7.904053,29.625000
46680,10.390836,1.618480,-0.277727,93.627930,22.552490,-6.683350,29.626953
46720,10.726024,0.186748,0.071826,69.488525,52.490234,9.948730,29.640625
46760,10.936713,1.551443,-4.041412,82.580566,-0.518799,1.403809,29.628906
46800,11.109096,1.958457,-5.755661,103.881836,-10.345459,-24.658203,29.640625
46840,10.682928,0.746991,-3.763685,114.166260,-19.042969,-7.110596,29.628906
46880,9.385271,1.048660,-2.762909,68.420410,-9.765625,2.807617,29.619141
46920,7.809886,0.593762,-1.762132,69.824219,-14.190674,-4.730225,29.675781
46960,7.034164,-0.239420,-1.900996,84.075928,-23.559570,-14.953613,29.666016
47000,7.852982,0.316035,-1.948880,67.413330,-16.204834,-14.434814,29.685547
47040,9.136273,0.555455,-1.661576,56.274414,-4.608154,-15.960693,29.705078
47080,9.471462,-0.095768,-1.872266,55.786133,-5.767822,-16.967773,29.660156
47120,9.552865,-0.497994,-2.025495,52.215576,-8.728027,-13.580322,29.666016
47160,10.821792,-0.861913,-1.891419,47.760010,-7.049561,-7.904053,29.685547
47200,11.947066,-1.206678,-1.403002,53.558350,-0.885010,-2.349854,29.693359
47240,11.774684,-1.096544,-0.349553,24.017334,16.693115,5.249023,29.681641
47280,10.975020,0.234632,-1.465251,-22.521973,59.539795,15.533447,29.689453
47320,9.399636,2.422932,-4.074931,-4.333496,43.762207,5.798340,29.687500
47360,8.805874,4.592079,-5.793968,83.068848,-25.451660,-25.268555,29.691406
47400,10.668563,5.607220,-4.290410,33.264160,5.218506,-13.732910,29.703125
47440,11.348516,3.797204,-0.885855,-30.883789,46.386719,-8.056641,29.695312
47480,9.428367,1.623269,0.028730,10.070801,36.499023,-13.549805,29.681641
47520,7.354988,1.010353,-1.838747,-11.138916,25.512695,-10.345459,29.693359
47560,6.435614,1.350330,-1.810017,-1.800537,14.892578,-5.310059,29.695312
47600,6.751649,1.637634,-0.718261,12.298584,-3.662109,-0.823975,29.689453
47640,7.632715,1.508347,0.426168,4.913330,-7.965088,9.002686,29.671875
47680,8.949526,1.177947,1.541866,16.204834,5.798340,15.502930,29.683594
47720,10.663774,1.043872,0.062249,-1.861572,6.805420,18.737793,29.693359
47760,11.846510,1.503559,0.225055,23.834229,-8.300781,13.458252,29.687500
47800,13.115437,0.699107,3.251326,14.678955,63.110352,25.939941,29.708984
47840,10.558430,2.059013,-0.962469,-104.705811,17.364502,35.644531,29.691406
47880,8.662222,5.650316,-6.560112,5.615234,-22.857666,-7.781982,29.697266
47920,11.003751,5.267244,-4.927267,72.387695,9.613037,-11.535645,29.675781
47960,12.392388,1.886631,-2.020706,-9.796143,-43.273926,10.467529,29.701172
48000,10.496181,0.924162,-0.158017,-69.671631,-16.143799,12.969971,29.683594
48040,7.422025,1.771709,-0.148441,-38.513184,-31.127930,7.202148,29.695312
48080,5.779603,2.059013,-1.900996,-77.178955,-46.386719,6.378174,29.683594
48120,6.200983,1.838747,-1.168370,-69.305420,-46.875000,2.624512,29.708984
48160,7.350199,0.919373,-0.478840,-64.147949,-38.146973,1.434326,29.689453
48200,8.662222,0.670376,-0.818817,-50.567627,-30.883789,3.906250,29.708984
48240,10.946290,0.627281,-0.019154,-55.175781,-9.399414,12.878418,29.697266
48280,12.607866,0.541090,0.651223,-61.248779,-10.070801,19.622803,29.689453
48320,13.493721,1.383849,-0.675165,-90.606689,39.978027,24.475098,29.689453
48360,10.927136,2.652776,-3.294421,-88.256836,38.330078,8.972168,29.699219
48400,8.513782,4.807557,-6.387730,7.843018,-42.816162,-17.791748,29.699219
48440,10.328587,5.851429,-5.851429,-59.143066,-52.429199,-8.483887,29.724609
48480,11.990162,3.026271,0.090980,-70.770264,9.368896,-11.871338,29.712891
48520,9.533711,0.651223,-0.440533,-33.081055,35.400391,-9.979248,29.710938
48560,6.416461,0.162806,-1.556231,-81.970215,48.583984,-10.467529,29.724609
48600,4.927267,1.053449,-0.196325,-40.527344,10.345459,-12.237549,29.705078
48640,6.196194,1.096544,0.234632,-6.683350,-12.664795,-4.272461,29.730469
48680,8.379706,0.727837,1.106121,30.456543,-8.178711,4.119873,29.703125
48720,10.534488,0.450110,1.283292,33.660889,24.291992,10.650635,29.703125
48760,13.101071,1.991976,0.732626,9.490967,6.744385,-5.645752,29.710938
48800,13.728353,1.838747,3.270479,23.864746,66.589355,-4.974365,29.736328
48840,12.761095,3.150769,-0.344765,-95.947266,62.011719,5.340576,29.718750
48880,10.055647,5.540183,-5.046977,6.469727,-38.696289,7.232666,29.746094
48920,10.486604,2.901772,-4.812346,26.855469,3.143311,-9.155273,29.748047
48960,10.912771,0.828394,-4.137180,41.259766,-49.407959,22.033691,29.767578
49000,9.634268,1.254562,-2.537854,25.329590,-23.437500,10.650635,29.724609
49040,7.067683,1.249773,0.181959,20.111084,-20.263672,9.857178,29.771484
49080,5.367800,0.785298,-0.804452,24.200439,-31.646729,-4.272461,29.753906
49120,5.602432,0.612916,-0.742203,4.791260,-28.564453,-12.268066,29.763672
49160,7.105990,0.646434,-0.114922,2.014160,-21.179199,-14.434814,29.753906
49200,8.719683,-0.296881,-0.521936,14.068604,-23.956299,-12.329102,29.773438
49240,10.831368,0.373495,-0.354342,-3.448486,-20.355225,-1.800537,29.746094
49280,13.201628,0.105345,0.033519,-35.095215,-0.762939,13.671875,29.763672
49320,14.087482,-0.919373,-1.048660,-43.334961,9.094238,20.019531,29.744141
49360,12.885593,0.723049,-3.529053,-37.841797,55.572510,17.913818,29.742188
49400,10.065224,2.930503,-5.827487,8.636475,6.072998,1.098633,29.767578
49440,11.046846,5.774815,-4.946421,26.580811,-15.563965,-13.427734,29.769531
49480,11.549629,5.209783,-2.140416,53.070068,17.364502,-26.977539,29.763672
49520,9.447520,1.268927,-0.675165,7.659912,55.603027,-14.129639,29.763672
49560,6.224925,-0.445322,-0.502782,-27.954102,28.472900,-18.035889,29.761719
49600,3.878607,1.106121,-0.526724,0.122070,33.447266,-19.104004,29.753906
49640,3.936068,2.049437,-0.454898,40.405273,16.265869,-12.969971,29.763672
49680,6.397307,1.067814,0.239420,75.531006,0.457764,-3.021240,29.763672
49720,10.328587,0.392649,1.695095,94.451904,5.828857,5.889893,29.773438
49760,13.374011,0.689530,1.551443,39.428711,28.045654,10.925293,29.767578
49800,13.953407,1.872266,2.657564,42.480469,27.282715,7.171631,29.767578
49840,11.793838,1.182736,3.074155,-13.702393,91.461182,15.045166,29.771484
49880,9.734824,4.975151,-5.760449,-115.722656,-53.649902,3.021240,29.783203
49920,12.368446,6.296751,-7.335834,52.276611,4.241943,-13.336182,29.771484
49960,12.947843,3.011906,-2.887407,55.541992,-69.732666,10.192871,29.777344
50000,9.964667,1.005565,-1.470040,-51.086426,-13.000488,12.786865,29.767578
50040,5.975927,0.656011,-0.114922,-78.094482,-45.227051,6.195068,29.763672
50080,4.209007,1.254562,-0.751779,-46.325684,-42.449951,-4.028320,29.763672
50120,6.737284,0.885855,-0.588974,-10.192871,-55.053711,-4.913330,29.757812
50160,11.156980,-0.928950,0.656011,3.692627,-28.472900,11.657715,29.781250
50200,14.432248,-0.373495,2.183512,-21.575928,20.202637,19.653320,29.777344
50240,13.555970,0.301669,1.072602,-25.085449,29.083252,17.608643,29.787109
50280,10.515334,1.829170,-1.364695,-64.788818,44.189453,15.686035,29.771484
50320,9.868899,5.176264,-5.291186,-1.983643,-7.385254,-2.807617,29.785156
50360,11.506534,5.319916,-6.373365,-5.676270,-44.708252,-21.087646,29.750000
50400,12.612655,4.735731,-3.797204,11.505127,19.561768,-16.479492,29.794922
50440,10.256760,2.039860,0.014365,-27.435303,68.664551,-7.904053,29.777344
50480,6.042965,0.952892,0.689530,-31.646729,50.720215,-10.009766,29.796875
50520,3.361459,0.574608,-1.182736,-5.310059,18.402100,-15.441895,29.800781
50560,3.083732,0.617704,-1.733402,42.205811,-13.244629,-27.526855,29.767578
50600,6.622362,1.618480,1.043872,97.076416,9.063721,-19.317627,29.802734
50640,12.966996,1.177947,2.624045,43.395996,52.856445,5.310059,29.789062
50680,15.461755,2.427721,2.193089,12.512207,11.993408,-13.244629,29.792969
50720,14.192827,2.509123,2.758120,2.471924,83.831787,-26.611328,29.812500
50760,10.467450,4.687847,-2.121263,-77.362061,-64.147949,-36.529541,29.820312
50800,9.188946,6.607996,-4.707001,-0.946045,-19.714355,19.958496,29.787109
50840,10.745177,4.443638,-3.083732,22.369385,-43.304443,50.201416,29.804688
50880,10.328587,2.293645,-3.634398,50.781250,-63.629150,45.837402,29.833984
50920,7.522582,0.909797,-1.345541,-37.994385,-7.873535,15.167236,29.851562
50960,4.280833,1.063026,0.229843,-16.174316,-30.731201,5.523682,29.847656
51000,3.778050,0.727837,-0.804452,6.500244,-26.855469,-6.378174,29.833984
51040,6.627151,-0.196325,-0.545878,-1.617432,-29.937744,-8.850098,29.826172
51080,9.983821,-0.076614,-0.842759,1.495361,-32.623291,0.305176,29.857422
51120,12.852075,1.039083,0.378284,-9.765625,6.561279,9.765625,29.833984
51160,14.925453,0.450110,0.497994,-17.333984,10.162354,14.923096,29.839844
51200,14.863204,0.440533,-0.608127,-53.070068,25.451660,11.901855,29.835938
51240,12.085930,2.662352,-2.116474,-29.724121,31.127930,5.157471,29.853516
51280,9.639056,4.204218,-5.698200,35.461426,-32.775879,-3.875732,29.845703
51320,10.548853,6.129156,-5.501875,26.489258,2.960205,-10.101318,29.843750
51360,10.113108,4.381389,-2.422932,29.724121,21.575928,-12.359619,29.865234
51400,7.752425,1.292869,0.234632,-26.428223,64.025879,-9.704590,29.853516
51440,4.276044,0.986411,0.191536,-34.881592,36.041260,-13.336182,29.839844
51480,3.217807,1.192312,-1.259350,-2.166748,16.174316,-18.402100,29.835938
51520,4.893748,1.671153,-0.861913,35.858154,-6.744385,-15.563965,29.832031
51560,8.724471,1.781286,1.417367,62.652588,0.854492,-5.065918,29.865234
51600,12.962208,1.278504,2.025495,6.805420,40.069580,5.126953,29.855469
51640,15.002068,2.389413,1.288081,3.143311,-5.126953,-16.113281,29.843750
51680,15.246277,2.087744,2.930503,2.532959,79.803467,-29.937744,29.861328
51720,11.334151,4.165911,-0.679953,-64.910889,-4.486084,-29.113770,29.855469
51760,6.880936,6.349423,-3.988740,-31.372070,-65.704346,39.642334,29.855469
51800,9.524135,4.663905,-3.289633,29.022217,11.535645,39.276123,29.863281
51840,10.184934,1.982399,-3.241749,51.757812,-52.520752,49.316406,29.865234
51880,8.686164,0.612916,-2.015918,-11.718750,-29.602051,13.397217,29.871094
51920,6.042965,1.110910,0.110133,-23.315430,-25.634766,8.392334,29.875000
51960,4.635174,1.168370,-0.488417,10.437012,-35.980225,-3.967285,29.869141
52000,5.951985,0.679953,-0.574608,-1.617432,-24.078369,-12.695312,29.859375
52040,8.518570,0.220267,-0.612916,19.317627,-39.184570,-10.681152,29.867188
52080,10.735600,0.512359,-0.737414,-11.688232,-18.951416,0.732422,29.863281
52120,13.249513,1.527501,0.828394,-25.573730,2.288818,16.510010,29.871094
52160,14.595054,0.517148,0.124498,-25.573730,5.035400,11.322021,29.878906
52200,13.464991,1.034295,-0.675165,-61.676025,40.374756,7.995605,29.873047
52240,11.722012,3.193865,-2.006341,-63.232422,46.539307,2.899170,29.843750
52280,9.653421,5.272032,-6.028600,48.645020,-53.375244,-11.016846,29.845703
52320,10.175357,5.377377,-5.396531,28.594971,-11.383057,-16.387939,29.882812
52360,10.395624,3.591303,-0.737414,-4.699707,47.607422,-15.594482,29.861328
52400,8.034941,1.881842,0.852336,-20.019531,39.642334,-12.725830,29.873047
52440,5.104438,1.671153,-0.181959,-28.350830,36.346436,-15.075684,29.859375
52480,4.156334,1.417367,-1.019930,-2.471924,20.599365,-13.397217,29.869141
52520,4.999093,1.240196,-0.636858,12.023926,-9.857178,-9.399414,29.865234
52560,7.374141,1.335965,0.881066,47.851562,0.701904,2.899170,29.867188
52600,11.171345,1.086968,1.982399,36.346436,32.592773,11.169434,29.875000
52640,14.911088,2.221819,1.221043,3.143311,7.385254,-17.974854,29.873047
52680,14.738706,2.585738,3.615245,23.803711,59.112549,-12.878418,29.863281
52720,12.804191,3.327940,1.297657,-35.552979,31.860352,-20.477295,29.882812
52760,7.757214,5.688623,-3.184288,-49.865723,-92.895508,13.854980,29.863281
52800,8.978256,5.324705,-3.811569,16.052246,11.413574,20.324707,29.863281
52840,9.993398,2.834735,-2.911349,27.832031,-44.128418,60.150146,29.927734
52880,9.552865,1.465251,-2.949656,54.473877,-41.168213,20.965576,29.908203
52920,7.441179,0.895431,-0.359130,-37.933350,-14.617920,12.512207,29.925781
52960,5.319916,1.312023,-0.474052,-8.178711,-38.513184,6.347656,29.941406
53000,5.430049,0.890643,-0.612916,-0.427246,-16.387939,-5.737305,29.931641
53040,7.407660,0.742203,-0.368707,11.840820,-26.580811,-9.826660,29.931641
53080,9.054871,0.703895,-0.775721,13.336182,-30.364990,-5.035400,29.933594
53120,11.276690,1.173159,0.086191,-8.941650,-8.453369,0.061035,29.912109
53160,13.953407,0.483629,0.809240,-32.806396,5.798340,13.916016,29.921875
53200,14.437037,-0.181959,-0.296881,-30.548096,1.770020,9.399414,29.917969
53240,13.402741,1.608904,-1.130063,-91.461182,62.408447,16.174316,29.943359
53280,10.457873,3.643975,-4.060566,-10.986328,8.148193,-0.091553,29.931641
53320,9.366117,5.602432,-6.507440,43.334961,-52.276611,-12.390137,29.921875
53360,10.328587,5.315128,-3.711013,43.670654,4.180908,-21.942139,29.951172
53400,9.208099,2.384625,-0.114922,-2.593994,42.480469,-20.538330,29.957031
53440,6.239290,1.072602,0.727837,-61.492920,47.607422,-21.301270,29.931641
53480,4.419696,1.470040,-0.421380,-19.470215,33.203125,-13.580322,29.943359
53520,5.070919,1.508347,-0.967257,-11.840820,-9.246826,-15.563965,29.921875
53560,7.091625,1.364695,0.143652,30.151367,-23.040771,1.464844,29.929688
53600,9.342175,1.398214,1.800440,35.064697,9.094238,13.366699,29.925781
53640,12.066776,1.489193,1.503559,0.793457,30.944824,5.004883,29.955078
53680,13.891158,2.537854,1.537078,11.352539,7.995605,-13.031006,29.933594
53720,14.958972,1.833959,2.815581,-5.645752,102.355957,-28.625488,29.951172
53760,11.698070,4.031836,-0.555455,-50.415039,-5.767822,-30.151367,29.914062
53800,7.398083,5.789180,-3.701436,-27.069092,-45.501709,33.874512,29.937500
53840,9.519346,3.639187,-3.414132,20.477295,-17.028809,33.660889,29.931641
53880,10.563218,1.680730,-4.323928,60.668945,-61.309814,42.480469,29.941406
53920,9.169792,1.086968,-2.126051,24.291992,-16.906738,8.789062,29.935547
53960,6.363788,1.043872,0.373495,-3.143311,-29.449463,10.986328,29.935547
54000,4.812346,0.905008,-0.885855,22.064209,-40.344238,-5.401611,29.943359
54040,5.937620,0.660800,-0.598550,14.373779,-19.989014,-13.763428,29.970703
54080,8.350976,0.550666,-0.234632,29.113770,-27.099609,-12.786865,29.951172
54120,10.113108,0.397437,-1.034295,18.188477,-27.160645,-5.676270,29.933594
54160,12.741941,1.235408,0.464475,-21.911621,5.218506,9.155273,29.957031
54200,14.456190,0.335188,-0.311246,-23.529053,8.392334,15.472412,29.951172
54240,14.350845,0.952892,-1.479617,-65.002441,35.644531,14.495850,29.962891
54280,11.698070,2.523489,-2.317587,-47.943115,36.071777,9.002686,29.937500
54320,9.126697,4.395754,-5.846641,36.163330,-31.005859,-0.793457,29.962891
54360,9.998186,6.004658,-4.908113,3.112793,7.080078,-17.852783,29.966797
54400,10.007763,4.510676,-0.665588,26.458740,37.506104,-16.357422,29.941406
54440,7.747637,1.604115,0.651223,-33.905029,45.349121,-13.305664,29.953125
54480,5.295974,0.919373,-0.421380,-37.780762,40.557861,-12.084961,29.939453
54520,4.328717,1.288081,-1.053449,-16.357422,24.780273,-11.962891,29.941406
54560,5.439626,1.493982,-0.531513,19.561768,-14.343262,-4.730225,29.960938
54600,7.852982,1.470040,1.043872,34.576416,-9.460449,5.035400,29.960938
54640,10.922348,1.086968,1.948880,29.785156,20.538330,10.345459,29.962891
54680,14.231135,2.006341,1.292869,3.936768,2.288818,-18.188477,29.966797
54720,14.484921,1.628057,4.113238,45.959473,61.279297,-2.410889,29.931641
54760,13.378799,2.375048,2.466028,-28.106689,80.993652,-11.596680,29.937500
54800,8.494628,5.310339,-2.815581,-53.436279,-92.956543,-0.457764,29.951172
54840,8.719683,6.033388,-3.960010,22.216797,33.874512,7.171631,29.990234
54880,10.299856,3.093309,-2.102109,13.427734,-54.687500,52.154541,29.996094
54920,10.673351,1.211466,-4.089296,72.875977,-69.824219,20.324707,29.996094
54960,8.465898,1.091756,-1.393425,-23.681641,-15.411377,9.155273,29.996094
55000,5.990293,1.426944,0.363919,-19.470215,-38.787842,7.537842,29.994141
55040,4.730943,0.938527,-0.751779,-5.645752,-29.113770,-5.523682,30.000000
55080,6.253655,0.794875,-0.306458,12.237549,-31.951904,-14.190674,30.009766
55120,8.753201,0.464475,-0.181959,11.688232,-29.357910,-10.345459,30.001953
55160,10.687716,1.019930,-0.172383,-6.500244,-10.742188,-1.281738,30.009766
55200,13.316550,1.383849,0.397437,-25.238037,-1.037598,12.512207,30.003906
55240,14.623784,0.239420,0.110133,-17.150879,-1.953125,10.437012,30.005859
55280,13.982138,0.962469,-0.474052,-76.721191,49.896240,13.610840,29.984375
55320,10.644621,2.796427,-2.930503,-53.497314,37.506104,5.157471,29.974609
55360,8.748413,4.017470,-6.555324,49.652100,-54.290771,-3.479004,30.001953
55400,10.280702,5.248090,-5.501875,25.451660,0.671387,-10.772705,30.017578
55440,10.362105,3.744531,-0.282516,-7.934570,48.553467,-11.932373,30.025391
55480,7.632715,1.474828,1.733402,-42.083740,52.246094,-12.207031,29.996094
55520,5.262455,1.125275,-0.852336,-30.364990,29.724121,-14.343262,30.013672
55560,4.568137,1.470040,-1.383849,-8.514404,28.991699,-8.422852,30.007812
55600,5.913678,1.168370,-0.205901,20.446777,-8.941650,-5.706787,30.009766
55640,8.202535,0.833182,1.134852,35.583496,-8.422852,7.019043,30.009766
55680,10.836157,0.991199,1.594538,11.383057,16.601562,12.176514,30.003906
55720,13.905523,1.771709,1.302446,18.402100,-6.958008,-8.422852,29.998047
55760,14.781801,0.632069,4.027047,34.332275,74.249268,-3.784180,29.996094
55800,13.661315,2.308010,1.522712,-40.252686,73.272705,-31.066895,30.015625
55840,8.145074,5.999869,-3.385401,-36.804199,-110.137939,9.277344,30.013672
55880,9.184157,5.329493,-3.236961,39.886475,51.574707,6.744385,30.019531
55920,10.271125,2.360683,-2.858677,14.862061,-63.812256,48.980713,30.013672
55960,9.959879,1.517924,-4.213795,73.913574,-49.224854,11.322021,30.013672
56000,7.915231,0.919373,0.220267,-1.342773,-22.552490,7.659912,30.013672
56040,5.913678,0.890643,0.335188,-8.300781,-43.853760,1.922607,30.015625
56080,5.310339,0.679953,-0.900220,-1.647949,-27.893066,-9.002686,29.990234
56120,6.924031,0.995988,-0.167594,12.390137,-34.851074,-14.404297,30.019531
56160,8.968679,0.756568,0.124498,17.822266,-33.386230,-9.887695,30.017578
56200,10.812215,1.010353,0.196325,-10.070801,-6.561279,1.953125,30.013672
56240,13.206416,0.804452,0.320823,-24.383545,-2.075195,11.840820,30.037109
56280,14.077906,0.440533,-0.440533,-24.169922,-3.509521,10.711670,30.019531
56320,13.656527,1.781286,-1.082179,-79.315186,62.927246,14.678955,30.025391
56360,10.481815,3.045424,-4.084508,-20.172119,12.786865,2.227783,30.023438
56400,9.193734,4.587290,-6.751649,20.965576,-44.067383,-2.899170,30.011719
56440,10.419566,5.966351,-4.295198,8.972168,12.451172,-14.495850,30.019531
56480,9.907207,3.409343,0.411803,-4.364014,51.330566,-15.045166,30.013672
56520,7.575254,0.928950,0.833182,-40.710449,40.374756,-15.502930,30.021484
56560,5.415684,0.885855,-1.359907,-30.975342,29.571533,-16.510010,30.029297
56600,4.481946,1.632846,-0.794875,-18.066406,28.289795,-8.880615,30.027344
56640,5.588067,1.374272,0.158017,21.667480,-12.420654,-3.906250,30.013672
56680,8.001422,0.799663,1.144428,53.680420,-10.162354,7.232666,30.013672
56720,11.252748,0.804452,1.565808,19.073486,23.101807,12.084961,30.023438
56760,14.030022,2.547431,1.996764,19.073486,-8.911133,-11.291504,30.021484
56800,14.130578,1.024718,4.673482,34.057617,88.989258,0.274658,30.083984
56840,12.866440,2.700660,0.330400,-61.859131,56.243896,-11.413574,30.058594
56880,9.064447,6.224925,-4.750096,-8.697510,-88.867188,6.195068,30.062500
56920,9.959879,4.333505,-2.681506,35.095215,43.762207,3.662109,30.046875
56960,10.793061,1.359907,-3.476381,30.334473,-80.444336,36.041260,30.080078
57000,9.821015,1.283292,-3.921702,56.396484,-37.170410,13.244629,30.066406
57040,7.647080,1.086968,0.627281,-17.761230,-27.374268,9.826660,30.058594
57080,5.540183,1.019930,0.292093,-5.981445,-41.168213,1.800537,30.082031
57120,5.094861,0.723049,-0.885855,7.263184,-28.991699,-8.087158,30.064453
57160,6.909666,0.900220,-0.531513,18.951416,-30.426025,-11.535645,30.062500
57200,9.165004,0.646434,-0.574608,17.730713,-36.865234,-9.063721,30.078125
57240,11.659762,1.398214,0.584185,-13.092041,-6.103516,0.915527,30.052734
57280,13.709199,0.464475,0.268151,-39.855957,2.502441,15.899658,30.083984
57320,14.599842,0.110133,-1.608904,-46.295166,3.204346,18.218994,30.074219
57360,12.904747,1.838747,-2.226608,-76.812744,53.771973,17.364502,30.087891
57400,10.002975,3.557784,-5.066131,11.932373,-0.244141,4.669189,30.070312
57440,10.275913,6.569689,-5.430049,10.070801,-17.700195,-12.329102,30.066406
57480,10.309433,5.061342,-2.059013,37.750244,19.927979,-18.798828,30.076172
57520,8.734048,1.158794,0.210690,-25.878906,58.898926,-11.596680,30.066406
57560,5.999869,0.119710,-0.574608,-31.127930,30.151367,-16.784668,30.074219
57600,4.098873,1.431733,-0.761356,-21.331787,34.088135,-12.664795,30.070312
57640,4.678270,1.910573,-0.023942,1.342773,10.681152,-4.577637,30.076172
57680,7.000646,1.206678,0.574608,42.236328,-19.500732,2.624512,30.083984
57720,9.897630,0.454898,1.513135,50.842285,-1.464844,14.648438,30.072266
57760,12.986150,0.890643,1.297657,3.906250,9.124756,3.997803,30.085938
57800,14.274231,1.920150,3.375824,44.189453,25.054932,-5.462646,30.091797
57840,14.652514,1.628057,2.710236,-43.182373,146.362305,-13.793945,30.072266
57880,10.251971,5.401319,-2.705448,-37.750244,-79.742432,-8.178711,30.072266
57920,9.701305,5.401319,-4.496311,45.043945,34.088135,-6.591797,30.074219
57960,10.601525,2.169147,-3.361459,15.350342,-66.680908,30.731201,30.062500
58000,10.453085,1.728614,-4.659117,55.847168,-50.231934,17.456055,30.072266
58040,8.418014,1.211466,0.043096,17.425537,-27.557373,9.460449,30.068359
58080,5.894525,0.454898,0.536301,-11.474609,-38.360596,3.204346,30.087891
58120,4.788404,0.421380,-1.211466,8.392334,-41.687012,-9.796143,30.072266
58160,6.488286,0.995988,-0.220267,11.871338,-31.097412,-14.343262,30.097656
58200,8.844181,0.675165,-0.004788,12.054443,-27.221680,-10.589600,30.082031
58240,10.251971,0.694318,-0.129287,5.432129,-21.514893,-3.356934,30.103516
58280,12.526464,1.010353,0.555455,-30.212402,0.885010,13.488770,30.089844
58320,13.680469,-0.043096,-0.330400,-25.573730,-12.298584,17.120361,30.080078
58360,13.474567,1.278504,-1.810017,-59.387207,46.051025,18.707275,30.082031
58400,10.644621,2.916138,-4.419696,-8.819580,16.357422,5.981445,30.099609
58440,10.170568,4.386178,-6.157887,6.927490,-26.977539,1.159668,30.117188
58480,11.152191,5.880159,-4.209007,20.050049,12.664795,-6.408691,30.101562
58520,10.180145,3.356671,-0.114922,2.532959,43.487549,-12.817383,30.115234
58560,7.465121,0.823605,0.114922,-27.893066,49.072266,-12.603760,30.111328
58600,4.927267,0.689530,-1.297657,-16.174316,30.517578,-18.890381,30.091797
58640,4.098873,1.680730,-0.928950,-1.464844,33.843994,-12.176514,30.115234
58680,5.410896,1.604115,0.201113,10.375977,3.356934,-6.927490,30.095703
58720,8.101978,0.775721,0.957681,46.447754,-8.392334,6.011963,30.101562
58760,11.195287,0.454898,1.508347,22.766113,4.028320,12.786865,30.107422
58800,13.886370,1.446098,1.877054,25.451660,-6.378174,-4.547119,30.132812
58840,15.064317,1.206678,3.797204,6.317139,124.969482,-8.758545,30.148438
58880,13.541605,4.592079,-0.383072,-58.044434,28.839111,-56.732178,30.156250
58920,8.078036,6.335058,-3.955221,-13.458252,-66.589355,19.287109,30.142578
58960,10.347740,3.792415,-2.777274,-2.014160,-8.392334,16.448975,30.146484
59000,11.066000,2.250550,-4.970363,48.828125,-62.133789,44.036865,30.146484
59040,9.964667,1.857901,-2.260126,43.304443,-26.702881,12.512207,30.140625
59080,7.546524,0.565032,1.637634,-11.352539,-36.376953,8.666992,30.166016
59120,4.970363,0.363919,-0.770933,-13.549805,-46.752930,0.427246,30.150391
59160,4.577713,0.723049,-1.249773,16.540527,-39.367676,-8.972168,30.148438
59200,6.833052,0.938527,0.234632,25.726318,-38.970947,-12.268066,30.158203
59240,9.500193,0.727837,0.497994,18.402100,-24.963379,-4.302979,30.144531
59280,12.009315,1.244985,0.469264,-16.479492,2.105713,14.190674,30.136719
59320,13.354857,-0.009577,-0.253785,-25.329590,-10.742188,23.742676,30.150391
59360,13.800179,0.900220,-1.551443,-52.642822,17.517090,24.536133,30.144531
59400,11.722012,2.628834,-3.533842,-50.109863,44.830322,12.237549,30.146484
59440,10.127473,4.347870,-5.544971,-29.602051,-9.857178,5.096436,30.166016
59480,11.324574,6.818686,-4.510676,12.481689,2.655029,-8.666992,30.128906
59520,11.276690,4.333505,-0.842759,23.437500,28.747559,-16.143799,30.162109
59560,9.026140,0.660800,0.138864,-27.313232,65.460205,-11.444092,30.164062
59600,5.698200,0.172383,-0.943315,-27.465820,26.489258,-11.230469,30.160156
59640,3.581726,1.628057,-0.636858,-3.326416,12.054443,-6.256104,30.158203
59680,4.017470,1.881842,0.047884,17.608643,2.746582,-2.990723,30.154297
59720,6.737284,0.761356,0.790087,65.795898,-12.969971,4.852295,30.158203
59760,10.682928,-0.354342,1.441309,49.163818,-0.518799,11.108398,30.173828
59800,12.876017,1.149217,1.580173,16.906738,-7.934570,-0.091553,30.173828
59840,13.326127,1.604115,4.194642,53.222656,58.502197,1.068115,30.156250
59880,12.756307,2.049437,1.714248,-93.261719,82.702637,12.054443,30.179688
59920,10.917560,6.426037,-5.161899,-7.965088,-23.315430,1.953125,30.171875
59960,11.674128,4.170700,-4.745308,26.550293,-1.007080,-8.972168,30.160156
60000,13.125013,1.604115,-4.405331,32.073975,-45.867920,12.634277,30.146484
60040,11.003751,1.340753,-1.398214,-7.415771,-32.562256,14.801025,30.156250
60080,7.091625,0.622492,0.617704,-56.457520,-44.464111,8.178711,30.140625
60120,3.988740,0.411803,-0.574608,-25.726318,-48.828125,-3.601074,30.156250
60160,4.371812,1.197101,-1.029507,0.061035,-45.593262,-13.366699,30.169922
60200,7.445967,0.799663,-0.095768,-3.784180,-40.496826,-10.589600,30.150391
60240,9.931149,0.119710,-0.067038,13.763428,-37.353516,-6.622314,30.166016
60280,12.310986,1.211466,1.072602,-16.998291,5.523682,8.544922,30.183594
60320,14.053964,0.330400,0.416591,-26.214600,-12.329102,17.761230,30.154297
60360,13.948619,0.167594,-0.263362,-61.248779,8.087158,22.888184,30.169922
60400,11.650186,2.140416,-2.681506,-59.783936,78.216553,13.763428,30.173828
60440,9.332599,4.127604,-6.177041,9.155273,-15.319824,-1.281738,30.185547
60480,10.989386,6.004658,-6.684611,12.054443,-35.095215,-6.286621,30.187500
60520,11.482592,4.908113,-2.145205,-2.349854,-5.462646,-14.526367,30.185547
60560,9.179369,1.125275,1.015141,-18.646240,58.715820,-12.390137,30.187500
60600,5.755661,0.229843,-0.675165,-46.722412,44.799805,-12.603760,30.181641
60640,3.864242,0.928950,-1.058237,-25.939941,21.453857,-13.916016,30.181641
60680,4.386178,1.441309,-0.330400,-3.326416,-1.220703,-7.080078,30.189453
60720,6.890512,1.158794,0.368707,36.468506,-12.847900,4.608154,30.187500
60760,10.122684,0.761356,1.704672,62.683105,-6.927490,15.014648,30.216797
60800,12.387600,0.876278,1.407791,-15.716553,17.272949,13.366699,30.214844
60840,13.713987,2.456451,2.442086,37.048340,18.554688,-6.896973,30.212891
60880,14.738706,1.441309,2.719813,-46.112061,134.460449,-10.681152,30.234375
60920,11.353305,4.678270,-1.900996,-48.492432,-22.460938,5.493164,30.216797
60960,9.715671,4.587290,-4.659117,21.331787,6.103516,-14.739990,30.203125
61000,10.793061,2.159570,-3.385401,16.662598,-36.621094,18.615723,30.222656
61040,11.008539,1.264138,-4.242526,53.924561,-42.785645,15.411377,30.208984
61080,9.184157,0.881066,-1.053449,9.277344,-39.978027,7.873535,30.236328
61120,6.612785,0.440533,1.177947,-25.695801,-19.531250,8.636475,30.218750
61160,4.663905,0.306458,-1.106121,-6.164551,-40.466309,-1.434326,30.224609
61200,5.343858,1.144428,-0.627281,0.885010,-37.109375,-8.087158,30.207031
61240,7.781156,0.861913,-0.023942,3.936768,-35.308838,-9.399414,30.222656
61280,9.888053,0.790087,0.383072,4.699707,-19.592285,-2.746582,30.210938
61320,12.038046,0.928950,0.507571,-35.980225,-1.464844,9.613037,30.228516
61360,13.148955,-0.253785,-0.119710,-52.093506,-11.352539,19.195557,30.226562
61400,13.637373,0.670376,-1.589750,-75.744629,33.782959,25.177002,30.222656
61440,11.075577,1.987187,-4.074931,-15.228271,27.923584,6.744385,30.216797
61480,10.390836,3.825934,-5.607220,-22.003174,-19.256592,1.525879,30.214844
61520,12.277467,6.105214,-3.586514,20.874023,5.706787,-17.303467,30.242188
61560,11.573571,3.193865,-0.713472,22.003174,41.320801,-20.477295,30.242188
61600,8.418014,0.076614,-0.469264,-26.672363,48.126221,-19.409180,30.236328
61640,4.898537,0.497994,-0.852336,-30.761719,23.132324,-17.913818,30.212891
61680,3.509900,1.929727,-0.387861,-0.396729,11.566162,-17.547607,30.236328
61720,5.018247,1.656788,-0.129287,15.258789,0.244141,-6.591797,30.236328
61760,7.939173,0.660800,0.928950,46.478271,-16.174316,5.676270,30.226562
61800,10.850522,0.713472,1.513135,14.160156,9.246826,14.282227,30.222656
61840,13.350069,1.905785,1.455675,27.008057,-18.310547,-5.279541,30.224609
61880,14.240712,0.339977,4.553771,36.132812,89.385986,-1.464844,30.242188
61920,12.990938,1.872266,1.335965,-75.988770,64.941406,8.026123,30.246094
61960,9.878476,6.047753,-5.248090,8.392334,-67.840576,5.706787,30.238281
62000,10.309433,4.606444,-3.485958,33.142090,35.217285,-12.939453,30.232422
62040,11.578360,1.786075,-3.193865,12.969971,-58.685303,21.697998,30.226562
62080,10.376471,1.063026,-3.189077,37.689209,-40.985107,10.070801,30.251953
62120,7.757214,0.718261,0.593762,-37.567139,-40.710449,11.260986,30.228516
62160,5.128380,0.555455,-0.162806,-18.188477,-43.640137,1.434326,30.267578
62200,4.817134,0.761356,-0.603339,2.960205,-39.062500,-8.117676,30.232422
62240,6.885724,0.905008,-0.019154,7.354736,-36.254883,-10.223389,30.246094
62280,8.978256,0.426168,0.143652,10.253906,-31.707764,-3.570557,30.265625
62320,10.845734,1.043872,0.770933,-7.232666,-8.209229,4.089355,30.234375
62360,12.717999,0.301669,0.335188,-35.736084,-2.655029,16.967773,30.285156
62400,13.718776,-0.148441,-0.895431,-54.595947,5.828857,24.078369,30.279297
62440,13.048399,1.470040,-2.973598,-44.189453,61.614990,17.852783,30.244141
62480,10.333375,3.246537,-5.511452,-7.568359,8.331299,5.310059,30.294922
62520,11.707646,6.090849,-4.874595,-10.620117,-20.538330,-8.758545,30.275391
62560,11.659762,4.893748,-1.393425,45.867920,27.374268,-22.033691,30.263672
62600,9.562442,0.517148,-0.277727,-0.823975,51.330566,-16.448975,30.277344
62640,6.009446,-0.129287,-0.737414,-42.938232,40.069580,-17.822266,30.275391
62680,3.778050,1.417367,-0.689530,-20.355225,17.150879,-19.897461,30.283203
62720,4.213795,2.217031,-0.301669,23.376465,2.929688,-11.016846,30.300781
62760,6.842628,1.058237,0.545878,53.405762,-17.333984,-3.936768,30.285156
62800,10.156203,0.244209,1.896208,65.643311,2.380371,8.392334,30.275391
62840,13.048399,0.981623,1.465251,12.878418,5.371094,-2.868652,30.289062
62880,13.891158,1.790863,3.725378,45.776367,43.640137,-11.322021,30.294922
62920,13.532028,1.628057,2.116474,-62.408447,121.734619,-3.417969,30.267578
62960,10.433931,5.453991,-4.697424,-17.120361,-73.028564,-0.457764,30.283203
63000,11.271901,4.103662,-4.209007,42.755127,42.205811,-15.045166,30.271484
63040,11.870452,1.058237,-3.629610,31.341553,-86.791992,27.221680,30.281250
63080,10.544065,1.355118,-3.150769,45.318604,-17.517090,14.495850,30.257812
63120,7.235278,0.952892,0.588974,-18.127441,-43.395996,15.991211,30.287109
63160,4.347870,0.521936,-0.205901,0.671387,-39.916992,1.647949,30.292969
63200,4.209007,0.320823,-0.895431,39.672852,-39.306641,-16.571045,30.289062
63240,6.775591,0.766145,0.057461,21.972656,-34.515381,-17.913818,30.273438
63280,9.442732,0.459687,0.186748,16.296387,-28.869629,-6.774902,30.310547
63320,11.765107,0.799663,0.478840,-7.049561,-9.857178,2.380371,30.291016
63360,13.852851,0.110133,0.148441,-50.598145,1.037598,16.265869,30.296875
63400,14.144943,0.043096,-1.733402,-55.755615,29.724121,20.202637,30.287109
63440,11.956643,2.470816,-5.018247,-20.812988,25.146484,5.249023,30.283203
63480,10.481815,4.745308,-5.985504,-29.449463,-16.113281,-14.251709,30.291016
63520,12.109872,7.034164,-3.931279,0.488281,12.542725,-34.881592,30.300781
63560,11.549629,3.806781,-1.953669,34.362793,71.075439,-42.236328,30.273438
63600,8.197746,-0.301669,-1.503559,-17.517090,40.313721,-45.501709,30.322266
63640,4.041412,0.746991,-0.833182,31.341553,49.407959,-68.237305,30.316406
63680,3.098097,2.523489,0.517148,73.028564,-41.046143,-58.563232,30.285156
63720,7.149086,2.451663,2.188300,73.242188,31.280518,-30.334473,30.304688
63760,13.603854,3.303998,1.810017,23.712158,78.491211,-18.371582,30.296875
63800,15.624560,4.563348,0.871489,12.420654,21.850586,-26.550293,30.285156
63840,14.264654,5.583278,1.063026,16.387939,59.692383,-35.003662,30.287109
63880,10.046070,7.378930,-1.345541,-28.442383,-48.126221,-22.857666,30.296875
63920,4.280833,7.594408,-2.863465,-12.817383,-44.982910,18.829346,30.314453
63960,6.627151,6.770802,-3.040636,-34.088135,-60.363770,-3.509521,30.281250
64000,8.547300,5.722142,-3.385401,-45.806885,-100.982666,22.003174,30.298828
64040,8.920795,4.697424,-2.082955,-36.926270,-76.232910,60.058594,30.318359
64080,8.331821,2.873042,-1.292869,-50.140381,-43.975830,72.296143,30.287109
64120,7.350199,1.805228,-2.585738,-12.847900,-23.651123,67.535400,30.308594
64160,6.794744,0.885855,-2.580950,-3.570557,-7.751465,56.030273,30.306641
64200,6.387730,0.885855,-1.651999,-50.323486,15.319824,25.329590,30.324219
64240,6.416461,1.719037,-0.948104,-19.836426,1.190186,22.125244,30.316406
64280,7.709330,1.115698,-1.503559,12.023926,-15.777588,20.233154,30.298828
64320,11.046846,0.928950,0.095768,21.087646,-14.648438,29.785156,30.351562
64360,13.934254,0.732626,2.466028,-1.922607,25.360107,33.203125,30.349609
64400,13.555970,0.627281,1.374272,-32.562256,47.241211,22.033691,30.330078
64440,11.185710,3.074155,-2.063802,-87.402344,42.846680,16.265869,30.361328
64480,9.567230,5.659893,-5.473145,43.304443,-29.602051,-7.293701,30.355469
64520,11.180922,5.420473,-6.291962,60.333252,-45.745850,-6.927490,30.357422
64560,11.396400,4.084508,-2.327164,-39.031982,42.419434,-11.688232,30.339844
64600,7.623138,2.485181,0.670376,-44.128418,39.489746,-15.472412,30.351562
64640,4.927267,1.230620,0.215478,-47.180176,32.318115,-17.303467,30.345703
64680,4.252102,0.857124,-0.972046,-14.434814,24.688721,-11.230469,30.347656
64720,5.937620,0.474052,-1.063026,12.359619,-7.110596,-8.728027,30.359375
64760,7.967903,1.000776,0.809240,33.630371,-2.288818,0.427246,30.345703
64800,10.405201,1.144428,2.111686,62.255859,29.266357,7.659912,30.355469
64840,13.579912,1.532289,1.110910,-4.608154,0.915527,-2.380371,30.380859
64880,14.978126,2.298434,2.427721,22.399902,43.670654,-15.502930,30.367188
64920,14.216769,3.481169,0.593762,-59.509277,53.955078,-57.800293,30.365234
64960,8.398860,5.430049,-3.265691,-38.513184,-33.630371,29.907227,30.369141
65000,9.682152,4.003105,-4.419696,6.713867,-34.332275,14.862061,30.365234
65040,9.811439,2.422932,-4.237737,33.386230,-48.675537,45.593262,30.353516
65080,8.839393,1.666364,-2.767697,39.947510,-33.203125,12.756348,30.357422
65120,6.631939,1.106121,0.248997,-25.634766,-7.843018,11.505127,30.378906
65160,5.506664,1.043872,-0.229843,-1.159668,-33.447266,1.617432,30.392578
65200,6.320693,0.162806,-1.053449,9.155273,-19.927979,-8.575439,30.386719
65240,8.250419,0.172383,-0.555455,15.472412,-20.965576,-10.681152,30.375000
65280,9.600749,0.301669,-0.507571,24.993896,-24.414062,-4.058838,30.371094
65320,11.152191,1.086968,-0.359130,6.469727,-7.019043,-0.579834,30.361328
65360,13.627796,0.550666,0.287304,-14.099121,3.448486,13.488770,30.359375
65400,14.446613,-0.258574,-1.254562,-21.850586,14.373779,14.739990,30.378906
65440,13.512875,1.312023,-1.541866,-74.005127,50.262451,16.174316,30.375000
65480,9.725247,2.772485,-3.782839,-11.230469,10.345459,4.943848,30.408203
65520,8.973468,5.142745,-5.674258,37.170410,-19.714355,-8.514404,30.359375
65560,10.328587,5.650316,-2.930503,42.602539,17.700195,-24.169922,30.376953
65600,9.528923,2.959233,-0.584185,20.568848,35.125732,-18.554688,30.351562
65640,6.995857,0.972046,-0.119710,-41.320801,42.541504,-16.998291,30.392578
65680,4.831499,1.312023,-0.162806,-17.150879,40.985107,-16.967773,30.376953
65720,4.932055,1.570596,-0.584185,10.009766,10.070801,-12.756348,30.369141
65760,6.856994,1.039083,-0.062249,31.097412,-17.883301,1.922607,30.361328
65800,8.719683,1.115698,1.843535,35.736084,-5.615234,18.402100,30.363281
65840,11.252748,1.781286,1.359907,7.263184,24.749756,21.423340,30.369141
65880,13.761871,2.432509,1.613692,10.955811,-3.601074,2.593994,30.369141
65920,15.370775,1.398214,3.371036,-10.314941,113.830566,-4.791260,30.376953
65960,12.344504,4.481946,-0.593762,-53.588867,-15.686035,8.392334,30.373047
66000,8.710106,5.573701,-3.744531,-3.479004,-41.839600,16.265869,30.376953
66040,8.844181,3.562572,-3.112462,-2.014160,-14.465332,21.179199,30.373047
66080,9.710882,1.934515,-3.136404,64.910889,-58.105469,23.345947,30.365234
66120,9.255983,0.957681,-1.857901,13.702393,-34.515381,5.126953,30.378906
66160,7.340622,0.785298,0.679953,-66.497803,-15.808105,6.683350,30.390625
66200,5.717354,0.914585,-0.603339,-26.062012,-29.846191,-4.394531,30.386719
66240,6.229713,0.871489,-0.804452,-24.108887,-25.390625,-9.704590,30.392578
66280,8.552089,1.240196,0.062249,-15.655518,-28.015137,-9.643555,30.386719
66320,9.868899,0.454898,-0.124498,-6.408691,-32.623291,0.274658,30.410156
66360,11.176133,0.905008,-0.090980,-34.362793,-15.869141,9.765625,30.400391
66400,12.890382,0.320823,0.651223,-46.234131,-3.295898,19.683838,30.427734
66440,13.024457,1.096544,-0.852336,-57.891846,-10.375977,19.256592,30.412109
66480,12.152967,3.380613,-1.747767,-80.169678,42.144775,13.732910,30.406250
66520,9.126697,4.860229,-4.745308,-23.956299,-30.151367,-5.401611,30.416016
66560,8.954314,6.359000,-5.942409,-64.178467,-41.290283,-8.819580,30.427734
66600,10.175357,6.392519,-1.608904,-73.242188,-9.002686,-18.341064,30.423828
