MS,Accel X (m/s²),Accel Y (m/s²),Accel Z (m/s²),Gyro X (°/s),Gyro Y (°/s),Gyro Z (°/s),Temp (°C)
1600,8.264784,1.374272,-4.726154,27.587891,-7.080078,-8.453369,27.787109
1640,8.202535,1.920150,-4.343082,34.057617,-17.578125,-8.972168,27.777344
1680,8.825027,1.647211,-3.529053,38.299561,-16.906738,-14.831543,27.769531
1720,8.858546,1.513135,-3.093309,46.875000,-10.192871,-18.524170,27.777344
1760,8.293514,1.584962,-2.973598,43.518066,-10.345459,-13.061523,27.775391
1800,8.054094,1.877054,-2.997540,41.107178,-14.587402,-10.681152,27.783203
1840,8.532935,2.226608,-3.026271,38.726807,-16.723633,-8.483887,27.775391
1880,9.088389,2.073379,-2.619257,29.724121,-4.608154,-3.845215,27.777344
1920,9.184157,2.044648,-2.638410,25.573730,-0.335693,-1.251221,27.779297
1960,9.299079,2.111686,-2.523489,28.991699,3.936768,-4.119873,27.777344
2000,9.739613,2.308010,-2.504335,24.475098,8.972168,-7.965088,27.775391
2040,10.587160,2.379837,-2.346318,23.040771,19.592285,-10.162354,27.785156
2080,11.224017,2.303222,-2.145205,26.519775,28.564453,-13.610840,27.781250
2120,11.908759,2.030283,-3.145981,22.277832,43.914795,-11.840820,27.787109
2160,10.769119,1.781286,-5.257667,12.023926,29.937744,-3.356934,27.789062
2200,8.020576,-0.153229,-5.746084,19.592285,2.960205,-1.220703,27.775391
2240,8.394072,-1.671153,-4.209007,2.349854,6.439209,8.453369,27.794922
2280,9.806650,-0.105345,-3.112462,-0.762939,12.542725,10.314941,27.779297
2320,9.006987,0.837971,-3.184288,8.422852,11.047363,10.650635,27.792969
2360,7.580042,0.713472,-3.011906,0.549316,3.662109,12.176514,27.781250
2400,7.244854,0.019154,-2.451663,-1.556396,-2.990723,10.833740,27.781250
2440,8.063671,-0.105345,-2.303222,2.532959,-2.838135,6.256104,27.804688
2480,8.604761,0.225055,-2.111686,3.753662,-1.190186,0.366211,27.808594
2520,8.829816,0.316035,-1.771709,3.906250,4.516602,-7.446289,27.796875
2560,8.939949,0.459687,-1.786075,1.861572,7.781982,-11.138916,27.804688
2600,9.706094,0.536301,-1.896208,-11.596680,2.716064,-0.244141,27.800781
2640,10.826580,1.082179,-1.575385,-20.568848,-1.312256,7.659912,27.826172
2680,11.463438,1.699883,-0.814029,-41.687012,4.852295,7.080078,27.796875
2720,11.832145,1.632846,-1.522712,-39.916992,14.221191,-0.579834,27.812500
2760,11.463438,0.023942,-3.323152,-8.087158,21.057129,-14.068604,27.820312
2800,9.931149,-1.398214,-3.825934,-1.403809,7.385254,-4.150391,27.816406
2840,8.015787,-0.608127,-4.390966,-18.157959,-3.234863,-1.800537,27.808594
2880,8.111555,1.853112,-5.090073,1.434326,-8.514404,-14.373779,27.816406
2920,9.916783,1.810017,-3.768473,7.934570,-19.592285,-11.688232,27.816406
2960,9.572019,0.866701,-2.695871,22.460938,-6.652832,-16.967773,27.796875
3000,7.781156,0.445322,-2.442086,25.604248,-13.336182,-13.427734,27.814453
3040,7.216124,0.727837,-2.398990,28.656006,-16.540527,-10.162354,27.810547
3080,7.939173,1.551443,-2.394202,22.094727,-16.601562,-7.019043,27.818359
3120,8.786720,1.843535,-2.322376,24.230957,-13.397217,-1.220703,27.820312
3160,9.016563,1.556231,-2.149993,17.913818,-6.042480,4.638672,27.837891
3200,8.906430,1.604115,-2.312799,21.026611,-4.577637,1.831055,27.828125
3240,9.466674,2.126051,-2.557007,26.489258,1.556396,-7.080078,27.845703
3280,10.520123,2.403779,-2.427721,38.421631,3.662109,-14.282227,27.816406
3320,11.616667,1.924938,-1.513135,41.046143,18.798828,-16.662598,27.820312
3360,11.851298,2.446874,-2.015918,19.714355,31.585693,-8.239746,27.837891
3400,11.334151,2.149993,-3.931279,17.303467,31.250000,-3.021240,27.826172
3440,8.662222,1.254562,-5.564125,20.996094,-5.157471,-0.823975,27.826172
3480,7.469909,-0.823605,-4.788404,16.265869,-8.819580,-1.373291,27.830078
3520,10.132261,-1.369483,-3.189077,5.584717,3.601074,6.256104,27.822266
3560,10.524911,0.574608,-2.834735,8.026123,11.840820,10.406494,27.837891
3600,8.159439,1.158794,-3.083732,-4.272461,4.791260,19.226074,27.914062
3640,6.296751,0.761356,-2.667141,-10.620117,-9.765625,18.280029,27.882812
3680,6.708553,-0.124498,-2.097321,-4.119873,-11.108398,12.207031,27.888672
3720,7.905654,-0.062249,-2.020706,-1.281738,-8.850098,2.777100,27.900391
3760,8.829816,0.440533,-1.470040,0.549316,-3.479004,-7.843018,27.886719
3800,9.404425,0.761356,-1.493982,-10.162354,-0.122070,-8.789062,27.886719
3840,10.596737,1.302446,-1.939303,-25.543213,0.640869,2.349854,27.876953
3880,11.999739,1.924938,-1.163582,-46.020508,2.655029,15.502930,27.904297
3920,12.473791,2.375048,-1.149217,-65.307617,15.289307,9.521484,27.914062
3960,11.961432,0.416591,-3.749320,-25.360107,29.876709,-13.092041,27.906250
4000,9.864111,-1.810017,-4.793192,-6.011963,12.878418,-5.676270,27.921875
4040,8.087613,-0.775721,-5.319916,-25.665283,-11.413574,3.234863,27.906250
4080,8.427590,1.561020,-5.865794,-3.570557,-3.356934,-17.364502,27.927734
4120,9.792285,1.331176,-3.931279,11.474609,-15.930176,-16.082764,27.914062
4160,9.050082,0.488417,-2.853889,35.552979,-7.324219,-21.667480,27.917969
4200,7.498640,0.086191,-2.695871,32.836914,-9.399414,-16.662598,27.925781
4240,7.129933,0.847547,-2.566584,32.897949,-10.955811,-14.007568,27.898438
4280,7.738060,1.924938,-2.370260,27.465820,-7.141113,-10.681152,27.916016
4320,8.547300,2.121263,-2.375048,27.435303,-2.777100,-2.502441,27.910156
4360,8.916007,1.833959,-2.341529,25.756836,8.026123,1.037598,27.935547
4400,9.385271,1.934515,-2.365471,24.749756,7.019043,-2.319336,27.906250
4440,10.093954,1.915361,-2.557007,26.245117,1.373291,-5.462646,27.941406
4480,10.998962,2.078167,-2.015918,41.320801,9.674072,-14.312744,27.921875
4520,11.851298,2.063802,-2.145205,53.009033,40.618896,-20.843506,27.902344
4560,11.262324,2.624045,-4.070143,27.496338,48.065186,-11.230469,27.925781
4600,8.609550,1.058237,-5.688623,5.096436,-1.953125,1.586914,27.945312
4640,8.015787,-0.660800,-4.774038,12.908936,-7.690430,1.068115,27.937500
4680,9.840169,0.402226,-3.706224,8.453369,2.990723,11.108398,27.921875
4720,10.184934,1.335965,-3.016694,7.354736,7.049561,15.594482,27.927734
4760,8.346188,1.024718,-2.920926,-3.265381,5.371094,20.507812,27.935547
4800,7.177817,0.373495,-2.662352,-4.669189,0.457764,17.211914,27.943359
4840,7.800309,0.397437,-2.384625,-10.040283,-3.173828,14.709473,27.945312
4880,8.695741,0.895431,-2.030283,-13.793945,-0.183105,10.070801,27.935547
4920,9.179369,1.082179,-2.126051,-17.791748,-3.173828,6.256104,27.929688
4960,9.423578,1.134852,-2.183512,-15.472412,-2.227783,-0.823975,27.941406
5000,9.969456,1.201889,-2.322376,-23.925781,-0.427246,0.946045,27.935547
5040,10.553641,1.953669,-3.189077,-38.330078,-1.098633,3.387451,27.945312
5080,9.811439,0.933739,-4.678270,-36.346436,-15.502930,7.568359,27.898438
5120,8.188169,-0.234632,-4.807557,-55.053711,-21.820068,16.113281,27.935547
5160,7.718906,0.148441,-5.243302,-56.579590,-31.768799,12.603760,27.937500
5200,9.011775,0.148441,-4.639963,-62.011719,-33.233643,15.899658,27.931641
5240,9.600749,0.215478,-4.323928,-61.645508,-25.726318,15.380859,27.937500
5280,8.920795,0.057461,-4.113238,-54.992676,-24.963379,11.199951,27.949219
5320,8.125920,-0.057461,-4.055778,-44.189453,-24.169922,7.171631,27.951172
5360,8.188169,-0.076614,-3.926491,-39.581299,-23.773193,6.835938,27.964844
5400,8.805874,0.402226,-3.907337,-33.142090,-24.597168,5.187988,27.960938
5440,9.366117,0.833182,-3.845088,-24.658203,-17.608643,2.746582,27.955078
5480,9.318233,1.086968,-3.936068,-16.052246,-15.747070,-1.220703,27.960938
5520,9.121908,1.197101,-3.873818,-7.476807,-14.404297,-4.455566,27.957031
5560,8.963891,1.125275,-3.711013,2.166748,-11.871338,-6.622314,28.013672
5600,8.887277,1.163582,-3.634398,6.072998,-10.528564,-6.835938,28.019531
5640,8.887277,1.551443,-3.543418,8.117676,-7.629395,-6.805420,28.007812
5680,8.935161,2.015918,-3.447650,8.117676,-3.906250,-5.554199,28.023438
5720,8.930372,2.308010,-3.457227,6.286621,-0.366211,-4.302979,28.009766
5760,8.825027,2.624045,-3.394978,2.563477,5.035400,-2.685547,28.009766
5800,8.959103,3.074155,-3.299210,-0.457764,12.542725,1.159668,28.025391
5840,9.576807,3.423708,-3.533842,-3.570557,10.955811,3.540039,28.009766
5880,10.548853,3.634398,-3.725378,-8.972168,11.260986,4.547119,28.007812
5920,11.022904,3.533842,-3.624821,-16.754150,23.803711,4.119873,28.009766
5960,10.223241,2.628834,-4.448427,-25.421143,23.620605,8.300781,28.003906
6000,8.676587,0.636858,-4.802769,-20.843506,15.869141,18.218994,28.019531
6040,7.321469,-0.842759,-4.405331,-29.083252,-0.762939,30.151367,28.027344
6080,8.149862,-0.234632,-3.643975,-31.738281,1.159668,32.775879,28.037109
6120,9.485827,1.489193,-3.318364,-34.454346,9.918213,27.130127,28.019531
6160,9.346964,1.862689,-3.471592,-37.231445,1.647949,28.381348,28.029297
6200,8.868123,1.211466,-2.858677,-39.764404,15.319824,29.327393,28.017578
6240,8.173804,0.493206,-3.002329,-43.914795,6.896973,28.991699,28.033203
6280,8.413225,0.454898,-2.978387,-41.687012,1.098633,25.390625,28.013672
6320,8.987833,0.761356,-2.858677,-29.266357,4.058838,19.287109,28.027344
6360,8.791509,0.560243,-2.710236,-23.864746,2.746582,16.845703,28.048828
6400,8.939949,0.124498,-2.202666,-20.782471,1.892090,10.528564,28.021484
6440,9.878476,0.646434,-1.455675,-29.846191,12.023926,0.762939,28.017578
6480,10.448297,2.030283,-1.283292,-31.799316,22.888184,-9.094238,28.019531
6520,10.309433,2.346318,-1.369483,-44.616699,27.770996,-11.230469,28.042969
6560,10.716447,1.273715,-3.303998,-36.682129,15.747070,-13.671875,28.058594
6600,10.046070,0.172383,-4.462792,-37.109375,7.171631,-6.408691,28.050781
6640,7.953538,0.378284,-5.142745,-59.600830,-21.087646,2.746582,28.037109
6680,8.571242,1.048660,-4.826711,-51.971436,-21.331787,0.579834,28.039062
6720,9.931149,1.752556,-3.021482,-37.353516,-21.057129,-4.913330,28.013672
6760,8.561666,1.671153,-2.207454,-15.197754,-27.282715,-0.976562,28.042969
6800,7.326257,1.173159,-2.331953,-15.350342,-30.548096,3.234863,28.042969
6840,7.814674,1.426944,-2.212242,-18.554688,-23.498535,6.286621,28.066406
6880,8.681376,1.738190,-2.274492,-17.150879,-17.425537,9.857178,28.037109
6920,8.911219,1.987187,-2.370260,-15.167236,-13.854980,14.556885,28.062500
6960,8.997410,2.159570,-2.408567,-4.302979,-14.923096,8.422852,28.056641
7000,10.012551,2.336741,-2.580950,1.800537,1.434326,-0.213623,28.048828
7040,11.286267,2.806004,-2.442086,7.171631,17.944336,-6.408691,28.048828
7080,11.980585,2.671929,-2.930503,15.411377,32.257080,-13.488770,28.048828
7120,11.631032,1.977611,-4.893748,6.591797,37.109375,-5.706787,28.052734
7160,9.667787,-0.134075,-6.406884,23.803711,1.159668,0.061035,28.064453
7200,9.107543,-2.825158,-4.774038,16.418457,-4.272461,8.972168,28.042969
7240,9.174581,-1.814805,-3.691859,6.072998,-1.373291,14.526367,28.085938
7280,8.781932,0.263362,-3.021482,9.613037,2.197266,13.702393,28.052734
7320,7.393295,0.608127,-2.782062,11.291504,-4.913330,15.930176,28.066406
7360,6.670246,0.052672,-2.470816,4.394531,-16.815186,13.702393,28.082031
7400,7.527370,-0.411803,-2.164358,7.110596,-9.399414,3.326416,28.068359
7440,8.566454,-0.158017,-1.900996,10.009766,1.251221,-4.821777,28.037109
7480,8.877700,0.124498,-1.584962,6.072998,10.070801,-11.840820,28.068359
7520,9.490616,0.105345,-1.546654,8.422852,9.094238,-16.357422,28.058594
7560,10.505757,0.325611,-2.068590,3.356934,11.444092,-10.772705,28.138672
7600,11.683704,0.804452,-1.364695,-23.651123,10.070801,4.180908,28.119141
7640,12.354081,1.685518,-1.120486,-33.874512,19.500732,-0.946045,28.121094
7680,12.138602,0.354342,-3.462016,-2.746582,31.188965,-16.082764,28.121094
7720,9.945514,-1.355118,-4.395754,16.723633,26.000977,-16.540527,28.115234
7760,8.140285,-0.751779,-5.377377,-17.181396,-2.105713,-0.518799,28.123047
7800,8.451532,1.795651,-5.631162,-6.256104,2.197266,-15.441895,28.121094
7840,9.840169,1.738190,-3.988740,19.012451,-17.333984,-20.324707,28.148438
7880,9.222465,0.536301,-2.557007,38.421631,-5.584717,-20.233154,28.123047
7920,7.287950,0.191536,-2.604892,30.090332,-15.411377,-15.869141,28.117188
7960,6.622362,0.670376,-2.461239,32.043457,-18.463135,-14.648438,28.125000
8000,7.398083,1.498770,-2.260126,37.841797,-16.113281,-12.481689,28.101562
8040,8.729259,1.651999,-1.905785,28.778076,-9.307861,-2.899170,28.125000
8080,9.284714,1.637634,-1.450886,26.184082,4.516602,1.373291,28.125000
8120,9.054871,1.757344,-2.092532,25.360107,10.620117,-3.509521,28.130859
8160,9.624691,1.944092,-2.767697,25.878906,7.049561,-9.246826,28.130859
8200,11.487380,2.212242,-1.948880,41.351318,3.265381,-19.470215,28.144531
8240,12.358870,2.245761,-0.871489,47.515869,37.384033,-20.965576,28.152344
8280,12.100295,2.604892,-2.475605,33.813477,53.588867,-12.023926,28.128906
8320,9.945514,1.628057,-5.846641,11.383057,0.701904,1.800537,28.150391
8360,7.173028,0.205901,-5.875371,26.824951,-28.930664,-4.730225,28.134766
8400,9.241618,-0.943315,-3.974375,22.521973,-6.011963,-0.762939,28.140625
8440,10.577583,0.402226,-2.619257,-0.244141,10.314941,13.580322,28.134766
8480,8.489840,1.489193,-3.078943,-2.258301,6.652832,19.134521,28.130859
8520,6.473921,1.086968,-2.844312,-7.934570,-10.162354,23.590088,28.150391
8560,6.584054,0.493206,-1.857901,-11.535645,-14.312744,19.500732,28.134766
8600,7.795521,0.694318,-1.843535,-11.566162,-14.892578,12.573242,28.144531
8640,8.614338,0.933739,-1.565808,-17.181396,-9.674072,4.150391,28.134766
8680,9.165004,0.895431,-1.168370,-29.602051,-5.676270,4.821777,28.130859
8720,10.022128,1.766921,-1.651999,-44.372559,-1.586914,7.843018,28.140625
8760,11.856087,1.551443,-1.537078,-54.565430,1.770020,26.123047,28.152344
8800,12.469003,0.445322,-2.154782,-65.582275,9.582520,28.350830,28.142578
8840,12.536040,0.617704,-4.639963,-29.541016,26.580811,2.349854,28.158203
8880,10.237606,1.067814,-5.583278,-28.808594,17.150879,1.373291,28.140625
8920,7.694964,2.389413,-6.526594,-50.170898,-18.341064,10.986328,28.148438
8960,7.398083,2.169147,-6.019023,-54.351807,-29.632568,3.906250,28.160156
9000,9.006987,1.225831,-3.289633,-38.116455,-33.874512,-2.441406,28.164062
9040,8.236053,0.780510,-2.389413,-18.188477,-22.430420,-3.692627,28.150391
9080,6.928820,1.297657,-2.207454,-24.383545,-8.422852,2.166748,28.134766
9120,6.641516,2.102109,-2.528277,-28.381348,-21.087646,8.911133,28.167969
9160,7.680599,1.613692,-2.494758,-28.778076,-17.517090,14.556885,28.166016
9200,8.786720,1.407791,-2.260126,-15.045166,-7.385254,17.669678,28.167969
9240,9.926360,1.867477,-2.135628,-12.115479,0.000000,13.702393,28.167969
9280,11.156980,2.360683,-2.375048,-0.732422,11.047363,6.591797,28.179688
9320,12.306197,2.825158,-1.867477,7.476807,18.280029,0.305176,28.156250
9360,12.880805,3.122039,-3.275268,12.908936,39.550781,-5.462646,28.164062
9400,10.347740,2.691083,-5.779603,-11.383057,25.360107,5.187988,28.181641
9440,7.225701,0.383072,-6.086061,-15.655518,-2.502441,10.070801,28.164062
9480,9.126697,-0.646434,-4.850653,-35.827637,-6.774902,20.172119,28.179688
9520,10.548853,1.608904,-3.696647,-47.485352,-4.425049,28.747559,28.226562
9560,8.911219,2.154782,-3.471592,-53.558350,-1.037598,30.303955,28.207031
9600,6.579266,0.550666,-3.069367,-48.858643,-2.288818,29.937744,28.220703
9640,5.942409,-0.512359,-2.480393,-38.909912,-14.038086,22.796631,28.228516
9680,6.856994,-0.033519,-2.231396,-30.700684,-20.477295,17.700195,28.212891
9720,8.054094,0.555455,-1.766921,-35.919189,-13.214111,14.465332,28.246094
9760,9.394848,0.804452,-1.742979,-43.304443,-7.263184,14.526367,28.248047
9800,11.420342,1.604115,-1.944092,-53.283691,2.044678,18.737793,28.228516
9840,12.612655,1.805228,-1.484405,-68.023682,16.754150,27.801514,28.253906
9880,11.880029,1.594538,-2.351106,-70.922852,31.433105,11.718750,28.238281
9920,10.692505,0.732626,-5.640739,-31.402588,23.651123,-7.202148,28.244141
9960,9.155427,0.148441,-6.402095,-47.180176,12.390137,5.462646,28.238281
10000,8.820239,2.614468,-6.612785,-84.106445,-12.023926,8.941650,28.226562
10040,9.155427,3.303998,-5.846641,-52.764893,-37.322998,-6.469727,28.246094
10080,9.227253,1.244985,-3.083732,-37.353516,-21.820068,-8.087158,28.236328
10120,7.187394,-0.335188,-2.456451,-21.697998,-18.310547,-1.495361,28.230469
10160,5.511452,0.737414,-2.240973,-18.157959,-10.284424,1.464844,28.236328
10200,6.157887,0.895431,-2.571373,-24.200439,-19.622803,13.946533,28.242188
10240,7.920019,1.733402,-2.470816,-19.989014,-10.833740,20.965576,28.236328
10280,9.739613,1.982399,-2.001553,-21.301270,4.425049,23.956299,28.246094
10320,10.965444,2.571373,-2.738967,-13.488770,9.918213,8.178711,28.236328
10360,12.220005,3.002329,-2.715025,0.061035,3.631592,-0.915527,28.248047
10400,13.431472,2.786851,-2.159570,10.528564,29.602051,-8.026123,28.248047
10440,12.162544,2.983175,-3.964798,-1.892090,41.809082,-1.556396,28.240234
10480,8.595184,1.656788,-6.426037,-26.641846,5.157471,14.739990,28.232422
10520,6.794744,-0.292093,-6.215348,-32.440186,-27.038574,11.169434,28.251953
10560,9.102755,-0.828394,-4.515464,-23.742676,-4.241943,13.183594,28.240234
10600,10.266336,0.828394,-3.256114,-41.046143,-0.091553,25.268555,28.265625
10640,8.188169,1.149217,-2.983175,-38.452148,6.988525,28.198242,28.265625
10680,5.995081,0.579397,-2.738967,-44.189453,-5.187988,29.571533,28.250000
10720,5.928043,0.469264,-2.547431,-29.113770,-20.599365,20.660400,28.261719
10760,7.704541,0.387861,-2.130840,-26.428223,-16.326904,13.000488,28.236328
10800,9.112331,0.383072,-1.632846,-25.024414,1.434326,0.915527,28.273438
10840,9.514558,0.478840,-1.632846,-27.923584,5.706787,0.854492,28.253906
10880,9.969456,0.665588,-2.303222,-34.606934,0.640869,10.650635,28.259766
10920,11.511322,1.254562,-2.164358,-31.921387,1.922607,16.357422,28.251953
10960,12.976573,2.082955,-1.747767,-53.070068,11.077881,14.587402,28.263672
11000,12.794614,1.321599,-3.428497,-26.672363,25.329590,-1.159668,28.271484
11040,10.299856,-0.708684,-5.008670,-0.427246,28.869629,-20.904541,28.261719
11080,8.078036,-1.709460,-5.511452,-43.640137,-6.286621,0.885010,28.273438
11120,7.843405,0.952892,-6.148310,-77.972412,-15.411377,2.471924,28.269531
11160,9.548077,2.748544,-5.358223,6.500244,-37.414551,-13.824463,28.255859
11200,9.021352,1.244985,-1.996764,-8.850098,-18.646240,-4.455566,28.261719
11240,6.507440,-0.038307,-2.011129,1.983643,-20.507812,-1.434326,28.269531
11280,5.817910,0.430956,-1.704672,-1.800537,-13.214111,-6.225586,28.269531
11320,7.326257,1.211466,-1.915361,0.610352,-1.770020,-1.159668,28.263672
11360,8.834604,1.666364,-2.111686,-4.547119,7.843018,10.681152,28.285156
11400,9.356541,1.968034,-2.082955,0.518799,11.627197,9.002686,28.271484
11440,9.998186,2.264915,-2.537854,10.559082,10.742188,-4.455566,28.259766
11480,12.004527,3.045424,-2.533065,19.775391,18.890381,-14.984131,28.281250
11520,13.316550,2.916138,-2.676718,17.456055,21.209717,-16.418457,28.308594
11560,13.488933,2.877831,-3.687071,13.366699,45.989990,-12.268066,28.306641
11600,11.156980,2.312799,-5.597643,-13.641357,43.823242,-5.432129,28.296875
11640,7.814674,-0.565032,-5.655105,-10.375977,6.774902,-4.699707,28.330078
11680,9.074024,-2.346318,-3.428497,-7.049561,7.568359,9.857178,28.326172
11720,10.074800,0.071826,-2.336741,-0.518799,6.744385,7.720947,28.330078
11760,7.627927,1.273715,-2.035071,-14.862061,-0.762939,10.528564,28.328125
11800,4.917690,0.512359,-1.656788,-22.857666,-11.108398,12.969971,28.322266
11840,4.802769,0.023942,-1.484405,-18.402100,-21.118164,12.054443,28.308594
11880,6.584054,0.210690,-1.120486,-19.378662,-22.583008,12.817383,28.330078
11920,7.943961,0.311246,-1.039083,-29.174805,-28.503418,18.920898,28.347656
11960,10.127473,0.948104,-0.847547,-12.786865,-16.601562,9.155273,28.314453
12000,12.081141,1.661576,-1.541866,-12.847900,-5.828857,9.368896,28.326172
12040,13.302185,2.772485,-1.326388,-21.789551,-1.037598,12.725830,28.330078
12080,13.306973,2.298434,-0.957681,-49.499512,21.972656,8.331299,28.300781
12120,12.076353,-0.560243,-3.505111,-3.143311,18.951416,-9.796143,28.328125
12160,8.954314,-2.355895,-4.999093,15.136719,20.904541,-11.810303,28.326172
12200,8.853758,-1.987187,-6.009446,-37.231445,-1.739502,0.091553,28.316406
12240,10.036493,1.455675,-6.459556,-56.640625,7.354736,-10.925293,28.349609
12280,10.012551,2.571373,-3.739743,18.798828,-30.792236,-12.908936,28.328125
12320,7.982268,0.660800,-1.436521,33.081055,-26.580811,-12.847900,28.351562
12360,5.760449,0.244209,-1.446098,27.679443,-27.801514,-14.862061,28.328125
12400,5.516241,0.459687,-1.297657,23.132324,-17.456055,-11.993408,28.349609
12440,6.742072,0.742203,-1.604115,11.688232,-16.265869,-3.234863,28.339844
12480,8.456321,1.762132,-1.766921,8.026123,-9.460449,1.708984,28.324219
12520,10.031705,2.427721,-1.910573,6.469727,-0.122070,-3.326416,28.333984
12560,12.018892,2.097321,-2.221819,11.505127,11.566162,-11.108398,28.353516
12600,13.129802,2.039860,-1.403002,26.397705,19.439697,-14.709473,28.335938
12640,12.943054,2.054225,-2.298434,35.430908,50.628662,-11.779785,28.343750
12680,9.907207,0.751779,-7.292738,35.583496,17.883301,0.091553,28.349609
12720,8.389283,-1.235408,-7.024588,25.634766,-48.187256,0.671387,28.349609
12760,11.008539,-2.164358,-4.410120,24.566650,-12.207031,5.249023,28.353516
12800,11.056423,-0.023942,-2.997540,-2.807617,11.962891,16.632080,28.369141
12840,7.843405,1.527501,-2.997540,7.720947,3.967285,21.423340,28.343750
12880,4.965574,0.335188,-2.834735,-10.528564,-24.993896,26.000977,28.339844
12920,5.181053,-0.153229,-1.896208,-0.610352,-23.956299,11.474609,28.353516
12960,6.852205,-0.225055,-1.537078,2.349854,-8.117676,0.396729,28.337891
13000,8.374918,0.210690,-1.230620,-9.613037,2.838135,-4.974365,28.357422
13040,10.290278,1.010353,-1.283292,-28.961182,4.089355,-4.119873,28.349609
13080,12.459426,2.164358,-1.987187,-38.879395,12.329102,1.464844,28.353516
13120,13.268666,2.020706,-1.197101,-62.713623,17.578125,10.253906,28.333984
13160,12.454638,0.670376,-2.815581,-34.179688,24.597168,-7.202148,28.357422
13200,10.022128,-1.719037,-5.817910,9.490967,13.061523,-11.108398,28.380859
13240,8.777143,-2.030283,-5.559336,-14.709473,11.169434,-1.281738,28.347656
13280,9.883265,0.670376,-6.526594,-49.407959,11.291504,-4.241943,28.353516
13320,10.386047,2.250550,-5.166687,15.777588,-3.906250,-21.759033,28.359375
13360,8.767567,0.574608,-2.398990,36.926270,-4.669189,-19.348145,28.363281
13400,6.129156,-0.363919,-1.843535,42.053223,-7.354736,-21.087646,28.359375
13440,4.960786,0.239420,-1.762132,29.663086,-13.641357,-11.077881,28.382812
13480,5.918467,0.804452,-1.733402,26.092529,-16.082764,-7.141113,28.417969
13520,7.862558,1.963245,-1.685518,24.780273,-9.155273,1.403809,28.412109
13560,9.265560,2.092532,-1.877054,21.026611,6.134033,4.333496,28.412109
13600,10.845734,1.493982,-2.202666,18.035889,6.835938,-4.180908,28.429688
13640,12.406754,2.001553,-1.824382,35.217285,2.166748,-17.913818,28.435547
13680,13.417107,2.154782,-0.641646,53.588867,44.250488,-22.674561,28.423828
13720,12.454638,2.260126,-3.648763,43.701172,65.795898,-11.169434,28.429688
13760,8.078036,0.928950,-7.465121,13.916016,-22.613525,1.403809,28.416016
13800,8.111555,-0.359130,-5.588067,10.864258,-35.736084,-6.713867,28.404297
13840,11.760319,-0.612916,-3.615245,7.812500,5.340576,5.859375,28.425781
13880,10.769119,0.814029,-2.935291,-16.998291,6.866455,22.521973,28.410156
13920,7.345411,1.096544,-2.691083,-13.549805,11.077881,31.066895,28.416016
13960,4.845864,0.450110,-2.264915,-14.617920,-9.277344,23.803711,28.439453
14000,5.190629,1.034295,-1.565808,-14.678955,-24.505615,15.136719,28.439453
14040,6.861782,0.478840,-1.101333,-19.866943,-12.725830,7.720947,28.447266
14080,8.604761,0.205901,-0.861913,-28.167725,-3.021240,0.427246,28.435547
14120,10.414778,1.747767,-1.513135,-35.247803,-1.831055,-2.502441,28.408203
14160,13.053187,1.896208,-1.733402,-39.978027,-0.152588,8.880615,28.437500
14200,14.772224,0.952892,-2.638410,-54.199219,-11.474609,32.562256,28.433594
14240,14.211981,-0.153229,-3.715801,7.019043,38.635254,15.350342,28.421875
14280,9.375694,-2.015918,-4.941632,0.030518,33.905029,-24.719238,28.419922
14320,8.116343,0.009577,-6.507440,-55.114746,-0.885010,-4.791260,28.458984
14360,8.504205,1.532289,-6.402095,-28.076172,-1.373291,-13.214111,28.423828
14400,9.385271,1.115698,-2.992752,11.383057,-18.676758,-20.629883,28.429688
14440,7.637504,0.268151,-1.666364,31.921387,-16.906738,-18.768311,28.455078
14480,5.664681,0.263362,-1.723825,32.653809,-19.348145,-15.838623,28.443359
14520,5.765238,1.158794,-1.594538,23.864746,-13.000488,-9.735107,28.443359
14560,7.177817,1.532289,-1.910573,13.153076,-18.585205,-0.549316,28.443359
14600,8.671799,1.565808,-1.814805,13.244629,-5.432129,5.187988,28.449219
14640,10.323798,1.829170,-1.819593,11.596680,3.936768,1.708984,28.439453
14680,12.296620,2.279280,-2.250550,17.639160,2.319336,-10.009766,28.455078
14720,13.421895,2.437297,-1.742979,39.886475,19.439697,-19.378662,28.458984
14760,13.187263,2.308010,-3.251326,41.290283,44.555664,-15.930176,28.460938
14800,9.519346,1.177947,-5.999869,28.839111,22.857666,-5.065918,28.457031
14840,7.939173,-0.790087,-6.143522,8.972168,-15.716553,-3.112793,28.482422
14880,10.668563,-1.527501,-4.453215,12.390137,-7.202148,5.981445,28.453125
14920,10.491392,0.665588,-3.007117,-7.904053,-5.157471,15.747070,28.433594
14960,7.613562,1.436521,-2.686294,-6.011963,6.652832,22.003174,28.437500
15000,5.061342,0.296881,-2.264915,-9.674072,-11.535645,22.155762,28.458984
15040,5.272032,0.033519,-1.426944,-6.591797,-17.852783,9.307861,28.451172
15080,6.785168,0.316035,-1.364695,-0.885010,-8.483887,-2.471924,28.458984
15120,8.599973,0.301669,-1.125275,-0.823975,1.617432,-9.918213,28.468750
15160,10.151415,0.814029,-1.522712,-13.336182,-0.183105,-4.760742,28.431641
15200,12.167333,1.857901,-1.848324,-18.463135,-1.373291,5.920410,28.457031
15240,13.570335,2.087744,-0.948104,-57.159424,0.122070,21.972656,28.458984
15280,13.397953,1.086968,-3.136404,-17.028809,19.592285,1.617432,28.468750
15320,10.711658,-1.039083,-5.396531,17.944336,28.381348,-10.711670,28.476562
15360,8.738836,-2.025495,-6.086061,-22.583008,-0.244141,4.852295,28.458984
15400,9.141062,1.364695,-6.655881,-60.211182,14.434814,-4.608154,28.433594
15440,9.471462,2.442086,-5.463568,18.341064,-17.639160,-23.254395,28.468750
15480,8.355764,0.454898,-1.757344,27.069092,-14.343262,-17.242432,28.515625
15520,6.038177,-0.114922,-1.350330,27.648926,-14.282227,-12.542725,28.513672
15560,5.363012,1.043872,-1.570596,13.641357,-13.763428,-6.164551,28.501953
15600,6.488286,1.412579,-2.255338,18.920898,-18.005371,-1.831055,28.507812
15640,8.451532,1.948880,-1.987187,8.514404,-11.383057,7.812500,28.505859
15680,9.528923,1.848324,-2.020706,11.871338,4.608154,3.601074,28.521484
15720,11.305421,1.642422,-2.504335,11.230469,6.805420,-7.751465,28.509766
15760,13.005303,2.197877,-1.900996,34.393311,6.835938,-19.470215,28.525391
15800,13.546393,2.322376,-2.059013,43.395996,40.313721,-21.820068,28.527344
15840,11.635820,2.106898,-4.711789,25.054932,59.020996,-6.042480,28.539062
15880,7.752425,0.675165,-6.770802,11.413574,-16.540527,-2.197266,28.533203
15920,8.298303,-0.804452,-5.631162,2.441406,-30.914307,-2.258301,28.511719
15960,10.888829,-0.814029,-3.313575,-1.586914,1.464844,12.390137,28.525391
16000,9.595961,1.106121,-2.758120,-8.209229,1.922607,17.547607,28.519531
16040,6.440403,0.962469,-2.796427,-12.542725,-5.828857,27.801514,28.521484
16080,4.936844,0.316035,-2.197877,-14.068604,-23.895264,21.881104,28.531250
16120,6.162675,0.531513,-1.541866,-10.284424,-23.376465,11.810303,28.517578
16160,8.192958,0.416591,-1.379060,-4.211426,-5.126953,-1.220703,28.511719
16200,9.500193,0.062249,-1.053449,-8.941650,8.941650,-7.354736,28.546875
16240,10.299856,1.187524,-1.872266,-25.421143,2.624512,0.518799,28.541016
16280,12.306197,2.001553,-1.776498,-34.240723,2.380371,16.845703,28.529297
16320,13.326127,1.766921,-0.900220,-63.690186,11.322021,23.498535,28.541016
16360,12.847286,0.507571,-3.533842,-14.251709,33.050537,-4.028320,28.550781
16400,10.290278,-1.206678,-5.382165,10.131836,30.853271,-9.307861,28.541016
16440,8.331821,-1.441309,-5.995081,-32.226562,-6.683350,8.911133,28.533203
16480,8.968679,1.422156,-6.186617,-51.544189,10.681152,-11.657715,28.519531
16520,9.859323,2.446874,-4.501099,11.260986,-14.862061,-20.477295,28.539062
16560,8.197746,0.866701,-1.910573,36.132812,-11.169434,-18.646240,28.521484
16600,5.659893,-0.268151,-1.790863,35.583496,-17.028809,-12.664795,28.542969
16640,5.224148,0.560243,-1.604115,23.864746,-17.364502,-7.751465,28.521484
16680,6.971915,1.149217,-1.848324,20.141602,-21.026611,-1.251221,28.541016
16720,8.916007,2.116474,-1.599327,11.291504,-10.009766,9.033203,28.546875
16760,9.873688,2.173935,-2.035071,13.885498,5.157471,2.563477,28.550781
16800,11.496957,1.819593,-2.427721,15.533447,6.072998,-10.498047,28.531250
16840,13.062764,1.948880,-1.460463,39.489746,6.683350,-19.134521,28.531250
16880,13.378799,2.260126,-1.781286,44.036865,43.304443,-18.554688,28.541016
16920,11.061212,2.197877,-4.888960,25.665283,61.187744,-5.310059,28.546875
16960,7.417237,0.521936,-6.804321,16.479492,-23.406982,-3.356934,28.521484
17000,8.925584,-0.909797,-5.157111,-0.885010,-26.733398,-1.281738,28.531250
17040,11.487380,-0.507571,-3.002329,-3.112793,7.843018,13.580322,28.542969
17080,9.710882,1.388637,-2.647987,-16.387939,3.021240,22.674561,28.537109
17120,6.354211,0.933739,-2.595315,-13.549805,3.326416,28.045654,28.548828
17160,4.673482,0.129287,-2.154782,-14.251709,-17.120361,16.845703,28.535156
17200,5.832275,0.378284,-1.436521,-15.289307,-17.761230,8.972168,28.542969
17240,7.819463,0.493206,-1.053449,-9.918213,-2.502441,-2.960205,28.562500
17280,9.528923,0.517148,-1.000776,-19.592285,4.211426,-5.523682,28.564453
17320,11.367670,1.977611,-1.819593,-26.519775,-0.610352,-1.190186,28.564453
17360,13.378799,2.082955,-1.048660,-47.241211,0.671387,18.493652,28.546875
17400,13.455414,1.814805,-0.622492,-54.779053,26.580811,12.298584,28.576172
17440,11.362882,0.134075,-4.596867,8.087158,24.841309,-14.068604,28.625000
17480,8.719683,-1.795651,-5.784391,-7.049561,14.556885,2.777100,28.625000
17520,9.533711,-0.608127,-6.751649,-56.518555,-10.620117,12.023926,28.619141
17560,10.864887,2.523489,-6.181829,-30.670166,21.484375,-20.660400,28.613281
17600,9.524135,1.881842,-2.590526,41.900635,-22.521973,-21.728516,28.623047
17640,6.421249,-0.067038,-1.278504,37.841797,-18.646240,-14.526367,28.625000
17680,4.630386,0.019154,-1.350330,25.848389,-21.972656,-6.256104,28.626953
17720,5.453991,0.780510,-1.651999,23.101807,-20.690918,-2.746582,28.621094
17760,7.996634,1.915361,-1.656788,7.324219,-18.371582,9.124756,28.605469
17800,9.476251,2.619257,-1.752556,8.514404,-0.549316,9.002686,28.603516
17840,10.931925,1.685518,-2.264915,10.009766,4.272461,-0.732422,28.628906
17880,12.832921,1.848324,-1.996764,30.578613,-1.098633,-17.242432,28.642578
17920,14.097059,2.102109,-2.284068,44.860840,28.717041,-23.376465,28.619141
17960,12.579136,2.552219,-4.979939,24.810791,48.187256,-9.216309,28.615234
18000,8.456321,0.933739,-6.809110,5.493164,-4.760742,-1.464844,28.619141
18040,8.729259,-1.446098,-5.693412,-2.044678,-27.221680,2.532959,28.648438
18080,10.496181,-0.933739,-3.495534,-15.716553,-10.711670,20.355225,28.628906
18120,9.016563,1.149217,-2.624045,-13.458252,-5.798340,22.674561,28.634766
18160,5.918467,0.809240,-2.389413,-15.777588,-2.136230,29.022217,28.640625
18200,4.735731,-0.067038,-1.982399,-15.411377,-21.789551,19.897461,28.630859
18240,6.253655,0.368707,-1.642422,-9.368896,-22.644043,10.101318,28.625000
18280,8.350976,0.181959,-1.407791,-4.028320,-1.983643,-3.967285,28.615234
18320,9.548077,0.248997,-1.168370,-9.979248,10.375977,-8.972168,28.626953
18360,10.433931,1.383849,-1.829170,-26.214600,2.349854,-0.366211,28.607422
18400,12.320562,2.092532,-1.862689,-33.905029,1.831055,11.779785,28.626953
18440,13.589489,1.656788,-1.479617,-51.330566,2.380371,26.062012,28.642578
18480,13.206416,0.062249,-3.921702,15.319824,22.277832,-0.152588,28.626953
18520,9.351752,-2.341529,-5.094861,1.159668,42.572021,-16.174316,28.644531
18560,8.269572,-1.618480,-6.512228,-43.853760,-4.791260,-0.976562,28.638672
18600,9.404425,1.671153,-6.708553,-41.259766,14.648438,-21.942139,28.636719
18640,10.093954,2.006341,-3.869030,35.064697,-9.429932,-27.526855,28.626953
18680,7.790732,0.464475,-1.221043,43.121338,-7.507324,-19.805908,28.626953
18720,4.975151,-0.134075,-1.795651,42.236328,-22.399902,-15.289307,28.632812
18760,4.946421,0.459687,-1.632846,24.017334,-20.751953,-10.131836,28.648438
18800,7.072472,1.431733,-1.584962,13.305664,-21.728516,-1.739502,28.652344
18840,9.050082,2.279280,-1.537078,12.725830,2.014160,4.364014,28.623047
18880,10.390836,2.025495,-2.121263,7.751465,4.333496,0.091553,28.652344
18920,12.469003,1.781286,-2.308010,21.423340,-0.610352,-14.068604,28.654297
18960,13.718776,2.068590,-1.230620,39.703369,19.989014,-19.592285,28.677734
19000,13.019669,2.652776,-3.169923,38.513184,48.797607,-15.472412,28.654297
19040,9.212888,1.470040,-6.555324,19.744873,24.780273,-4.211426,28.664062
19080,8.092402,-0.569820,-6.512228,1.373291,-25.512695,-2.380371,28.654297
19120,11.190498,-1.589750,-4.381389,8.270264,-17.730713,8.972168,28.654297
19160,10.874464,0.301669,-2.647987,-12.329102,6.866455,20.568848,28.658203
19200,7.407660,1.335965,-2.600103,-4.119873,6.011963,28.320312,28.650391
19240,4.223372,0.407014,-2.547431,-13.061523,-20.629883,25.756836,28.666016
19280,4.740520,0.517148,-1.532289,-11.230469,-20.111084,11.596680,28.656250
19320,6.828263,0.512359,-1.106121,-5.035400,-6.347656,0.000000,28.667969
19360,9.006987,0.009577,-1.072602,-14.099121,6.958008,-7.080078,28.673828
19400,10.788273,1.091756,-1.790863,-30.944824,1.098633,1.434326,28.656250
19440,13.029245,1.924938,-1.690306,-36.437988,1.220703,17.089844,28.746094
19480,13.771448,1.838747,-1.393425,-56.884766,3.082275,32.348633,28.716797
19520,12.756307,0.019154,-4.529830,9.460449,20.751953,-4.119873,28.710938
19560,9.677363,-1.733402,-5.300763,-5.737305,24.505615,-13.092041,28.724609
19600,8.724471,-0.536301,-6.521805,-54.473877,0.488281,3.265381,28.734375
19640,9.260772,2.217031,-6.651093,-58.380127,15.228271,-14.770508,28.742188
19680,9.380483,2.355895,-4.256891,15.777588,-20.355225,-19.927979,28.730469
19720,7.623138,0.407014,-1.201889,31.036377,-7.080078,-17.181396,28.720703
19760,5.228937,-0.430956,-1.551443,36.895752,-17.211914,-13.763428,28.718750
19800,4.932055,0.603339,-1.814805,28.594971,-15.289307,-8.514404,28.726562
19840,7.149086,1.565808,-1.910573,8.514404,-18.157959,4.516602,28.724609
19880,9.179369,2.178724,-1.800440,11.688232,-2.319336,9.307861,28.751953
19920,10.405201,1.819593,-1.958457,13.549805,1.953125,2.014160,28.734375
19960,12.248735,1.939303,-2.274492,25.939941,0.335693,-10.437012,28.730469
20000,13.690045,2.528277,-1.513135,36.865234,18.493652,-16.052246,28.738281
20040,13.354857,3.145981,-3.375824,32.684326,45.074463,-13.977051,28.744141
20080,9.864111,2.054225,-6.296751,13.336182,21.270752,0.000000,28.734375
20120,7.450756,0.019154,-6.157887,-0.091553,-15.594482,4.516602,28.734375
20160,9.806650,-1.264138,-4.735731,-3.662109,-17.333984,7.873535,28.736328
20200,10.793061,0.335188,-2.738967,-35.308838,-0.183105,25.512695,28.724609
20240,8.101978,1.829170,-2.624045,-25.665283,1.220703,29.510498,28.763672
20280,4.970363,0.497994,-2.403779,-32.928467,-3.417969,29.144287,28.753906
20320,4.797980,-0.244209,-1.651999,-24.444580,-14.099121,14.404297,28.746094
20360,6.789956,0.100556,-1.206678,-11.413574,-13.946533,2.929688,28.726562
20400,8.810662,0.229843,-0.938527,-11.169434,4.150391,-7.110596,28.748047
20440,9.897630,0.612916,-1.527501,-31.097412,1.190186,-0.366211,28.746094
20480,11.525687,1.795651,-2.126051,-25.604248,-4.211426,7.537842,28.738281
20520,13.378799,1.843535,-1.077391,-53.894043,-5.645752,27.954102,28.750000
20560,13.709199,0.770933,-2.748544,-25.909424,20.935059,7.751465,28.742188
20600,11.405977,-0.995988,-5.453991,19.348145,25.482178,-13.397217,28.757812
20640,8.839393,-1.723825,-6.143522,-12.176514,16.021729,-6.988525,28.759766
20680,8.997410,1.177947,-6.895301,-55.023193,17.303467,-12.847900,28.744141
20720,9.174581,2.437297,-5.477933,11.657715,-29.296875,-21.057129,28.750000
20760,8.250419,0.737414,-2.102109,22.613525,-12.847900,-19.165039,28.763672
20800,6.100426,0.067038,-1.656788,29.663086,-8.026123,-14.953613,28.736328
20840,5.142745,0.799663,-1.824382,17.364502,-15.075684,-10.375977,28.738281
20880,6.215348,1.508347,-2.159570,19.287109,-25.146484,-2.380371,28.746094
20920,8.432379,1.589750,-1.948880,16.662598,-16.052246,4.577637,28.746094
20960,9.792285,1.958457,-1.948880,13.214111,-4.852295,3.784180,28.769531
21000,11.707646,1.838747,-2.231396,15.899658,11.840820,-7.232666,28.751953
21040,13.235147,2.643199,-1.934515,33.599854,15.655518,-15.777588,28.757812
21080,13.239936,2.944868,-2.810793,37.200928,25.909424,-20.782471,28.746094
21120,10.855310,2.758120,-5.252879,2.441406,38.055420,-6.713867,28.779297
21160,8.092402,0.684742,-6.291962,-5.798340,-5.798340,3.662109,28.761719
21200,8.949526,-1.565808,-5.602432,-7.415771,-26.306152,9.704590,28.759766
21240,10.735600,-1.034295,-3.840300,-13.610840,-4.364014,20.507812,28.769531
21280,9.758766,1.101333,-2.557007,-8.483887,6.958008,23.651123,28.759766
21320,6.560112,0.957681,-2.355895,-13.977051,7.690430,25.146484,28.734375
21360,4.759673,0.076614,-1.886631,-13.244629,-2.746582,18.554688,28.767578
21400,5.243302,0.335188,-1.695095,-12.512207,-9.094238,8.026123,28.826172
21440,7.422025,0.469264,-1.412579,-15.686035,-1.708984,-3.662109,28.833984
21480,9.787497,-0.081403,-1.086968,-23.437500,6.072998,-0.671387,28.814453
21520,10.884041,1.154005,-2.015918,-28.015137,-8.605957,7.019043,28.832031
21560,12.282255,1.551443,-1.479617,-38.482666,-10.314941,24.322510,28.808594
21600,13.383588,1.613692,-0.957681,-43.640137,-0.579834,27.648926,28.835938
21640,12.756307,-0.598550,-4.185065,15.319824,22.949219,-8.789062,28.828125
21680,9.854534,-2.097321,-5.444415,15.045166,23.437500,-14.038086,28.826172
21720,8.671799,-1.249773,-6.459556,-29.235840,-1.739502,-4.394531,28.824219
21760,8.959103,1.719037,-6.416461,-34.118652,21.850586,-27.191162,28.847656
21800,9.380483,2.451663,-4.237737,16.845703,-18.096924,-21.148682,28.816406
21840,7.958326,0.790087,-1.719037,41.656494,-10.467529,-20.690918,28.835938
21880,5.669470,-0.181959,-1.723825,44.677734,-16.143799,-17.669678,28.847656
21920,5.315128,0.588974,-1.503559,29.296875,-20.233154,-11.444092,28.841797
21960,6.890512,1.484405,-1.637634,21.270752,-24.139404,-0.976562,28.830078
22000,8.825027,2.236184,-1.690306,18.280029,-9.857178,5.584717,28.812500
22040,9.849746,2.130840,-2.145205,12.847900,-1.434326,2.044678,28.822266
22080,11.750742,2.116474,-2.466028,22.094727,1.373291,-10.284424,28.857422
22120,13.488933,2.561796,-1.709460,38.299561,10.070801,-19.409180,28.845703
22160,13.608643,2.719813,-3.002329,37.933350,37.872314,-17.761230,28.847656
22200,10.706870,1.972822,-6.258443,9.277344,36.499023,-0.122070,28.824219
22240,7.829040,0.201113,-6.761226,-2.563477,-16.754150,7.080078,28.845703
22280,9.591172,-1.335965,-5.334281,2.502441,-36.163330,14.221191,28.832031
22320,10.491392,-0.339977,-3.112462,-16.784668,-3.417969,30.639648,28.828125
22360,8.274361,1.053449,-2.657564,-12.420654,15.716553,40.802002,28.826172
22400,5.023035,0.229843,-2.533065,-17.517090,11.444092,34.942627,28.845703
22440,4.716578,-0.363919,-1.805228,-11.138916,-16.693115,19.042969,28.833984
22480,6.675035,0.138864,-1.359907,-8.361816,-13.031006,6.317139,28.853516
22520,8.504205,0.090980,-0.952892,-13.366699,13.183594,-5.798340,28.837891
22560,9.935937,0.349553,-1.235408,-36.468506,6.072998,0.488281,28.845703
22600,11.994950,2.082955,-2.063802,-41.351318,1.495361,8.178711,28.847656
22640,13.857639,1.733402,-0.957681,-56.488037,3.692627,26.153564,28.830078
22680,13.512875,0.057461,-2.494758,-16.082764,11.810303,14.801025,28.865234
22720,10.965444,-2.049437,-5.549759,37.994385,6.622314,-11.260986,28.855469
22760,8.341399,-3.193865,-6.282385,-14.526367,11.108398,-10.772705,28.851562
22800,8.935161,-0.301669,-7.493851,-66.131592,16.387939,-24.230957,28.871094
22840,9.758766,2.260126,-5.832275,-11.199951,14.709473,-36.621094,28.841797
22880,8.528147,1.230620,-2.116474,57.434082,-4.211426,-26.367188,28.861328
22920,5.803545,-0.239420,-1.580173,37.384033,-13.366699,-21.148682,28.861328
22960,4.774038,0.359130,-1.575385,23.681641,-23.071289,-13.549805,28.865234
23000,6.129156,1.474828,-1.288081,19.073486,-25.054932,-5.004883,28.873047
23040,8.346188,1.968034,-1.426944,15.747070,-19.653320,3.143311,28.871094
23080,9.816227,1.872266,-2.092532,13.305664,-6.591797,2.105713,28.884766
23120,11.908759,1.757344,-2.446874,16.693115,8.117676,-7.904053,28.869141
23160,13.709199,2.298434,-1.752556,41.442871,5.249023,-19.500732,28.875000
23200,13.848063,2.552219,-2.322376,40.679932,38.848877,-14.831543,28.865234
23240,10.778696,2.164358,-5.688623,9.490967,49.407959,2.410889,28.847656
23280,7.733272,0.105345,-6.971915,7.049561,-26.702881,4.913330,28.855469
23320,9.533711,-1.805228,-5.267244,8.270264,-27.557373,10.681152,28.867188
23360,10.735600,-1.302446,-3.251326,-7.324219,-5.249023,24.566650,28.880859
23400,8.580819,0.756568,-2.834735,1.647949,6.225586,30.334473,28.902344
23440,5.204995,0.641646,-2.777274,-10.711670,3.204346,34.332275,28.925781
23480,4.343082,-0.402226,-1.920150,-12.908936,-19.012451,26.336670,28.921875
23520,6.320693,-0.191536,-1.331176,-7.965088,-23.071289,8.880615,28.917969
23560,8.614338,-0.229843,-1.106121,-9.918213,5.462646,-1.098633,28.916016
23600,10.328587,0.071826,-1.254562,-27.191162,8.544922,3.387451,28.919922
23640,11.961432,1.618480,-2.193089,-32.806396,5.126953,12.298584,28.933594
23680,13.503298,1.561020,-1.230620,-47.149658,8.850098,22.979736,28.923828
23720,13.086706,0.186748,-1.666364,-18.646240,28.259277,8.239746,28.904297
23760,11.190498,-1.996764,-5.104438,47.271729,-1.678467,-13.427734,28.916016
23800,8.571242,-3.251326,-5.779603,6.652832,14.739990,-20.904541,28.923828
23840,9.203311,-1.479617,-7.321469,-58.959961,10.925293,-21.575928,28.933594
23880,10.079589,1.944092,-6.138733,-28.106689,34.637451,-40.100098,28.919922
23920,8.796297,2.063802,-2.734178,43.243408,-7.904053,-21.087646,28.929688
23960,5.961562,0.248997,-1.441309,36.437988,-16.723633,-16.815186,28.939453
24000,4.563348,0.052672,-1.647211,25.451660,-33.905029,-14.129639,28.937500
24040,6.114791,0.689530,-0.962469,16.815186,-19.317627,-5.584717,28.916016
24080,8.106767,1.556231,-1.561020,16.876221,-25.024414,-0.244141,28.908203
24120,9.442732,1.795651,-2.178724,11.474609,-9.155273,1.037598,28.929688
24160,11.980585,1.484405,-1.982399,19.714355,8.880615,-7.873535,28.919922
24200,13.848063,2.552219,-2.240973,27.313232,10.894775,-17.150879,28.945312
24240,14.044387,3.213019,-3.945644,24.566650,26.153564,-20.324707,28.939453
24280,11.410766,2.082955,-5.932832,6.988525,45.074463,-4.241943,28.925781
24320,8.322245,-0.981623,-6.679823,-11.169434,-5.065918,5.950928,28.935547
24360,9.476251,-2.925714,-4.807557,-6.469727,-30.029297,14.556885,28.945312
24400,9.572019,-1.029507,-3.251326,-11.383057,-22.216797,21.057129,28.925781
24440,7.503428,0.780510,-2.408567,13.549805,-4.241943,22.216797,28.933594
24480,4.888960,0.205901,-2.145205,-3.875732,-13.275146,27.313232,28.943359
24520,5.003881,-0.143652,-1.675941,-0.122070,-25.756836,14.953613,28.933594
24560,7.019799,0.033519,-1.422156,7.049561,-5.920410,1.678467,28.939453
24600,8.643068,-0.023942,-1.493982,-6.378174,14.251709,-5.859375,28.947266
24640,10.022128,0.339977,-1.446098,-33.020020,6.256104,5.371094,28.912109
24680,12.301409,2.039860,-1.958457,-29.205322,10.681152,11.993408,28.923828
24720,14.116213,1.134852,-1.359907,-34.423828,2.319336,33.355713,28.935547
24760,13.431472,-1.005565,-3.739743,11.138916,-2.014160,12.023926,28.941406
24800,10.505757,-2.341529,-5.300763,40.893555,19.958496,-15.991211,28.933594
24840,8.212111,-2.662352,-6.766014,-23.529053,14.739990,-11.993408,28.937500
24880,8.815451,0.536301,-7.953538,-70.190430,31.524658,-36.376953,28.945312
24920,9.792285,2.537854,-5.449203,-8.697510,21.270752,-29.174805,28.955078
24960,8.092402,1.221043,-1.924938,37.414551,-6.988525,-19.287109,28.955078
25000,5.157111,-0.153229,-1.685518,32.287598,-21.575928,-15.838623,28.939453
25040,4.477157,0.153229,-1.177947,18.615723,-18.737793,-12.023926,28.939453
25080,6.200983,1.091756,-1.546654,14.129639,-23.986816,-4.211426,28.949219
25120,8.805874,1.738190,-1.685518,9.826660,-17.639160,3.387451,28.949219
25160,10.534488,1.752556,-1.929727,11.138916,4.272461,0.213623,28.968750
25200,12.564771,1.814805,-2.475605,15.258789,6.286621,-9.735107,28.949219
25240,13.881581,2.379837,-1.848324,38.482666,4.882812,-17.364502,28.966797
25280,13.455414,2.614468,-3.337517,33.599854,40.649414,-15.319824,28.955078
25320,9.950302,1.455675,-6.014235,15.258789,37.658691,-3.112793,28.945312
25360,7.814674,-0.459687,-6.282385,-4.058838,-10.620117,7.415771,28.992188
25400,9.572019,-1.647211,-5.166687,2.014160,-35.675049,14.129639,29.017578
25440,10.419566,-0.258574,-2.796427,-16.540527,-5.645752,28.045654,28.994141
25480,8.063671,1.019930,-2.686294,-2.319336,6.530762,30.639648,29.005859
25520,5.300763,0.244209,-2.236184,-17.822266,1.770020,26.733398,28.984375
25560,5.128380,0.009577,-1.618480,-15.014648,-14.678955,16.357422,29.005859
25600,6.560112,0.344765,-1.503559,-14.434814,-6.744385,5.035400,29.011719
25640,8.039729,0.181959,-1.168370,-19.836426,11.108398,-5.126953,29.011719
25680,9.849746,0.239420,-1.350330,-34.698486,-0.396729,2.563477,29.025391
25720,12.306197,1.283292,-1.800440,-35.186768,0.335693,17.883301,29.001953
25760,13.488933,0.857124,-0.751779,-53.771973,10.772705,29.937744,29.001953
25800,12.636597,-0.009577,-0.699107,-38.482666,55.450439,-0.152588,29.035156
25840,10.572795,-1.086968,-5.386954,32.958984,5.950928,-18.951416,29.007812
25880,8.911219,-1.867477,-6.062119,-4.333496,4.608154,4.516602,29.003906
25920,9.892841,-0.196325,-7.082048,-71.655273,8.087158,-11.444092,29.021484
25960,11.219229,2.801216,-5.942409,-23.101807,28.656006,-34.729004,29.019531
26000,9.026140,1.900996,-2.442086,40.771484,-4.516602,-26.367188,29.000000
26040,5.669470,-0.316035,-1.249773,27.069092,-8.209229,-15.380859,29.015625
26080,4.022259,-0.316035,-1.838747,32.012939,-35.339355,-19.073486,28.986328
26120,5.506664,0.699107,-1.201889,19.378662,-23.162842,-7.781982,29.005859
26160,7.977480,1.776498,-1.479617,19.439697,-31.646729,0.793457,29.044922
26200,10.132261,1.905785,-1.675941,12.207031,-9.521484,4.516602,29.009766
26240,12.545617,1.043872,-1.920150,15.899658,5.249023,-4.394531,29.009766
26280,13.742718,2.240973,-1.479617,36.315918,5.859375,-15.502930,29.021484
26320,13.579912,2.896984,-2.614468,41.564941,36.499023,-19.378662,29.029297
26360,10.352529,2.370260,-5.726931,18.646240,41.259766,-8.911133,29.027344
26400,8.010999,0.086191,-6.459556,-0.885010,-11.535645,0.610352,29.017578
26440,10.457873,-1.929727,-5.635951,-6.072998,-43.151855,13.366699,29.042969
26480,11.587936,-0.306458,-3.289633,-21.575928,-15.228271,32.135010,29.025391
26520,8.844181,1.379060,-2.667141,-4.699707,4.272461,37.414551,29.025391
26560,4.855441,0.095768,-2.394202,-15.136719,7.568359,37.994385,29.025391
26600,3.773262,-0.459687,-1.819593,-16.418457,-26.367188,22.125244,29.037109
26640,5.631162,0.158017,-1.369483,-13.183594,-21.697998,5.401611,29.033203
26680,8.595184,-0.023942,-0.746991,-4.852295,4.699707,-5.889893,29.025391
26720,10.587160,0.220267,-1.350330,-29.022217,6.469727,1.129150,29.027344
26760,12.641385,1.661576,-2.015918,-30.273438,5.218506,12.695312,29.011719
26800,14.053964,1.225831,-1.091756,-50.201416,8.544922,30.700684,29.031250
26840,13.350069,-0.861913,-3.864242,14.892578,10.131836,-0.946045,29.039062
26880,10.228029,-2.738967,-5.583278,24.658203,18.280029,-19.866943,29.031250
26920,8.580819,-2.193089,-6.780379,-15.289307,-3.173828,-10.955811,29.027344
26960,9.131485,1.072602,-7.690176,-54.138184,27.008057,-35.797119,29.007812
27000,9.437943,2.394202,-5.085284,28.045654,14.312744,-35.644531,29.025391
27040,7.599196,0.895431,-1.584962,39.062500,-9.277344,-20.690918,29.037109
27080,5.161899,0.129287,-1.867477,35.095215,-22.216797,-17.578125,29.035156
27120,5.114015,0.612916,-1.556231,17.913818,-22.918701,-9.429932,29.039062
27160,6.833052,1.465251,-1.441309,12.268066,-25.024414,-1.983643,29.025391
27200,8.757990,1.958457,-1.853112,19.134521,-16.235352,3.448486,29.037109
27240,10.041282,1.589750,-2.164358,14.007568,3.112793,2.624512,29.050781
27280,12.052411,1.575385,-2.451663,12.908936,1.312256,-7.110596,29.046875
27320,13.833697,2.542642,-1.719037,28.961182,15.502930,-15.014648,29.042969
27360,13.613431,2.542642,-3.208230,33.813477,44.311523,-16.113281,29.091797
27400,9.940725,1.953669,-5.908890,4.394531,34.454346,0.823975,29.078125
27440,7.603985,0.076614,-6.186617,-6.774902,-8.483887,6.958008,29.103516
27480,9.686940,-1.292869,-5.372589,-13.610840,-31.066895,14.739990,29.085938
27520,10.678140,0.244209,-3.275268,-32.287598,-6.072998,33.355713,29.105469
27560,8.552089,1.589750,-2.604892,-14.373779,9.063721,41.381836,29.089844
27600,5.018247,-0.090980,-2.628834,-28.167725,4.943848,36.895752,29.093750
27640,4.793192,-0.761356,-1.972822,-23.498535,-23.223877,18.096924,29.103516
27680,6.651093,-0.225055,-1.379060,-15.686035,-15.777588,7.263184,29.111328
27720,8.671799,-0.047884,-1.043872,-9.246826,5.065918,-4.425049,29.095703
27760,10.036493,0.349553,-1.359907,-26.031494,5.340576,0.091553,29.117188
27800,11.999739,1.345541,-1.948880,-28.228760,5.889893,10.131836,29.117188
27840,13.651738,1.139640,-0.890643,-49.163818,9.582520,29.327393,29.101562
27880,13.316550,0.306458,-2.111686,-14.099121,28.656006,7.202148,29.101562
27920,11.051635,-1.125275,-5.185841,38.360596,15.655518,-16.967773,29.132812
27960,8.255207,-2.844312,-5.746084,-11.199951,-7.568359,-11.138916,29.115234
28000,8.815451,-0.636858,-6.924031,-80.078125,4.577637,-27.221680,29.111328
28040,9.955091,2.341529,-6.186617,-14.099121,28.350830,-36.926270,29.130859
28080,9.021352,1.594538,-2.456451,41.351318,4.913330,-26.245117,29.109375
28120,6.282385,0.134075,-1.479617,34.942627,-13.916016,-20.538330,29.126953
28160,4.750096,0.201113,-1.532289,27.404785,-24.902344,-14.770508,29.121094
28200,5.669470,0.857124,-1.513135,22.460938,-24.566650,-8.911133,29.119141
28240,7.886500,1.474828,-1.771709,17.730713,-31.646729,0.213623,29.105469
28280,9.979033,1.939303,-1.790863,15.350342,-6.195068,2.746582,29.107422
28320,12.042834,1.455675,-2.236184,14.190674,1.556396,-5.676270,29.117188
28360,13.493721,2.092532,-1.680730,38.024902,0.671387,-14.739990,29.107422
28400,13.642161,2.681506,-1.776498,41.351318,32.867432,-17.456055,29.115234
28440,11.204864,2.451663,-4.525041,20.263672,60.729980,-4.180908,29.113281
28480,7.627927,0.684742,-6.742072,8.758545,-15.563965,-0.427246,29.117188
28520,8.834604,-0.909797,-5.918467,-6.744385,-36.346436,10.467529,29.115234
28560,11.008539,-1.063026,-3.883395,0.549316,-16.784668,25.726318,29.103516
28600,9.629479,0.636858,-2.643199,0.610352,5.310059,32.287598,29.123047
28640,5.851429,0.316035,-2.686294,-3.997803,1.251221,39.154053,29.117188
28680,4.429273,-0.397437,-2.178724,-10.711670,-24.536133,25.451660,29.126953
28720,6.181829,-0.019154,-1.450886,0.152588,-28.198242,12.268066,29.113281
28760,8.188169,0.095768,-1.063026,-2.532959,5.554199,-0.305176,29.117188
28800,9.744401,-0.086191,-0.976834,-16.998291,16.662598,-3.143311,29.119141
28840,11.597513,1.388637,-2.097321,-30.151367,10.864258,6.164551,29.134766
28880,13.608643,1.110910,-1.417367,-50.476074,8.178711,29.174805,29.132812
28920,13.034034,0.105345,-0.708684,-45.349121,45.166016,11.413574,29.119141
28960,11.066000,-1.043872,-4.630386,34.027100,12.542725,-19.958496,29.113281
29000,8.853758,-2.097321,-6.215348,16.448975,-0.030518,-4.791260,29.123047
29040,9.107543,-1.594538,-7.297527,-55.328369,-9.490967,-3.936768,29.115234
29080,10.314221,1.752556,-6.555324,-53.100586,33.691406,-39.825439,29.142578
29120,9.351752,2.111686,-3.495534,41.961670,0.244141,-28.381348,29.130859
29160,6.464345,0.071826,-1.752556,41.076660,-12.512207,-22.003174,29.146484
29200,4.673482,-0.450110,-1.637634,26.000977,-13.885498,-19.744873,29.130859
29240,5.295974,0.636858,-1.393425,17.395020,-19.744873,-10.162354,29.142578
29280,7.469909,1.776498,-1.704672,14.801025,-40.130615,-2.105713,29.132812
29320,9.835381,2.288857,-1.589750,12.908936,-4.058838,0.732422,29.183594
29360,11.846510,1.503559,-2.197877,9.704590,-1.708984,-4.730225,29.181641
29400,13.493721,1.589750,-1.843535,25.451660,-3.234863,-13.122559,29.183594
29440,13.474567,2.557007,-1.192312,34.637451,27.770996,-14.678955,29.191406
29480,11.238382,2.384625,-3.926491,26.275635,66.406250,-5.187988,29.187500
29520,7.589619,0.550666,-7.120356,10.955811,-4.516602,-0.976562,29.173828
29560,9.064447,-0.636858,-6.421249,-14.648438,-35.369873,10.620117,29.179688
29600,11.760319,-0.837971,-4.539406,0.946045,-20.355225,20.080566,29.205078
29640,10.591949,0.636858,-2.422932,-12.878418,10.955811,38.848877,29.181641
29680,6.119579,0.363919,-2.753332,-13.031006,9.674072,41.748047,29.175781
29720,3.720589,-0.148441,-2.600103,-16.754150,-16.845703,29.602051,29.203125
29760,5.190629,0.158017,-1.450886,-13.916016,-24.658203,14.373779,29.195312
29800,7.680599,-0.181959,-0.809240,-6.408691,5.554199,-0.915527,29.171875
29840,9.979033,-0.517148,-0.842759,-23.132324,19.561768,-5.493164,29.187500
29880,11.841722,0.905008,-1.939303,-33.935547,11.657715,0.671387,29.197266
29920,13.862428,1.278504,-1.048660,-44.036865,21.331787,23.254395,29.187500
29960,13.038822,0.335188,-0.521936,-31.188965,48.461914,4.943848,29.199219
30000,10.807426,-0.914585,-4.879383,41.107178,3.509521,-17.761230,29.210938
30040,8.978256,-2.264915,-5.928043,1.373291,-4.150391,-5.645752,29.185547
30080,9.567230,-0.646434,-7.173028,-60.699463,-5.889893,-9.796143,29.195312
30120,10.558430,2.293645,-6.708553,-26.489258,22.674561,-38.391113,29.205078
30160,9.270349,1.752556,-2.944868,37.933350,0.305176,-26.763916,29.210938
30200,6.105214,0.100556,-1.460463,28.381348,-19.592285,-17.486572,29.220703
30240,4.367024,-0.033519,-1.733402,29.418945,-32.440186,-13.305664,29.226562
30280,5.635951,0.555455,-1.225831,18.646240,-27.069092,-5.035400,29.207031
30320,7.886500,1.632846,-1.651999,17.333984,-31.951904,1.586914,29.205078
30360,9.706094,2.011129,-1.915361,12.176514,-7.232666,5.828857,29.201172
30400,11.631032,1.364695,-2.020706,9.094238,-0.061035,-2.349854,29.210938
30440,13.407530,1.747767,-1.680730,30.914307,0.579834,-13.763428,29.226562
30480,13.919888,2.327164,-1.728614,40.222168,28.869629,-18.951416,29.191406
30520,11.937490,2.451663,-4.687847,13.977051,54.962158,-5.187988,29.197266
30560,7.958326,0.718261,-6.885724,2.105713,-11.260986,0.823975,29.207031
30600,8.767567,-1.398214,-5.990293,-16.021729,-30.120850,8.941650,29.214844
30640,10.893618,-1.450886,-4.084508,-10.040283,-10.528564,20.629883,29.222656
30680,9.533711,0.660800,-2.930503,-17.822266,-9.429932,28.656006,29.197266
30720,6.114791,0.493206,-2.748544,-8.026123,-1.068115,30.212402,29.226562
30760,4.189853,-0.316035,-2.226608,-14.801025,-17.059326,24.414062,29.201172
30800,5.386954,0.019154,-1.776498,-1.892090,-33.996582,10.131836,29.208984
30840,7.800309,-0.019154,-1.340753,2.532959,-7.873535,-1.403809,29.208984
30880,9.706094,-0.205901,-1.340753,-14.434814,9.979248,-2.960205,29.214844
30920,11.267113,1.340753,-1.920150,-28.015137,8.422852,1.251221,29.214844
30960,13.268666,1.671153,-1.575385,-34.362793,14.617920,17.517090,29.230469
31000,13.599066,0.656011,-1.556231,-33.599854,19.805908,17.578125,29.205078
31040,11.942278,-1.096544,-5.233725,39.520264,14.282227,-9.460449,29.220703
31080,8.734048,-2.671929,-5.597643,7.263184,32.836914,-15.594482,29.207031
31120,8.810662,-0.593762,-6.871359,-48.034668,5.340576,-9.948730,29.222656
31160,9.615114,2.729390,-7.311892,-23.345947,12.390137,-30.853271,29.205078
31200,9.385271,1.810017,-3.892972,23.956299,-27.069092,-20.416260,29.220703
31240,7.340622,0.134075,-1.240196,8.270264,-9.033203,-13.977051,29.224609
31280,5.161899,0.004788,-1.541866,5.920410,-20.019531,-7.537842,29.208984
31320,5.291186,0.727837,-1.623269,13.641357,-15.319824,-5.554199,29.275391
31360,7.149086,1.364695,-2.054225,12.451172,-15.136719,3.570557,29.265625
31400,9.179369,1.422156,-2.360683,17.242432,-7.263184,7.293701,29.277344
31440,11.295844,1.470040,-1.910573,12.573242,4.455566,1.464844,29.273438
31480,13.158532,2.346318,-1.800440,23.773193,10.101318,-11.016846,29.283203
31520,14.101848,2.839523,-2.082955,35.156250,26.855469,-19.134521,29.285156
31560,12.076353,2.475605,-4.625597,20.782471,45.379639,-11.810303,29.267578
31600,7.996634,0.521936,-6.746861,-14.068604,-9.674072,3.387451,29.281250
31640,8.384495,-1.695095,-5.856217,-15.289307,-23.040771,0.915527,29.273438
31680,10.563218,-1.814805,-4.199430,-2.136230,-8.544922,11.535645,29.281250
31720,9.528923,0.162806,-2.940080,-11.779785,-4.089355,18.127441,29.265625
31760,6.521805,0.105345,-2.537854,-1.892090,7.781982,17.944336,29.291016
31800,4.855441,-0.277727,-2.193089,-6.469727,-15.258789,14.770508,29.296875
31840,5.707777,0.450110,-1.699883,12.268066,-24.841309,2.563477,29.279297
31880,7.642292,0.459687,-1.292869,9.002686,-13.244629,-2.960205,29.289062
31920,9.188946,0.019154,-1.283292,-3.997803,3.356934,-5.889893,29.277344
31960,10.917560,1.139640,-1.632846,-20.202637,4.608154,-1.129150,29.277344
32000,13.168109,1.810017,-1.450886,-25.085449,9.155273,8.941650,29.298828
32040,13.666103,1.474828,-1.383849,-38.879395,15.350342,12.207031,29.281250
32080,12.105083,0.110133,-4.831499,20.874023,20.507812,-6.347656,29.281250
32120,9.294291,-2.159570,-5.544971,0.030518,44.738770,-6.896973,29.292969
32160,9.251195,-0.565032,-6.871359,-40.069580,16.815186,0.000000,29.291016
32200,9.433155,1.996764,-6.818686,-34.942627,0.152588,-15.899658,29.279297
32240,9.275137,1.364695,-3.203442,17.028809,-30.273438,-18.035889,29.279297
32280,7.268796,0.459687,-1.158794,11.199951,-3.662109,-12.390137,29.283203
32320,4.951209,0.014365,-1.661576,12.878418,-15.289307,-5.706787,29.289062
32360,4.797980,0.363919,-1.991976,25.238037,-23.376465,-6.042480,29.294922
32400,6.952762,1.024718,-1.977611,14.343262,-26.977539,2.410889,29.283203
32440,9.361329,1.704672,-2.030283,21.453857,-11.230469,4.333496,29.302734
32480,11.554418,1.350330,-1.838747,15.106201,3.784180,-0.701904,29.283203
32520,13.460202,2.035071,-1.714248,26.519775,12.176514,-10.528564,29.316406
32560,13.986926,2.705448,-2.035071,41.625977,31.463623,-16.662598,29.314453
32600,12.277467,2.432509,-4.711789,21.697998,43.029785,-7.354736,29.302734
32640,8.312668,0.737414,-6.871359,0.946045,-11.657715,2.746582,29.302734
32680,9.064447,-1.369483,-5.980716,-7.843018,-28.320312,4.852295,29.312500
32720,10.783484,-1.288081,-4.041412,-7.080078,-6.927490,17.517090,29.316406
32760,9.112331,0.387861,-2.829947,-11.291504,3.295898,23.559570,29.322266
32800,5.975927,0.134075,-2.513912,-7.019043,3.570557,25.665283,29.335938
32840,4.304775,-0.397437,-2.145205,-7.171631,-20.294189,18.005371,29.312500
32880,5.401319,0.363919,-1.776498,-2.227783,-24.566650,10.864258,29.316406
32920,7.694964,0.454898,-1.460463,-1.098633,-7.293701,2.258301,29.320312
32960,9.864111,-0.095768,-1.072602,-12.817383,8.666992,-0.762939,29.308594
33000,11.693281,1.474828,-1.853112,-27.313232,3.631592,3.906250,29.322266
33040,13.661315,1.838747,-1.805228,-44.403076,6.072998,21.362305,29.335938
33080,13.838486,0.368707,-2.073379,-17.150879,10.070801,21.972656,29.302734
33120,11.654974,-1.417367,-5.118803,43.762207,32.165527,4.486084,29.314453
33160,8.078036,-3.351882,-5.913678,-5.676270,32.440186,-15.991211,29.287109
33200,8.667010,-0.866701,-7.374141,-61.645508,6.317139,-25.177002,29.306641
33240,9.777920,2.149993,-6.382942,-22.003174,33.630371,-28.137207,29.328125
33280,8.786720,1.532289,-2.489970,35.766602,-19.378662,-17.730713,29.351562
33320,6.330269,0.316035,-1.503559,30.944824,-23.315430,-16.510010,29.361328
33360,5.104438,0.158017,-1.450886,20.355225,-21.789551,-13.549805,29.361328
33400,5.889736,0.636858,-1.474828,18.157959,-24.749756,-6.958008,29.361328
33440,7.661446,1.144428,-1.872266,12.573242,-25.115967,-1.068115,29.365234
33480,9.528923,1.522712,-1.963245,11.901855,-10.681152,1.556396,29.369141
33520,12.406754,1.628057,-1.939303,12.725830,2.838135,-5.096436,29.378906
33560,14.097059,2.274492,-1.867477,27.923584,16.754150,-15.533447,29.388672
33600,13.690045,2.652776,-3.457227,29.266357,36.926270,-19.653320,29.363281
33640,10.285490,1.867477,-6.263232,13.854980,29.418945,-7.507324,29.365234
33680,8.169016,-0.675165,-6.387730,-2.410889,-4.791260,4.943848,29.369141
33720,10.098742,-2.700660,-5.291186,-7.995605,-29.998779,13.183594,29.371094
33760,10.721235,-0.756568,-3.476381,-14.739990,-7.873535,23.468018,29.382812
33800,8.255207,1.254562,-2.844312,4.394531,3.631592,29.144287,29.363281
33840,4.812346,-0.071826,-2.379837,-14.221191,2.929688,34.851074,29.361328
33880,4.027047,-0.890643,-1.651999,-13.580322,-19.866943,18.280029,29.375000
33920,6.033388,0.244209,-1.407791,-10.589600,-15.319824,7.385254,29.382812
33960,8.485051,0.086191,-1.139640,-5.523682,6.103516,-5.157471,29.378906
34000,10.285490,-0.028730,-1.455675,-22.491455,5.462646,-0.976562,29.375000
34040,12.694057,1.168370,-1.857901,-30.761719,0.976562,15.991211,29.365234
34080,13.919888,1.393425,-0.699107,-57.983398,24.841309,32.104492,29.380859
34120,12.579136,-0.742203,-2.571373,-13.061523,31.951904,-1.159668,29.388672
34160,10.941502,-2.518700,-6.258443,52.734375,-10.223389,-7.904053,29.386719
34200,8.576031,-2.887407,-6.076484,-5.218506,1.220703,-6.378174,29.388672
34240,8.810662,0.086191,-7.326257,-61.889648,15.472412,-35.369873,29.376953
34280,9.974244,2.480393,-6.172252,-2.319336,24.017334,-37.689209,29.371094
34320,8.461109,1.355118,-2.418144,46.600342,-4.058838,-26.489258,29.378906
34360,5.774815,-0.205901,-1.498770,35.003662,-14.343262,-19.744873,29.369141
34400,4.965574,-0.086191,-1.283292,19.165039,-11.535645,-13.702393,29.378906
34440,5.899313,1.216254,-1.848324,26.519775,-31.738281,-8.544922,29.386719
34480,8.327033,1.900996,-1.613692,15.502930,-21.026611,1.953125,29.375000
34520,10.261548,1.728614,-1.862689,10.925293,-4.425049,1.586914,29.378906
34560,12.588713,1.110910,-1.996764,17.089844,9.429932,-6.164551,29.398438
34600,13.685257,2.260126,-1.623269,37.750244,8.117676,-16.723633,29.375000
34640,13.369223,2.806004,-2.695871,34.179688,42.236328,-15.441895,29.394531
34680,10.132261,2.092532,-6.210559,9.155273,43.914795,-3.051758,29.380859
34720,8.025364,-0.129287,-6.612785,0.762939,-14.282227,2.136230,29.400391
34760,10.113108,-1.881842,-5.286397,-3.051758,-27.038574,10.833740,29.404297
34800,10.836157,-0.723049,-3.318364,-14.953613,-3.051758,26.672363,29.384766
34840,8.207323,0.962469,-2.671929,-3.631592,9.674072,36.376953,29.386719
34880,4.649539,0.181959,-2.470816,-16.723633,10.650635,42.144775,29.410156
34920,4.146757,-0.555455,-1.747767,-16.937256,-20.446777,20.782471,29.410156
34960,6.301539,0.028730,-1.431733,-14.373779,-20.080566,9.216309,29.402344
35000,8.820239,-0.598550,-0.818817,-6.683350,3.143311,-6.103516,29.414062
35040,10.184934,0.019154,-1.331176,-29.083252,2.410889,-0.854492,29.398438
35080,12.014104,1.484405,-1.996764,-32.165527,2.532959,12.969971,29.396484
35120,13.867216,1.350330,-0.919373,-51.147461,10.894775,36.468506,29.382812
35160,13.455414,-0.703895,-2.777274,-3.295898,5.584717,9.307861,29.412109
35200,11.429919,-2.489970,-5.200206,34.027100,7.232666,-12.664795,29.384766
35240,8.542512,-2.662352,-5.884948,-9.246826,3.326416,-14.801025,29.402344
35280,8.379706,0.253785,-7.441179,-66.009521,14.923096,-30.975342,29.464844
35320,9.701305,2.264915,-6.655881,-24.993896,23.590088,-38.665771,29.458984
35360,9.088389,0.885855,-2.379837,39.794922,-0.518799,-26.733398,29.460938
35400,6.124368,-0.162806,-1.273715,29.815674,-14.221191,-21.179199,29.449219
35440,4.764462,0.191536,-1.403002,24.383545,-12.939453,-14.343262,29.447266
35480,5.592855,1.086968,-1.680730,27.069092,-32.012939,-8.087158,29.455078
35520,8.063671,1.584962,-1.565808,13.732910,-28.503418,5.279541,29.453125
35560,9.868899,1.618480,-1.800440,11.199951,-6.011963,5.950928,29.443359
35600,11.793838,1.479617,-2.217031,19.439697,6.195068,-5.432129,29.433594
35640,13.474567,2.231396,-1.795651,35.369873,-5.218506,-14.984131,29.458984
35680,13.872005,2.743755,-2.039860,39.550781,32.867432,-18.951416,29.472656
35720,11.568783,2.384625,-5.094861,7.629395,57.250977,-3.692627,29.462891
35760,7.776367,0.507571,-6.995857,-2.502441,-17.730713,2.136230,29.449219
35800,8.724471,-1.168370,-5.908890,-9.857178,-29.602051,8.544922,29.439453
35840,10.955867,-1.206678,-3.624821,-15.533447,-7.293701,21.514893,29.482422
35880,9.495404,0.296881,-2.901772,-13.458252,-6.195068,28.045654,29.447266
35920,6.038177,0.407014,-2.628834,-17.608643,3.906250,32.501221,29.462891
35960,4.141969,-0.114922,-2.183512,-15.747070,-12.725830,23.925781,29.453125
36000,5.406107,0.057461,-1.924938,-11.413574,-25.878906,11.718750,29.466797
36040,8.006210,0.143652,-1.441309,-6.225586,-3.875732,0.549316,29.480469
36080,9.792285,-0.033519,-1.335965,-15.319824,10.589600,-2.319336,29.453125
36120,11.286267,1.393425,-1.848324,-27.282715,7.232666,5.126953,29.453125
36160,13.254301,1.661576,-1.426944,-45.074463,13.427734,25.909424,29.449219
36200,13.661315,0.450110,-1.920150,-28.503418,12.359619,27.221680,29.427734
36240,12.411542,-1.086968,-5.118803,40.405273,18.096924,4.455566,29.468750
36280,8.418014,-3.385401,-5.521029,7.141113,26.367188,-17.364502,29.482422
36320,8.336611,-1.642422,-6.924031,-65.521240,6.591797,-17.700195,29.474609
36360,9.528923,1.632846,-7.101202,-46.051025,38.574219,-45.349121,29.445312
36400,9.323022,1.953669,-3.165135,35.797119,-0.335693,-27.038574,29.470703
36440,6.593631,0.296881,-1.254562,36.712646,-23.681641,-17.974854,29.470703
36480,4.888960,0.148441,-1.565808,24.688721,-27.221680,-11.962891,29.445312
36520,5.655105,0.900220,-1.268927,23.345947,-15.014648,-10.345459,29.470703
36560,7.814674,1.422156,-1.570596,13.763428,-28.289795,1.251221,29.462891
36600,9.576807,1.810017,-1.920150,13.488770,-6.378174,-1.403809,29.472656
36640,11.803414,1.628057,-2.092532,10.467529,2.014160,-7.171631,29.482422
36680,13.637373,2.231396,-2.039860,27.435303,2.868652,-15.411377,29.482422
36720,13.929465,2.705448,-2.849100,34.362793,23.986816,-19.744873,29.482422
36760,11.865664,2.178724,-4.601655,27.587891,57.769775,-10.864258,29.466797
36800,7.953538,0.272939,-6.387730,-0.305176,12.725830,1.251221,29.486328
36840,8.925584,-2.178724,-5.985504,-8.850098,-36.926270,9.765625,29.498047
36880,10.615891,-1.398214,-3.538630,-14.617920,-22.918701,25.146484,29.478516
36920,9.078813,1.024718,-2.786851,15.106201,-8.117676,27.832031,29.478516
36960,5.444415,0.277727,-2.580950,-1.983643,1.251221,39.276123,29.486328
37000,4.036624,-0.603339,-1.886631,-8.117676,-25.970459,25.604248,29.462891
37040,5.841852,0.081403,-1.393425,-8.605957,-23.406982,13.702393,29.496094
37080,8.183381,0.062249,-1.192312,-5.798340,6.683350,-3.845215,29.476562
37120,10.022128,-0.435745,-1.201889,-22.125244,10.986328,-0.457764,29.480469
37160,11.870452,0.895431,-2.121263,-31.616211,4.089355,17.150879,29.472656
37200,13.484144,0.809240,-1.470040,-41.992188,4.730225,32.775879,29.505859
37240,13.383588,-0.555455,-2.480393,-18.249512,13.275146,15.594482,29.521484
37280,12.038046,-1.991976,-5.506664,52.368164,3.570557,-7.354736,29.535156
37320,8.614338,-3.217807,-6.282385,5.035400,3.936768,-17.150879,29.527344
37360,8.432379,-0.378284,-7.560889,-65.582275,23.437500,-26.367188,29.521484
37400,9.289502,2.260126,-7.173028,-34.667969,23.376465,-44.403076,29.515625
37440,8.657434,1.666364,-3.078943,42.510986,-0.518799,-29.113770,29.535156
37480,5.999869,-0.483629,-1.604115,39.245605,-8.697510,-23.590088,29.529297
37520,4.903325,-0.349553,-1.355118,29.968262,-4.638672,-18.432617,29.541016
37560,5.765238,1.058237,-1.719037,27.801514,-18.310547,-11.993408,29.533203
37600,8.331821,1.924938,-1.374272,4.699707,-17.028809,5.432129,29.533203
37640,10.012551,2.006341,-1.527501,7.110596,2.258301,3.570557,29.535156
37680,11.405977,1.149217,-2.226608,12.329102,11.108398,-4.119873,29.541016
37720,13.144167,2.006341,-2.015918,27.496338,4.699707,-14.617920,29.521484
37760,14.135366,2.662352,-2.877831,28.564453,21.911621,-17.669678,29.544922
37800,12.459426,2.542642,-5.042189,20.324707,50.537109,-5.096436,29.519531
37840,8.250419,0.349553,-5.990293,13.183594,13.824463,2.502441,29.550781
37880,8.580819,-2.566584,-5.669470,-2.502441,-25.238037,7.202148,29.552734
37920,10.204087,-1.642422,-3.390190,-21.667480,-11.108398,21.881104,29.558594
37960,8.671799,1.254562,-2.403779,-4.119873,-3.112793,18.371582,29.533203
38000,5.813122,1.417367,-2.250550,0.152588,-13.183594,33.599854,29.542969
38040,4.443638,-0.124498,-1.977611,-25.512695,-23.071289,22.369385,29.541016
38080,6.172252,-0.110133,-1.268927,-13.244629,-15.228271,4.730225,29.544922
38120,8.288726,0.019154,-0.895431,-10.711670,8.148193,-6.561279,29.539062
38160,9.739613,-0.114922,-0.943315,-28.930664,10.711670,-2.471924,29.529297
38200,11.334151,1.431733,-1.853112,-34.057617,6.591797,4.791260,29.541016
38240,13.053187,1.106121,-0.914585,-46.142578,7.751465,28.961182,29.539062
38280,13.139379,-0.105345,-1.862689,-34.027100,21.331787,10.803223,29.535156
38320,12.009315,-1.331176,-5.650316,28.686523,15.716553,-14.831543,29.535156
38360,9.509769,-1.944092,-5.568913,-1.251221,5.828857,-2.960205,29.537109
38400,8.796297,0.229843,-6.828263,-63.812256,0.427246,-13.946533,29.554688
38440,9.859323,2.705448,-6.220136,-24.353027,13.336182,-26.397705,29.558594
38480,9.471462,1.790863,-2.542642,27.740479,-12.908936,-22.216797,29.550781
38520,6.698977,-0.229843,-1.283292,29.541016,-7.141113,-16.082764,29.550781
38560,4.707001,-0.205901,-1.695095,26.763916,-14.923096,-11.505127,29.564453
38600,5.410896,0.430956,-1.733402,23.040771,-21.972656,-4.638672,29.560547
38640,7.656657,1.091756,-1.776498,19.866943,-19.195557,5.004883,29.566406
38680,9.433155,1.795651,-1.857901,19.226074,-1.495361,7.598877,29.537109
38720,11.252748,1.929727,-2.250550,17.120361,0.274658,-5.096436,29.558594
38760,13.024457,2.303222,-1.944092,31.768799,2.441406,-13.549805,29.572266
38800,14.034810,2.494758,-2.691083,33.020020,17.700195,-16.784668,29.558594
38840,13.077129,2.628834,-4.376601,17.089844,53.894043,-6.988525,29.568359
38880,8.633492,1.149217,-5.947197,-1.983643,19.287109,1.159668,29.548828
38920,8.149862,-1.182736,-5.817910,-19.287109,-27.313232,6.622314,29.554688
38960,10.678140,-1.211466,-3.069367,-27.893066,1.129150,21.667480,29.560547
39000,9.366117,0.814029,-2.489970,-23.071289,0.762939,18.310547,29.578125
39040,6.186617,1.091756,-2.408567,-13.977051,-2.197266,26.611328,29.574219
39080,4.548983,0.248997,-1.819593,-16.387939,-16.540527,19.042969,29.548828
39120,5.755661,-0.071826,-1.359907,-6.774902,-18.310547,6.988525,29.562500
39160,7.958326,-0.110133,-0.914585,-6.835938,0.396729,-4.425049,29.542969
39200,9.701305,0.052672,-0.895431,-18.798828,5.889893,-1.281738,29.576172
39240,11.061212,1.465251,-1.719037,-27.008057,0.640869,5.859375,29.583984
39280,12.713211,1.484405,-1.091756,-40.527344,-12.634277,28.900146,29.591797
39320,13.014880,1.177947,-0.790087,-48.797607,16.601562,17.364502,29.582031
39360,11.530476,-0.531513,-4.635174,9.887695,24.017334,-18.402100,29.583984
39400,9.346964,-1.781286,-5.535394,-1.220703,10.437012,2.929688,29.593750
39440,9.289502,-0.047884,-6.727707,-53.894043,-12.268066,6.164551,29.582031
39480,10.381259,2.978387,-6.248867,-34.881592,19.622803,-21.423340,29.593750
39520,9.892841,2.269703,-3.112462,18.798828,-11.596680,-20.935059,29.595703
39560,7.043741,-0.229843,-1.599327,30.273438,-11.047363,-14.801025,29.597656
39600,4.616021,-0.713472,-1.680730,17.700195,-22.583008,-7.354736,29.621094
39640,5.128380,0.837971,-1.517924,23.010254,-28.472900,-1.892090,29.611328
39680,7.369353,1.316811,-1.704672,15.869141,-24.841309,6.286621,29.617188
39720,9.380483,1.877054,-1.747767,10.772705,-15.106201,13.183594,29.626953
39760,11.573571,1.690306,-1.996764,15.106201,2.868652,2.960205,29.630859
39800,13.287820,2.614468,-2.537854,28.961182,-6.347656,-12.084961,29.595703
39840,14.331692,2.360683,-3.347094,35.247803,12.573242,-15.594482,29.603516
39880,12.665327,1.977611,-5.439626,33.233643,18.035889,1.434326,29.609375
39920,8.178593,0.023942,-6.507440,26.123047,1.007080,21.514893,29.625000
39960,7.996634,-3.155558,-6.521805,-4.730225,-30.670166,14.129639,29.621094
40000,10.050858,-1.704672,-3.758897,4.730225,-7.507324,25.604248,29.625000
40040,8.614338,0.584185,-2.810793,10.101318,6.713867,23.498535,29.613281
40080,5.363012,-0.205901,-2.466028,1.129150,-1.892090,18.432617,29.611328
40120,4.668694,-0.330400,-1.900996,-2.685547,-20.751953,19.073486,29.613281
40160,6.133945,0.100556,-1.699883,-1.495361,-17.944336,9.155273,29.617188
40200,8.116343,0.143652,-1.575385,-4.455566,4.577637,-2.288818,29.603516
40240,10.055647,-0.493206,-1.244985,-15.472412,13.946533,0.671387,29.621094
40280,11.583148,0.244209,-2.250550,-29.235840,9.033203,8.392334,29.613281
40320,13.402741,0.699107,-1.862689,-50.628662,3.875732,19.409180,29.613281
40360,13.254301,0.138864,-2.269703,-44.128418,34.667969,15.258789,29.646484
40400,11.338940,-2.226608,-5.865794,39.886475,0.640869,-8.728027,29.634766
40440,8.259995,-3.734955,-6.588843,3.387451,-19.012451,2.105713,29.603516
40480,9.054871,-1.292869,-6.924031,-58.898926,-6.622314,4.943848,29.611328
40520,10.596737,1.259350,-6.521805,5.676270,-11.657715,-11.840820,29.621094
40560,8.384495,-0.407014,-3.332729,9.613037,-25.726318,-1.770020,29.623047
40600,4.869806,-0.660800,-2.236184,15.289307,-31.951904,-2.136230,29.619141
40640,3.591303,-0.100556,-2.001553,9.796143,-30.120850,-2.044678,29.630859
40680,5.262455,0.679953,-1.939303,10.711670,-4.577637,-2.410889,29.632812
40720,8.317456,0.818817,-2.537854,8.331299,13.305664,0.854492,29.625000
40760,10.553641,0.086191,-3.356671,8.148193,8.972168,-0.122070,29.642578
40800,12.061988,-0.445322,-3.667917,26.367188,-13.763428,-19.134521,29.630859
40840,13.713987,0.569820,-2.949656,38.330078,14.617920,-26.641846,29.613281
40880,13.632585,0.148441,-4.544195,48.126221,44.342041,-24.047852,29.644531
40920,10.797850,0.215478,-6.023811,34.698486,48.583984,0.061035,29.642578
40960,6.890512,-1.115698,-6.962338,4.638672,12.695312,5.432129,29.625000
41000,8.743625,-1.824382,-4.970363,-2.105713,-4.699707,-7.843018,29.630859
41040,11.042058,-0.679953,-2.346318,-20.599365,20.202637,17.059326,29.628906
41080,8.164227,0.095768,-2.557007,-18.615723,9.704590,18.157959,29.632812
41120,4.716578,-0.282516,-2.509123,0.030518,-11.962891,24.993896,29.640625
41160,4.266468,-0.402226,-1.987187,9.704590,-50.750732,8.758545,29.619141
41200,6.406884,0.526724,-1.182736,-20.172119,-6.378174,-2.166748,29.683594
41240,8.633492,-0.780510,-1.182736,-29.937744,7.751465,-7.507324,29.703125
41280,10.333375,-1.211466,-1.795651,-51.971436,14.678955,4.882812,29.671875
41320,12.804191,-0.081403,-2.087744,-43.487549,5.523682,15.502930,29.708984
41360,14.068329,0.138864,-1.211466,-62.530518,16.052246,22.552490,29.673828
41400,13.029245,-0.646434,-3.557784,-4.089355,4.699707,7.324219,29.667969
41440,10.151415,-2.475605,-5.712565,27.008057,2.258301,-5.859375,29.654297
41480,8.384495,-2.772485,-7.149086,-2.990723,-32.135010,20.202637,29.666016
41520,9.926360,-0.632069,-7.321469,-18.890381,-11.566162,-1.464844,29.681641
41560,10.266336,-0.019154,-5.248090,21.026611,-5.737305,-24.688721,29.703125
41600,6.928820,-1.211466,-2.796427,25.177002,-25.939941,-11.199951,29.675781
41640,3.462016,-0.502782,-2.049437,13.061523,-25.604248,-19.165039,29.677734
41680,3.356671,-0.488417,-2.470816,19.653320,-20.996094,-29.479980,29.693359
41720,6.593631,0.378284,-2.183512,9.857178,-15.899658,-16.418457,29.664062
41760,9.255983,1.843535,-2.403779,4.943848,10.345459,-4.638672,29.697266
41800,11.037270,0.957681,-3.055001,0.000000,21.453857,-9.094238,29.691406
41840,13.311762,0.407014,-3.145981,13.885498,32.104492,-28.442383,29.683594
41880,13.972561,1.053449,-2.422932,32.867432,50.170898,-28.442383,29.683594
41920,12.081141,1.034295,-4.486734,42.175293,44.433594,-25.665283,29.671875
41960,8.786720,0.656011,-6.550536,39.947510,-15.747070,-9.826660,29.693359
42000,8.384495,-1.077391,-6.339846,34.545898,-22.308350,7.537842,29.683594
42040,11.123461,-2.504335,-5.123591,2.075195,-5.401611,8.697510,29.679688
42080,10.759542,-1.393425,-2.896984,1.037598,-1.495361,22.155762,29.705078
42120,6.574478,0.450110,-2.997540,-9.490967,-23.895264,29.388428,29.679688
42160,4.012682,0.708684,-2.370260,-13.488770,-25.878906,24.566650,29.695312
42200,4.616021,0.110133,-1.450886,-11.169434,-26.916504,15.106201,29.703125
42240,7.010222,-0.541090,-1.321599,-12.908936,-12.603760,0.823975,29.707031
42280,9.102755,-0.742203,-1.714248,-30.426025,10.803223,-7.141113,29.695312
42320,10.721235,0.100556,-2.896984,-35.339355,8.117676,6.378174,29.693359
42360,13.263878,0.569820,-2.734178,-32.867432,-5.279541,28.045654,29.703125
42400,13.426683,0.794875,-1.877054,-49.835205,1.525879,28.686523,29.681641
42440,11.496957,-1.173159,-4.625597,-5.615234,10.101318,-3.814697,29.695312
42480,9.342175,-2.839523,-6.675035,23.223877,-19.348145,2.929688,29.695312
42520,7.647080,-2.686294,-7.436390,-12.084961,-31.219482,22.094727,29.691406
42560,9.519346,-0.335188,-7.254431,-32.470703,28.381348,-16.601562,29.703125
42600,9.581595,-0.296881,-4.802769,-6.652832,40.252686,-31.616211,29.703125
42640,6.229713,-0.957681,-3.126827,11.901855,12.756348,-31.616211,29.705078
42680,4.022259,-0.656011,-2.762909,15.167236,-14.648438,-20.751953,29.705078
42720,4.596867,-0.052672,-2.173935,2.075195,2.685547,-20.935059,29.703125
42760,7.038953,1.168370,-1.805228,9.765625,2.197266,-3.356934,29.724609
42800,9.442732,1.709460,-2.255338,11.718750,6.835938,3.356934,29.712891
42840,11.741165,0.411803,-2.662352,16.418457,14.709473,-3.662109,29.712891
42880,13.350069,0.751779,-2.571373,30.670166,11.657715,-18.249512,29.718750
42920,13.833697,1.431733,-2.863465,39.581299,17.883301,-23.071289,29.712891
42960,11.463438,2.025495,-5.008670,32.196045,41.076660,-27.496338,29.708984
43000,8.250419,0.296881,-6.047753,27.923584,-12.390137,-6.652832,29.699219
43040,9.380483,-2.422932,-6.751649,17.730713,-47.607422,-0.976562,29.714844
43080,12.114660,-2.403779,-3.572149,-0.122070,14.160156,15.686035,29.714844
43120,9.217676,-0.373495,-3.126827,-0.976562,10.864258,14.739990,29.724609
43160,5.300763,0.905008,-2.829947,-18.554688,1.098633,18.035889,29.714844
43200,3.864242,0.689530,-1.584962,-8.148193,-11.962891,14.739990,29.761719
43240,4.927267,0.086191,-1.546654,-3.875732,-27.404785,3.753662,29.761719
43280,7.776367,-0.708684,-1.168370,-9.674072,-5.035400,-2.899170,29.761719
43320,10.113108,-0.928950,-1.766921,-28.808594,8.087158,6.591797,29.748047
43360,12.445061,0.148441,-2.619257,-12.939453,-13.885498,15.197754,29.753906
43400,14.053964,0.857124,-1.714248,-31.524658,7.293701,24.841309,29.742188
43440,12.890382,-0.009577,-2.896984,-14.404297,12.695312,16.021729,29.744141
43480,9.907207,-2.365471,-5.315128,25.329590,8.453369,8.544922,29.755859
43520,8.236053,-2.063802,-6.473921,7.141113,-7.690430,7.019043,29.771484
43560,9.643845,0.258574,-7.680599,-37.902832,13.031006,-9.735107,29.759766
43600,10.970232,1.335965,-6.301539,-30.151367,36.529541,-21.209717,29.753906
43640,8.049306,-0.196325,-3.548207,-6.225586,19.683838,-18.066406,29.757812
43680,4.419696,-1.086968,-2.710236,2.929688,-25.421143,-17.822266,29.765625
43720,3.912126,-0.756568,-2.312799,0.885010,-27.038574,-17.974854,29.753906
43760,6.296751,1.240196,-1.369483,14.617920,-25.604248,-1.556396,29.755859
43800,8.446744,1.881842,-2.039860,17.639160,-19.012451,9.307861,29.779297
43840,10.515334,0.574608,-2.590526,11.932373,4.119873,4.486084,29.773438
43880,12.291832,0.962469,-3.256114,19.256592,4.974365,-10.162354,29.761719
43920,13.776237,1.115698,-2.279280,33.813477,31.524658,-19.256592,29.775391
43960,13.283031,1.197101,-3.538630,41.412354,41.168213,-21.118164,29.773438
44000,9.969456,1.465251,-6.244078,28.656006,10.223389,-12.908936,29.771484
44040,7.565677,0.009577,-6.220136,36.499023,-59.936523,5.554199,29.787109
44080,9.495404,-1.699883,-5.923255,18.341064,-33.508301,11.230469,29.791016
44120,11.377247,-2.149993,-3.485958,-7.019043,20.233154,17.517090,29.769531
44160,8.288726,-0.493206,-3.222595,-4.638672,-7.537842,25.024414,29.785156
44200,4.754885,0.790087,-3.256114,-9.796143,-17.181396,27.893066,29.783203
44240,4.309563,0.723049,-2.054225,-6.958008,-33.538818,19.287109,29.787109
44280,5.999869,0.067038,-1.699883,-16.662598,-18.493652,8.392334,29.771484
44320,8.178593,-0.885855,-1.680730,-25.421143,0.762939,-3.417969,29.773438
44360,9.749189,-0.881066,-2.446874,-40.222168,10.589600,3.356934,29.783203
44400,11.741165,-0.086191,-3.270479,-31.250000,3.265381,16.082764,29.798828
44440,13.460202,0.158017,-2.595315,-34.362793,0.213623,28.869629,29.787109
44480,12.770672,-0.421380,-3.706224,-17.333984,-5.676270,17.578125,29.792969
44520,10.864887,-2.054225,-6.133945,22.979736,-11.352539,-6.591797,29.777344
44560,7.575254,-2.719813,-6.995857,4.821777,-18.280029,10.253906,29.810547
44600,7.556100,-1.015141,-7.632715,-23.406982,-12.725830,5.584717,29.808594
44640,9.265560,-0.071826,-6.904878,-25.421143,15.686035,-21.667480,29.791016
44680,8.422802,-0.761356,-3.869030,1.190186,19.165039,-32.012939,29.785156
44720,5.420473,-0.948104,-2.762909,17.364502,-7.568359,-25.512695,29.787109
44760,4.266468,-0.402226,-2.719813,8.819580,-20.294189,-16.387939,29.812500
44800,5.827487,0.617704,-2.298434,-0.213623,-10.559082,-9.796143,29.800781
44840,7.872135,1.517924,-2.700660,4.333496,4.028320,-0.457764,29.810547
44880,9.624691,1.024718,-3.308787,8.300781,20.019531,-3.051758,29.804688
44920,11.750742,0.507571,-3.452439,9.277344,27.526855,-12.542725,29.796875
44960,13.359646,1.455675,-3.375824,24.597168,33.843994,-22.003174,29.791016
45000,13.661315,1.651999,-4.328717,34.454346,33.355713,-29.632568,29.787109
45040,11.161768,1.647211,-5.463568,47.088623,26.367188,-20.996094,29.820312
45080,7.388506,-0.335188,-6.440403,42.816162,-41.534424,8.758545,29.792969
45120,8.734048,-2.475605,-6.536170,9.307861,-29.235840,16.479492,29.814453
45160,10.984597,-2.097321,-3.892972,-2.807617,5.859375,18.768311,29.796875
45200,8.667010,-0.469264,-3.371036,13.183594,-23.040771,20.324707,29.824219
45240,5.410896,0.445322,-3.016694,8.453369,-24.353027,23.925781,29.828125
45280,4.165911,0.244209,-2.111686,3.265381,-29.632568,13.031006,29.812500
45320,5.329493,-0.057461,-1.628057,-6.927490,-13.336182,5.157471,29.794922
45360,7.618350,-0.440533,-1.699883,-20.660400,7.843018,-6.011963,29.794922
45400,9.706094,-0.565032,-2.576161,-41.107178,20.202637,1.525879,29.804688
45440,12.291832,0.244209,-3.658340,-28.930664,7.598877,14.709473,29.822266
45480,13.915100,0.766145,-2.705448,-35.430908,10.467529,27.740479,29.810547
45520,12.306197,-0.368707,-3.203442,-33.843994,23.681641,7.232666,29.812500
45560,9.993398,-2.140416,-6.636727,18.920898,-18.218994,-5.279541,29.820312
45600,7.900866,-2.466028,-7.201759,3.540039,-12.939453,13.000488,29.839844
45640,8.360553,-0.694318,-8.001422,-47.210693,18.402100,6.103516,29.867188
45680,10.285490,0.339977,-6.746861,-29.235840,30.273438,-22.796631,29.878906
45720,8.092402,-0.814029,-3.696647,-2.777100,17.364502,-24.749756,29.851562
45760,4.486734,-0.837971,-2.614468,6.225586,0.579834,-18.157959,29.853516
45800,3.409343,-0.684742,-2.446874,7.659912,-14.038086,-12.603760,29.865234
45840,5.497087,0.301669,-1.843535,16.845703,-12.695312,-6.988525,29.865234
45880,8.681376,1.762132,-2.049437,11.688232,0.488281,3.692627,29.867188
45920,10.855310,1.158794,-2.686294,8.972168,20.660400,-2.288818,29.869141
45960,12.684481,0.699107,-3.102885,19.470215,11.993408,-13.549805,29.865234
46000,13.986926,1.168370,-2.686294,36.712646,23.864746,-23.223877,29.873047
46040,13.000515,1.527501,-4.735731,40.618896,30.426025,-29.418945,29.863281
46080,9.691729,1.335965,-6.521805,36.834717,6.835938,-21.636963,29.853516
46120,8.015787,-0.995988,-6.799533,27.191162,-54.565430,5.615234,29.853516
46160,10.534488,-2.269703,-5.741296,-7.202148,-20.843506,14.739990,29.867188
46200,10.443508,-1.154005,-3.615245,-8.544922,0.579834,26.336670,29.869141
46240,6.732495,0.181959,-3.342306,-4.791260,-27.313232,35.491943,29.859375
46280,4.256891,0.205901,-2.710236,-1.586914,-38.879395,28.198242,29.871094
46320,4.501099,-0.014365,-1.819593,3.784180,-39.062500,15.747070,29.873047
46360,6.473921,-0.373495,-1.661576,-5.187988,-14.526367,1.342773,29.878906
46400,8.762778,-0.761356,-1.877054,-24.261475,12.420654,-3.387451,29.867188
46440,10.472239,-0.292093,-3.050213,-33.691406,11.871338,7.141113,29.886719
46480,12.804191,0.445322,-3.639187,-19.042969,-0.579834,19.012451,29.857422
46520,13.048399,0.019154,-2.839523,-33.142090,15.197754,26.428223,29.894531
46560,11.372458,-1.656788,-5.971139,26.458740,-8.331299,-1.953125,29.886719
46600,9.002198,-2.724602,-6.622362,30.059814,-6.164551,-2.380371,29.892578
46640,7.287950,-1.896208,-7.790732,-12.329102,-14.129639,19.927979,29.863281
46680,9.188946,0.440533,-8.690952,-35.980225,28.656006,-14.251709,29.888672
46720,9.768343,-0.134075,-6.224925,-12.420654,23.437500,-31.158447,29.867188
46760,6.789956,-1.173159,-3.241749,5.126953,12.176514,-30.181885,29.884766
46800,4.012682,-0.742203,-2.643199,3.204346,-2.624512,-19.714355,29.886719
46840,3.715801,-0.196325,-2.255338,-9.033203,-2.960205,-10.772705,29.865234
46880,5.789180,1.125275,-2.279280,-10.711670,-1.098633,-0.976562,29.880859
46920,8.863335,1.752556,-2.729390,3.723145,8.331299,5.554199,29.900391
46960,11.640609,0.694318,-3.418920,3.265381,21.362305,-5.523682,29.875000
47000,13.713987,1.043872,-3.260903,19.622803,31.860352,-21.850586,29.882812
47040,13.833697,1.187524,-3.308787,33.203125,38.726807,-29.083252,29.906250
47080,11.884817,1.570596,-5.693412,36.346436,46.325684,-26.672363,29.882812
47120,8.614338,0.938527,-6.521805,45.989990,-24.444580,-5.218506,29.878906
47160,8.169016,-1.680730,-7.168240,32.775879,-52.062988,8.911133,29.888672
47200,10.975020,-2.365471,-4.601655,-9.826660,3.051758,21.453857,29.878906
47240,9.327810,-0.833182,-3.385401,-5.279541,-7.995605,27.740479,29.878906
47280,5.779603,0.272939,-3.126827,3.570557,-35.369873,33.386230,29.902344
47320,4.050989,0.177171,-2.504335,7.354736,-47.149658,25.421143,29.896484
47360,5.161899,-0.009577,-2.059013,-1.342773,-32.379150,12.115479,29.873047
47400,7.546524,-0.545878,-1.661576,-16.387939,3.845215,-4.333496,29.876953
47440,9.390059,-0.756568,-2.183512,-34.118652,16.174316,2.807617,29.892578
47480,11.133038,0.349553,-3.696647,-30.487061,3.753662,11.535645,29.902344
47520,13.646950,1.211466,-3.203442,-38.726807,5.889893,24.261475,29.894531
47560,12.392388,-0.105345,-2.676718,-50.537109,31.005859,19.195557,29.941406
47600,9.715671,-2.135628,-6.933608,21.911621,-21.301270,-10.986328,29.921875
47640,8.360553,-2.892196,-7.024588,17.059326,-19.775391,10.864258,29.923828
47680,7.905654,-1.388637,-8.140285,-28.991699,-9.796143,20.111084,29.927734
47720,10.012551,0.239420,-7.982268,-24.749756,30.181885,-22.216797,29.935547
47760,9.251195,-0.593762,-4.903325,11.932373,18.981934,-33.905029,29.917969
47800,5.386954,-1.403002,-3.193865,14.343262,4.882812,-29.144287,29.933594
47840,3.438074,-1.034295,-2.671929,1.831055,0.091553,-20.111084,29.927734
47880,4.563348,0.292093,-2.140416,-1.037598,6.286621,-12.207031,29.933594
47920,7.479486,2.054225,-2.207454,12.664795,5.645752,0.793457,29.929688
47960,9.974244,1.623269,-2.968810,11.962891,18.951416,1.037598,29.947266
48000,11.951855,0.646434,-3.208230,12.359619,29.327393,-10.864258,29.931641
48040,13.144167,1.446098,-3.074155,26.855469,29.724121,-20.599365,29.937500
48080,13.383588,1.805228,-4.472369,37.872314,21.423340,-25.665283,29.947266
48120,11.530476,1.862689,-5.894525,25.024414,33.996582,-26.275635,29.917969
48160,8.135497,0.402226,-6.253655,27.587891,-29.083252,0.305176,29.935547
48200,8.992621,-2.102109,-6.373365,10.528564,-39.581299,12.298584,29.937500
48240,10.783484,-1.920150,-4.127604,-25.939941,3.265381,27.862549,29.929688
48280,8.829816,-0.153229,-3.466804,-16.418457,-16.021729,30.426025,29.947266
48320,5.774815,0.531513,-2.868254,-8.239746,-27.404785,28.900146,29.927734
48360,4.151546,0.000000,-2.255338,-4.425049,-36.926270,20.172119,29.964844
48400,5.382165,-0.114922,-1.881842,-9.429932,-26.336670,10.437012,29.943359
48440,7.694964,-0.292093,-1.771709,-18.096924,1.464844,-3.601074,29.923828
48480,9.433155,-0.450110,-2.231396,-34.698486,16.845703,1.007080,29.951172
48520,11.089942,0.378284,-3.380613,-30.090332,6.652832,8.880615,29.929688
48560,13.369223,0.861913,-2.930503,-40.832520,3.082275,26.672363,29.951172
48600,12.899959,0.234632,-3.897760,-24.414062,-3.845215,25.299072,29.935547
48640,11.128249,-1.939303,-6.617573,26.458740,-13.580322,-4.058838,29.937500
48680,8.121132,-2.978387,-6.694188,8.911133,-5.157471,7.324219,29.951172
48720,7.465121,-1.082179,-7.857770,-21.301270,-1.953125,9.582520,29.955078
48760,8.868123,-0.181959,-7.546524,-27.587891,22.186279,-17.150879,29.951172
48800,8.834604,-0.612916,-4.400543,3.356934,17.669678,-31.921387,29.931641
48840,5.793968,-0.818817,-2.978387,11.993408,13.671875,-30.303955,29.945312
48880,4.017470,-0.454898,-2.815581,11.322021,-11.016846,-20.111084,29.951172
48920,4.836287,0.483629,-2.552219,5.859375,-8.666992,-11.169434,29.980469
48960,7.560889,1.623269,-2.398990,14.312744,-11.596680,1.525879,29.964844
49000,9.926360,1.498770,-2.786851,9.826660,15.747070,4.058838,29.955078
49040,11.592725,0.603339,-3.394978,11.322021,21.362305,-7.659912,29.943359
49080,12.966996,1.216254,-3.222595,29.205322,27.069092,-21.118164,29.939453
49120,13.388376,1.407791,-4.189853,39.672852,32.836914,-28.350830,29.974609
49160,11.501745,1.833959,-5.851429,38.208008,35.552979,-25.970459,29.970703
49200,8.135497,0.387861,-6.378153,52.612305,-23.925781,5.035400,29.957031
49240,8.920795,-2.715025,-6.890512,7.415771,-35.430908,12.115479,29.949219
49280,10.917560,-2.212242,-4.118027,-13.153076,7.263184,23.162842,29.949219
49320,8.681376,-0.234632,-3.500323,1.037598,-18.890381,26.458740,29.960938
49360,5.535394,0.383072,-3.026271,3.540039,-31.036377,29.113770,29.955078
49400,4.103662,0.014365,-2.226608,2.227783,-36.895752,19.714355,29.970703
49440,5.382165,-0.086191,-1.920150,-11.352539,-21.759033,8.728027,29.957031
49480,7.781156,-0.402226,-1.843535,-21.881104,3.417969,-5.584717,29.957031
49520,9.528923,-0.627281,-2.398990,-30.792236,14.495850,-1.678467,29.955078
49560,11.109096,-0.114922,-3.591303,-27.496338,3.387451,8.514404,30.015625
49600,13.153744,0.397437,-3.035848,-34.240723,-1.464844,25.512695,29.990234
49640,12.607866,-0.014365,-3.505111,-28.289795,4.486084,22.003174,29.978516
49680,10.860099,-2.173935,-6.512228,26.336670,-14.953613,-6.164551,30.009766
49720,8.140285,-3.035848,-6.933608,17.822266,-13.031006,5.401611,30.003906
49760,7.264008,-1.450886,-8.010999,-16.418457,-14.251709,13.702393,30.009766
49800,9.002198,-0.268151,-7.900866,-26.489258,24.047852,-19.958496,30.023438
49840,9.011775,-0.746991,-5.056554,4.669189,17.486572,-34.606934,30.013672
49880,5.995081,-1.120486,-3.265691,13.000488,11.138916,-35.400391,30.005859
49920,4.060566,-0.866701,-3.011906,10.711670,-6.744385,-23.712158,30.023438
49960,4.692636,-0.076614,-2.547431,-4.211426,3.936768,-19.348145,30.009766
50000,7.196970,1.786075,-2.413355,9.246826,1.037598,-1.342773,30.015625
50040,9.533711,1.881842,-2.858677,9.765625,12.603760,3.326416,30.031250
50080,11.425131,0.632069,-3.433285,8.331299,25.634766,-7.598877,30.015625
50120,13.000515,0.679953,-3.050213,22.369385,41.717529,-19.653320,30.019531
50160,13.345281,1.182736,-3.299210,37.872314,37.902832,-22.399902,30.019531
50200,12.157756,1.762132,-5.449203,32.653809,39.916992,-21.026611,30.009766
50240,8.676587,1.426944,-6.253655,34.301758,-17.303467,-0.762939,30.005859
50280,7.800309,-1.197101,-6.904878,26.062012,-48.980713,12.512207,30.009766
50320,10.381259,-1.776498,-4.491522,-13.916016,2.593994,24.291992,30.019531
50360,9.342175,-0.411803,-3.663129,-12.084961,-12.359619,27.435303,29.998047
50400,6.181829,0.407014,-3.198653,1.739502,-39.611816,33.569336,30.015625
50440,4.620809,0.215478,-2.403779,-1.129150,-41.351318,26.489258,30.033203
50480,5.607220,0.000000,-2.082955,-8.575439,-27.130127,15.899658,30.019531
50520,7.852982,-0.445322,-1.929727,-20.843506,3.570557,0.732422,30.017578
50560,9.418790,-0.909797,-2.068590,-32.684326,18.798828,5.554199,30.000000
50600,10.635044,-0.134075,-3.227384,-36.407471,14.556885,14.007568,30.031250
50640,12.593501,0.675165,-3.074155,-30.609131,9.704590,26.336670,30.021484
50680,12.435484,0.335188,-2.992752,-45.104980,28.167725,20.690918,30.025391
50720,10.989386,-1.177947,-6.804321,15.075684,-10.803223,-1.190186,30.039062
50760,8.877700,-1.810017,-7.244854,5.310059,0.671387,13.336182,30.019531
50800,7.551312,0.038307,-8.293514,-40.374756,-7.751465,21.575928,30.042969
50840,8.767567,1.130063,-8.269572,-54.931641,8.544922,-1.800537,30.025391
50880,8.959103,-0.086191,-5.434838,-33.599854,-1.251221,-11.779785,30.019531
50920,6.617573,-0.766145,-3.361459,-19.165039,-3.570557,-12.237549,30.005859
50960,4.721366,-0.622492,-2.710236,-27.679443,-0.518799,-0.610352,30.033203
51000,5.037400,0.186748,-2.475605,-28.991699,7.354736,4.150391,30.019531
51040,7.091625,1.125275,-2.461239,-22.888184,11.596680,14.556885,30.029297
51080,9.260772,1.331176,-2.489970,-20.141602,38.726807,14.129639,30.039062
51120,11.137826,0.713472,-3.399766,-13.397217,33.721924,7.202148,30.037109
51160,12.612655,1.460463,-3.074155,-2.044678,42.175293,-0.885010,30.023438
51200,13.163321,2.030283,-2.987964,13.000488,40.039062,-3.417969,30.017578
51240,11.324574,2.738967,-5.626374,-14.190674,38.330078,1.403809,30.029297
51280,8.365341,1.848324,-6.138733,-25.695801,0.823975,19.042969,30.039062
51320,7.967903,0.679953,-5.401319,-16.662598,-28.411865,25.054932,30.029297
51360,10.089166,0.100556,-4.826711,-70.190430,0.457764,37.567139,30.039062
51400,9.883265,0.493206,-3.663129,-80.352783,9.307861,44.738770,30.027344
51440,6.928820,0.665588,-3.677494,-73.577881,-24.566650,52.673340,30.044922
51480,5.267244,0.320823,-3.572149,-70.678711,-32.043457,46.630859,30.019531
51520,5.913678,-0.373495,-3.122039,-75.439453,-23.559570,41.137695,30.085938
51560,7.354988,-0.962469,-2.547431,-78.002930,-2.105713,30.670166,30.076172
51600,8.791509,-0.670376,-2.609680,-81.878662,8.300781,28.564453,30.058594
51640,10.007763,-0.225055,-3.189077,-78.643799,-0.183105,33.599854,30.099609
51680,11.573571,0.450110,-3.222595,-73.425293,0.976562,36.926270,30.089844
51720,12.502522,1.120486,-3.361459,-69.366455,-15.289307,41.625977,30.087891
51760,11.865664,0.641646,-5.698200,-29.113770,-23.742676,23.132324,30.085938
51800,8.652645,-1.685518,-7.005434,-23.742676,-12.207031,17.913818,30.085938
51840,6.148310,-1.747767,-7.757214,-67.596436,-46.142578,45.410156,30.087891
51880,7.058106,0.320823,-7.857770,-97.839355,-12.054443,26.733398,30.085938
51920,9.141062,0.981623,-6.732495,-90.942383,-11.505127,17.333984,30.117188
51960,7.872135,-0.344765,-4.936844,-62.622070,-25.390625,13.366699,30.083984
52000,5.683835,-0.900220,-3.888184,-52.093506,-32.592773,17.974854,30.101562
52040,4.927267,-0.847547,-3.414132,-55.389404,-20.843506,19.561768,30.105469
52080,6.296751,-0.430956,-3.093309,-49.865723,13.763428,15.014648,30.085938
52120,8.762778,-0.158017,-3.567361,-33.691406,51.879883,3.448486,30.105469
52160,10.635044,0.359130,-4.812346,-25.848389,57.006836,-14.007568,30.091797
52200,12.938266,2.245761,-4.510676,-10.192871,36.926270,-13.427734,30.109375
52240,13.498509,2.552219,-3.830723,-2.716064,60.211182,-12.573242,30.093750
52280,11.085154,3.035848,-5.128380,6.561279,54.595947,-8.026123,30.105469
52320,7.493851,1.819593,-7.747637,2.990723,-20.294189,9.185791,30.101562
52360,7.996634,-0.421380,-7.149086,-8.087158,-30.822754,24.230957,30.082031
52400,10.481815,-1.503559,-6.344635,-35.919189,13.275146,30.853271,30.107422
52440,9.792285,-1.120486,-4.639963,-43.029785,13.610840,31.768799,30.097656
52480,6.315904,-0.258574,-3.945644,-32.806396,-16.174316,39.611816,30.080078
52520,3.706224,-0.354342,-3.323152,-24.475098,-27.557373,31.188965,30.082031
52560,4.295198,-0.383072,-2.461239,-20.660400,-31.738281,22.705078,30.115234
52600,6.631939,-0.579397,-2.260126,-32.043457,-13.183594,13.366699,30.103516
52640,9.284714,-0.909797,-2.336741,-54.565430,20.660400,11.230469,30.082031
52680,10.491392,-0.124498,-3.672705,-64.147949,24.230957,17.181396,30.095703
52720,12.469003,0.488417,-4.309563,-45.562744,5.859375,22.766113,30.109375
52760,13.158532,0.205901,-3.122039,-53.710938,23.223877,21.423340,30.082031
52800,11.022904,-1.350330,-5.525817,-11.444092,5.584717,-5.645752,30.107422
52840,9.093178,-2.844312,-6.981492,13.641357,-8.880615,-6.195068,30.103516
52880,7.316680,-2.106898,-7.699753,-15.045166,-10.894775,11.444092,30.087891
52920,8.370130,-0.272939,-7.738060,-35.125732,26.763916,-7.232666,30.099609
52960,9.361329,0.239420,-6.086061,-14.587402,25.421143,-27.343750,30.103516
53000,7.216124,-0.560243,-3.514688,10.284424,17.456055,-31.372070,30.082031
53040,4.223372,-0.881066,-2.758120,21.392822,-0.793457,-24.749756,30.101562
53080,4.003105,-0.545878,-2.346318,20.874023,-15.655518,-16.754150,30.101562
53120,6.426037,0.727837,-2.255338,16.265869,-6.256104,-8.697510,30.095703
53160,8.825027,1.795651,-2.786851,16.021729,17.608643,-1.464844,30.105469
53200,10.328587,0.876278,-3.165135,16.387939,27.343750,-8.087158,30.107422
53240,12.296620,0.814029,-3.433285,25.604248,24.383545,-18.371582,30.115234
53280,13.733141,1.556231,-2.901772,40.588379,34.271240,-21.453857,30.111328
53320,13.062764,2.164358,-4.625597,40.924072,28.594971,-24.475098,30.130859
53360,9.734824,1.757344,-6.272809,22.705078,9.338379,-16.387939,30.109375
53400,7.910442,-0.397437,-6.464345,30.761719,-41.503906,12.603760,30.107422
53440,10.208876,-2.015918,-6.038177,-6.866455,-25.634766,16.479492,30.115234
53480,10.702082,-1.259350,-3.643975,-15.777588,8.331299,26.000977,30.126953
53520,7.642292,0.320823,-3.035848,0.061035,-23.162842,27.221680,30.154297
53560,4.577713,0.603339,-2.896984,-7.263184,-28.625488,24.566650,30.144531
53600,4.290410,0.205901,-1.843535,-13.488770,-27.130127,15.441895,30.140625
53640,5.990293,-0.129287,-1.546654,-26.184082,-1.068115,8.697510,30.152344
53680,8.303091,-0.248997,-2.006341,-48.919678,18.859863,12.145996,30.156250
53720,10.400413,0.493206,-2.992752,-55.847168,21.728516,13.427734,30.156250
53760,12.746730,0.512359,-3.289633,-46.905518,6.225586,25.848389,30.158203
53800,13.306973,0.478840,-2.288857,-49.896240,14.617920,26.489258,30.158203
53840,11.386824,-0.948104,-5.061342,-3.814697,-8.209229,4.425049,30.175781
53880,9.131485,-2.432509,-6.655881,25.146484,-30.517578,5.218506,30.152344
53920,7.560889,-2.102109,-7.584831,-16.571045,-23.529053,20.629883,30.156250
53960,9.710882,-0.153229,-7.939173,-54.260254,33.843994,-1.922607,30.160156
54000,9.830592,-0.225055,-6.057330,-13.854980,16.296387,-28.259277,30.169922
54040,7.010222,-1.115698,-3.117251,3.479004,0.274658,-25.512695,30.173828
54080,3.998317,-0.718261,-2.715025,3.265381,-13.031006,-19.653320,30.156250
54120,3.873818,-0.186748,-2.336741,-0.549316,-13.427734,-9.246826,30.156250
54160,5.937620,0.612916,-2.149993,1.495361,2.777100,-6.286621,30.154297
54200,8.877700,1.283292,-2.873042,7.812500,21.728516,-4.699707,30.132812
54240,11.913548,0.938527,-3.150769,9.918213,24.444580,-9.582520,30.160156
54280,13.488933,1.929727,-3.165135,22.613525,23.620605,-19.348145,30.166016
54320,13.335704,1.733402,-3.289633,38.452148,33.325195,-26.367188,30.175781
54360,10.955867,1.192312,-5.650316,26.947021,40.374756,-27.191162,30.173828
54400,8.331821,0.383072,-6.631939,51.177979,-43.334961,-5.981445,30.177734
54440,9.485827,-2.164358,-7.335834,24.444580,-46.478271,5.523682,30.181641
54480,11.669339,-2.719813,-4.395754,0.122070,5.767822,13.427734,30.150391
54520,9.040505,-0.842759,-3.260903,12.512207,-17.852783,23.162842,30.169922
54560,5.075707,0.651223,-3.107674,7.659912,-38.757324,29.571533,30.185547
54600,3.792415,0.565032,-1.977611,6.317139,-42.541504,20.599365,30.154297
54640,5.051765,-0.052672,-1.819593,1.495361,-30.059814,7.537842,30.160156
54680,7.790732,-0.847547,-1.838747,-12.634277,4.058838,-3.814697,30.164062
54720,9.773131,-0.885855,-2.365471,-34.088135,22.277832,3.997803,30.193359
54760,11.856087,0.483629,-3.701436,-28.717041,3.601074,10.162354,30.166016
54800,13.872005,0.430956,-3.715801,-15.960693,-11.444092,28.869629,30.189453
54840,12.971785,-1.264138,-6.200983,26.306152,-33.813477,13.610840,30.158203
54880,10.433931,-2.992752,-6.684611,24.200439,4.882812,-8.270264,30.185547
54920,7.158663,-2.331953,-7.608773,-12.023926,-6.103516,10.803223,30.171875
54960,7.268796,-0.119710,-8.604761,-39.611816,13.244629,-4.821777,30.169922
55000,8.322245,-0.225055,-6.402095,-29.418945,22.735596,-19.409180,30.173828
55040,6.904878,-0.780510,-3.457227,-1.342773,12.268066,-28.656006,30.189453
55080,4.486734,-0.660800,-2.657564,5.889893,-5.371094,-18.310547,30.185547
55120,3.840300,0.004788,-2.561796,1.281738,-8.697510,-10.742188,30.185547
55160,5.774815,1.053449,-2.518700,2.288818,-5.310059,-0.885010,30.148438
55200,8.662222,1.225831,-3.055001,8.453369,14.709473,1.556396,30.164062
55240,11.420342,0.454898,-3.658340,4.455566,29.876709,-10.223389,30.160156
55280,13.206416,1.058237,-3.471592,15.899658,56.854248,-28.747559,30.185547
55320,13.168109,1.695095,-3.754108,34.240723,41.320801,-32.104492,30.189453
55360,11.324574,1.781286,-6.148310,24.627686,40.405273,-26.824951,30.191406
55400,8.537724,0.814029,-6.732495,45.562744,-25.634766,-4.241943,30.212891
55440,9.145850,-2.082955,-7.388506,12.145996,-35.064697,12.908936,30.201172
55480,11.851298,-1.982399,-4.376601,-10.620117,14.404297,22.399902,30.220703
55520,9.605537,-0.153229,-3.404555,-1.922607,-9.307861,25.726318,30.232422
55560,5.353435,0.675165,-3.265691,-5.828857,-19.866943,32.379150,30.222656
55600,3.418920,0.071826,-2.063802,0.946045,-30.456543,24.017334,30.189453
55640,4.280833,-0.483629,-1.589750,-11.688232,-24.871826,13.488770,30.226562
55680,7.364564,-0.794875,-1.412579,-25.543213,3.021240,5.310059,30.226562
55720,10.031705,-0.387861,-2.413355,-45.379639,20.690918,9.735107,30.234375
55760,12.392388,0.694318,-3.691859,-34.851074,2.410889,16.387939,30.232422
55800,13.905523,0.483629,-3.002329,-32.287598,-4.852295,34.027100,30.246094
55840,12.382812,-1.101333,-5.453991,8.880615,-19.256592,11.108398,30.224609
55880,10.199299,-2.557007,-6.560112,24.627686,-9.552002,-2.380371,30.230469
55920,7.359776,-2.106898,-7.627927,-5.187988,-24.841309,18.615723,30.230469
55960,8.441956,-0.114922,-8.413225,-40.252686,22.033691,-6.072998,30.228516
56000,9.227253,-0.196325,-6.574478,-26.855469,28.289795,-27.832031,30.228516
56040,6.957550,-0.976834,-3.184288,3.540039,17.669678,-32.318115,30.226562
56080,3.849876,-0.809240,-2.652776,5.798340,-13.397217,-20.263672,30.218750
56120,3.562572,-0.277727,-2.389413,-9.307861,-7.141113,-10.437012,30.228516
56160,5.918467,1.077391,-2.197877,-0.976562,-3.723145,-4.669189,30.251953
56200,9.040505,1.867477,-2.853889,6.378174,11.138916,6.652832,30.212891
56240,11.338940,1.000776,-3.213019,3.417969,30.120850,-4.180908,30.248047
56280,13.057976,1.235408,-3.490746,17.456055,28.808594,-19.195557,30.253906
56320,13.273455,1.757344,-3.687071,30.273438,34.454346,-27.801514,30.246094
56360,11.903971,2.030283,-5.592855,30.517578,29.785156,-26.153564,30.226562
56400,8.710106,0.914585,-6.449979,54.840088,-31.829834,-4.821777,30.240234
56440,8.872911,-2.461239,-7.647080,19.866943,-38.574219,13.946533,30.230469
56480,11.880029,-2.518700,-4.635174,-13.397217,12.817383,23.040771,30.236328
56520,9.466674,-0.679953,-3.361459,3.051758,-13.305664,22.857666,30.214844
56560,5.396531,0.593762,-3.213019,-0.885010,-30.883789,31.219482,30.238281
56600,3.361459,0.100556,-2.039860,1.556396,-35.888672,21.942139,30.267578
56640,4.481946,-0.134075,-1.690306,-7.873535,-24.444580,8.758545,30.228516
56680,7.388506,-0.799663,-1.580173,-19.439697,3.692627,-0.793457,30.251953
56720,9.777920,-0.775721,-2.580950,-40.863037,21.179199,6.225586,30.251953
56760,11.937490,0.354342,-3.763685,-36.560059,7.080078,15.686035,30.242188
56800,13.623008,0.507571,-3.241749,-28.533936,-1.007080,28.839111,30.242188
56840,12.655750,-1.010353,-5.473145,11.596680,-27.313232,10.772705,30.261719
56880,10.668563,-2.614468,-6.560112,29.998779,-6.225586,-7.324219,30.248047
56920,7.206547,-2.585738,-7.283162,-0.396729,-16.082764,12.695312,30.222656
56960,7.766790,-0.344765,-8.379706,-34.179688,11.962891,-4.364014,30.232422
57000,9.232041,-0.023942,-7.206547,-33.172607,26.824951,-26.245117,30.240234
57040,7.752425,-0.881066,-3.830723,-7.812500,18.829346,-30.059814,30.230469
57080,4.726154,-0.708684,-2.801216,2.777100,-0.671387,-22.521973,30.242188
57120,3.586514,-0.124498,-2.403779,2.075195,-9.185791,-11.352539,30.248047
57160,4.797980,0.459687,-2.403779,-6.225586,-2.014160,-7.507324,30.242188
57200,8.001422,1.067814,-2.686294,-0.427246,21.453857,-2.471924,30.246094
57240,11.305421,0.991199,-2.959233,4.638672,31.951904,-5.249023,30.259766
57280,13.081918,1.623269,-3.399766,14.709473,28.442383,-16.662598,30.251953
57320,13.421895,1.728614,-3.615245,32.501221,36.224365,-27.160645,30.251953
57360,12.387600,1.939303,-5.784391,29.449463,34.179688,-27.862549,30.251953
57400,9.299079,1.240196,-6.354211,45.928955,-15.045166,-7.171631,30.255859
57440,8.743625,-2.269703,-7.417237,29.937744,-30.212402,14.373779,30.250000
57480,11.224017,-3.069367,-4.836287,-12.298584,-7.263184,25.024414,30.291016
57520,9.404425,-0.995988,-3.280056,1.861572,-7.049561,24.017334,30.292969
57560,5.956774,0.459687,-3.064578,8.544922,-34.942627,30.151367,30.287109
57600,3.873818,0.162806,-2.173935,13.336182,-39.123535,21.148682,30.277344
57640,4.807557,-0.076614,-1.685518,3.784180,-32.379150,8.789062,30.283203
57680,7.105990,-0.550666,-1.561020,-11.871338,1.281738,-3.173828,30.306641
57720,9.050082,-0.967257,-2.059013,-32.043457,14.221191,6.011963,30.292969
57760,11.032481,0.134075,-3.596091,-29.144287,2.502441,11.291504,30.291016
57800,13.804967,-0.292093,-4.323928,0.213623,-36.163330,34.088135,30.300781
57840,13.929465,-1.685518,-6.478710,46.234131,-54.992676,21.697998,30.285156
57880,11.180922,-2.734178,-6.282385,21.118164,19.500732,-14.984131,30.287109
57920,6.651093,-1.968034,-7.192182,-21.392822,13.854980,4.028320,30.269531
57960,6.574478,0.095768,-8.370130,-36.712646,6.408691,-3.417969,30.316406
58000,8.269572,-0.148441,-6.823475,-49.835205,20.935059,-13.702393,30.285156
58040,7.752425,-0.517148,-4.046201,-28.411865,24.414062,-23.071289,30.289062
58080,5.339070,0.009577,-3.236961,-3.997803,-4.730225,-15.533447,30.300781
58120,4.180276,0.067038,-3.016694,-9.735107,-18.554688,-6.164551,30.291016
58160,5.339070,0.114922,-2.604892,-14.801025,-4.150391,-1.159668,30.296875
58200,7.474698,0.268151,-2.863465,-11.932373,26.947021,-3.753662,30.298828
58240,10.151415,0.445322,-2.968810,-1.281738,42.327881,-8.331299,30.304688
58280,12.550406,1.580173,-3.629610,9.277344,25.360107,-13.885498,30.306641
58320,13.445837,2.188300,-3.083732,30.670166,46.813965,-25.390625,30.304688
58360,12.406754,1.862689,-4.874595,37.231445,41.168213,-29.998779,30.314453
58400,9.581595,1.297657,-6.924031,41.259766,-11.932373,-16.387939,30.314453
58440,8.465898,-1.192312,-7.326257,48.095703,-37.872314,11.901855,30.306641
58480,10.764331,-2.801216,-6.584054,-2.380371,-22.552490,19.836426,30.300781
58520,10.438720,-1.446098,-3.653552,-4.943848,2.777100,23.529053,30.304688
58560,6.675035,0.296881,-3.332729,2.655029,-33.691406,33.782959,30.318359
58600,3.849876,0.311246,-2.758120,3.692627,-40.954590,28.991699,30.292969
58640,4.237737,0.110133,-2.078167,-1.861572,-39.398193,17.547607,30.302734
58680,6.579266,-0.646434,-1.939303,-14.160156,-6.805420,1.800537,30.316406
58720,9.246407,-1.072602,-1.944092,-31.616211,18.402100,4.119873,30.296875
58760,10.601525,-0.052672,-3.548207,-40.527344,17.791748,11.566162,30.281250
58800,12.919112,0.727837,-3.983952,-37.048340,5.432129,24.475098,30.312500
58840,12.981361,-0.368707,-3.442862,-39.886475,12.878418,28.533936,30.294922
58880,11.401189,-2.059013,-6.397307,23.986816,-10.864258,-5.767822,30.320312
58920,9.083601,-2.949656,-6.766014,22.766113,-6.256104,-1.953125,30.304688
58960,7.206547,-1.795651,-7.781156,-16.418457,-5.462646,15.899658,30.312500
59000,8.983045,-0.191536,-8.303091,-32.531738,40.313721,-20.507812,30.300781
59040,8.772355,-0.565032,-5.683835,-17.578125,29.785156,-30.883789,30.349609
59080,5.635951,-1.039083,-3.035848,-0.640869,15.899658,-29.418945,30.318359
59120,3.529053,-0.641646,-2.657564,10.345459,-25.177002,-25.085449,30.306641
59160,4.352659,0.009577,-2.485181,3.875732,-11.322021,-17.883301,30.310547
59200,7.240066,1.177947,-2.279280,4.547119,3.540039,-4.730225,30.310547
59240,9.586384,1.905785,-2.806004,8.697510,23.345947,4.974365,30.330078
59280,11.037270,0.766145,-3.284845,8.758545,24.932861,-8.087158,30.310547
59320,12.813767,1.096544,-3.280056,22.857666,20.202637,-20.050049,30.310547
59360,13.555970,1.364695,-2.624045,40.618896,48.461914,-26.550293,30.318359
59400,11.994950,1.632846,-5.061342,34.973145,47.149658,-26.123047,30.308594
59440,8.628703,0.890643,-6.837840,27.404785,-10.375977,-13.885498,30.330078
59480,8.542512,-1.268927,-6.646304,36.590576,-43.914795,4.211426,30.353516
59520,11.252748,-2.576161,-4.884171,2.075195,-6.347656,11.444092,30.355469
59560,10.247183,-1.139640,-3.074155,-10.406494,4.943848,24.475098,30.371094
59600,6.248867,0.373495,-3.007117,-5.523682,-27.709961,33.172607,30.388672
59640,3.739743,0.526724,-2.485181,-1.373291,-47.973633,25.207520,30.359375
59680,4.477157,0.292093,-1.891419,2.197266,-47.027588,15.106201,30.369141
59720,7.254431,-0.407014,-1.733402,-8.636475,-13.732910,1.007080,30.369141
59760,9.476251,-0.814029,-1.977611,-29.022217,10.223389,2.136230,30.343750
59800,10.735600,0.248997,-3.251326,-39.428711,10.345459,8.239746,30.343750
59840,13.369223,0.828394,-3.189077,-34.393311,2.258301,20.507812,30.375000
59880,13.053187,0.004788,-2.777274,-37.567139,14.312744,17.303467,30.345703
59920,10.869676,-2.068590,-6.813898,32.714844,-30.944824,-5.950928,30.361328
59960,9.054871,-3.007117,-6.866570,29.754639,-13.885498,1.312256,30.375000
60000,7.805098,-1.824382,-7.867347,-18.218994,-6.896973,16.693115,30.355469
60040,9.255983,-0.359130,-7.900866,-31.829834,43.945312,-17.639160,30.343750
60080,9.074024,-0.469264,-5.353435,9.735107,20.507812,-35.949707,30.384766
60120,5.837064,-0.770933,-3.308787,21.026611,6.988525,-32.318115,30.392578
60160,3.701436,-0.847547,-2.628834,19.165039,-12.878418,-21.331787,30.373047
60200,4.280833,0.019154,-2.260126,4.272461,-1.739502,-17.425537,30.363281
60240,6.718130,1.508347,-2.044648,11.810303,7.690430,-3.845215,30.373047
60280,9.064447,1.690306,-2.930503,15.563965,14.129639,1.098633,30.390625
60320,11.568783,0.579397,-3.031059,12.878418,23.925781,-7.751465,30.359375
60360,13.254301,1.000776,-2.767697,29.571533,31.585693,-22.918701,30.373047
60400,13.287820,1.651999,-3.217807,39.978027,32.287598,-27.191162,30.386719
60440,11.841722,2.001553,-5.798757,29.205322,37.750244,-29.235840,30.402344
60480,8.810662,0.972046,-6.397307,40.679932,-22.186279,-10.070801,30.357422
60520,8.786720,-1.896208,-7.570466,30.395508,-41.839600,10.894775,30.388672
60560,11.544841,-2.408567,-4.616021,-11.474609,-3.662109,25.482178,30.363281
60600,9.414001,-0.713472,-3.055001,-1.342773,-14.953613,27.038574,30.376953
60640,5.616797,0.675165,-3.011906,2.746582,-44.555664,37.750244,30.373047
60680,3.873818,0.502782,-2.312799,6.683350,-42.388916,26.885986,30.369141
60720,4.879383,-0.043096,-1.824382,-6.927490,-30.517578,15.106201,30.380859
60760,7.378930,-0.723049,-1.422156,-21.057129,8.392334,1.678467,30.386719
60800,9.145850,-0.799663,-2.327164,-39.611816,17.730713,6.683350,30.373047
60840,11.329363,0.282516,-3.691859,-35.095215,4.516602,13.793945,30.375000
60880,13.733141,0.282516,-3.232172,-33.843994,4.760742,31.707764,30.371094
60920,12.928689,-0.541090,-4.707001,-1.953125,-14.251709,20.812988,30.373047
60960,11.238382,-2.336741,-7.120356,40.588379,-23.681641,-0.213623,30.363281
61000,7.618350,-2.825158,-7.608773,4.302979,-10.650635,15.533447,30.388672
61040,7.800309,-0.550666,-8.657434,-35.278320,14.923096,1.464844,30.402344
61080,8.939949,-0.229843,-7.742848,-36.529541,32.928467,-27.465820,30.373047
61120,7.584831,-1.154005,-4.156334,-14.526367,21.118164,-29.510498,30.367188
61160,4.697424,-1.024718,-2.566584,-3.875732,10.131836,-25.299072,30.388672
61200,3.600879,-0.435745,-2.236184,-0.885010,-4.760742,-16.021729,30.396484
61240,5.042189,0.713472,-2.379837,-8.422852,6.500244,-11.108398,30.369141
61280,8.130709,1.987187,-2.513912,2.075195,19.439697,3.295898,30.396484
61320,10.639832,1.244985,-2.782062,-0.915527,41.198730,-0.335693,30.380859
61360,12.330139,0.890643,-3.280056,6.561279,25.970459,-12.237549,30.378906
61400,13.177686,1.379060,-2.475605,30.242920,37.872314,-23.345947,30.373047
61440,12.612655,1.618480,-3.749320,39.611816,27.862549,-25.390625,30.406250
61480,9.734824,1.197101,-6.172252,19.622803,23.590088,-22.705078,30.449219
61520,8.164227,-0.258574,-6.373365,30.273438,-35.675049,-4.333496,30.408203
61560,10.797850,-1.905785,-6.660669,15.075684,-28.442383,11.291504,30.437500
61600,11.812991,-1.714248,-3.610456,-14.404297,10.650635,23.284912,30.423828
61640,8.370130,0.057461,-3.169923,-3.601074,-19.073486,30.090332,30.435547
61680,4.395754,0.330400,-2.987964,-10.864258,-19.805908,29.571533,30.451172
61720,3.552995,0.330400,-1.977611,-12.237549,-30.700684,20.568848,30.445312
61760,5.300763,-0.100556,-1.608904,-15.991211,-20.874023,14.617920,30.435547
61800,8.360553,-0.636858,-1.503559,-22.583008,5.889893,5.310059,30.439453
61840,10.381259,-0.052672,-2.691083,-38.299561,10.223389,6.866455,30.408203
61880,12.904747,0.928950,-3.208230,-27.862549,-10.833740,19.134521,30.421875
61920,14.020445,0.411803,-3.102885,-21.087646,-21.850586,34.210205,30.427734
61960,12.823344,-1.484405,-6.459556,36.926270,-35.217285,8.911133,30.431641
62000,9.576807,-3.031059,-6.507440,16.906738,5.920410,-1.953125,30.431641
62040,7.091625,-1.685518,-7.699753,-18.035889,-12.451172,12.817383,30.421875
62080,8.106767,-0.210690,-8.250419,-37.384033,19.989014,-10.620117,30.439453
62120,8.657434,-0.636858,-5.793968,-20.202637,21.972656,-30.700684,30.451172
62160,6.430826,-0.818817,-3.002329,-0.762939,18.615723,-28.961182,30.439453
62200,4.060566,-0.373495,-2.652776,12.634277,-20.935059,-18.493652,30.431641
62240,4.314352,0.114922,-2.351106,5.584717,-20.751953,-7.141113,30.427734
62280,6.497863,0.952892,-2.509123,-0.274658,-2.441406,-1.068115,30.435547
62320,8.911219,1.484405,-3.122039,4.821777,13.824463,6.072998,30.447266
62360,11.080365,0.656011,-3.390190,6.134033,28.228760,-6.256104,30.435547
62400,12.966996,1.005565,-3.629610,20.080566,34.637451,-20.690918,30.425781
62440,13.589489,1.403002,-3.495534,32.440186,37.536621,-26.794434,30.429688
62480,12.392388,2.030283,-5.458780,28.747559,32.684326,-22.491455,30.443359
62520,9.088389,1.604115,-6.454768,40.191650,-23.223877,-5.676270,30.451172
62560,7.742848,-1.446098,-7.244854,31.707764,-35.369873,15.075684,30.417969
62600,10.520123,-2.992752,-5.363012,-19.104004,-18.951416,21.301270,30.447266
62640,10.002975,-1.297657,-3.447650,-10.253906,-8.575439,29.479980,30.449219
62680,6.560112,0.349553,-3.318364,-0.030518,-36.590576,36.041260,30.449219
62720,4.012682,0.186748,-2.700660,3.997803,-42.572021,32.653809,30.460938
62760,4.395754,-0.502782,-1.924938,2.746582,-46.325684,24.444580,30.437500
62800,6.971915,-0.895431,-1.762132,-9.094238,-1.770020,5.615234,30.445312
62840,9.193734,-0.861913,-2.245761,-32.714844,29.846191,-0.366211,30.453125
62880,10.285490,0.081403,-3.849876,-40.710449,3.112793,11.291504,30.478516
62920,12.880805,0.028730,-4.103662,-26.824951,-2.593994,29.815674,30.451172
62960,13.479356,-1.570596,-5.329493,15.289307,-34.179688,33.660889,30.455078
63000,12.627020,-2.518700,-7.129933,60.028076,-17.242432,1.800537,30.470703
63040,6.933608,-3.845088,-6.861782,-2.349854,14.984131,-9.948730,30.458984
63080,5.698200,-1.589750,-8.015787,-65.734863,35.583496,-8.392334,30.439453
63120,8.671799,0.306458,-8.370130,-50.628662,46.508789,-30.548096,30.437500
63160,8.470686,-1.225831,-4.888960,-20.172119,20.507812,-38.391113,30.474609
63200,5.477933,-1.719037,-2.681506,4.150391,19.927979,-33.477783,30.460938
63240,3.581726,-1.101333,-2.614468,10.833740,-6.561279,-21.606445,30.460938
63280,4.932055,0.536301,-2.662352,1.617432,8.728027,-15.075684,30.460938
63320,8.001422,1.704672,-2.619257,9.216309,26.153564,-2.685547,30.451172
63360,9.763555,2.231396,-2.782062,7.812500,31.585693,-5.035400,30.457031
63400,11.410766,2.121263,-2.959233,1.007080,42.144775,-13.458252,30.480469
63440,13.177686,2.949656,-2.628834,13.031006,31.951904,-20.538330,30.490234
63480,13.876793,2.715025,-4.060566,15.716553,28.869629,-28.259277,30.478516
63520,11.334151,1.537078,-6.019023,-2.166748,31.860352,-12.969971,30.484375
63560,8.475474,-0.976834,-6.114791,-10.894775,12.023926,3.967285,30.478516
63600,10.108319,-2.930503,-5.214571,-9.094238,-13.000488,11.962891,30.484375
63640,10.754754,-0.957681,-3.150769,-25.939941,-9.521484,27.862549,30.507812
63680,8.197746,1.063026,-2.600103,-9.490967,-6.958008,28.747559,30.490234
63720,5.037400,0.311246,-2.231396,-17.181396,-6.286621,24.841309,30.484375
63760,4.510676,-0.852336,-1.584962,-16.174316,-1.922607,9.185791,30.480469
63800,6.162675,-0.785298,-1.244985,-10.498047,12.359619,0.701904,30.503906
63840,8.298303,-0.172383,-0.861913,-16.113281,26.916504,-7.720947,30.482422
63880,10.204087,0.517148,-1.244985,-28.869629,13.793945,0.213623,30.498047
63920,11.789049,1.623269,-2.035071,-21.362305,-0.823975,5.310059,30.494141
63960,13.077129,1.312023,-0.545878,-48.522949,4.028320,19.439697,30.503906
64000,13.115437,0.148441,-1.829170,-37.109375,13.244629,14.678955,30.501953
64040,10.721235,-2.020706,-5.612009,33.050537,-31.127930,-4.699707,30.509766
64080,9.193734,-2.619257,-6.306327,8.331299,-31.463623,8.850098,30.494141
64120,9.926360,-0.426168,-6.742072,-34.606934,5.706787,-2.044678,30.511719
64160,10.433931,1.000776,-5.458780,-7.965088,16.265869,-31.951904,30.507812
64200,8.149862,0.220267,-2.700660,23.529053,-4.119873,-20.294189,30.492188
64240,4.596867,-0.474052,-1.934515,11.291504,6.195068,-26.123047,30.494141
64280,4.333505,-0.014365,-1.546654,5.981445,2.166748,-15.136719,30.511719
64320,6.430826,0.871489,-1.335965,18.188477,-7.568359,-2.014160,30.488281
64360,8.379706,1.939303,-1.546654,19.287109,-4.455566,2.807617,30.498047
64400,10.151415,1.584962,-1.790863,14.251709,6.591797,-0.457764,30.515625
64440,11.994950,1.211466,-2.030283,19.500732,5.371094,-13.916016,30.507812
64480,13.192051,2.049437,-1.843535,37.292480,1.220703,-26.611328,30.511719
64520,13.474567,2.657564,-3.950433,42.724609,14.221191,-31.829834,30.511719
64560,10.314221,1.288081,-5.410896,25.390625,16.662598,-13.275146,30.496094
64600,9.030929,-2.001553,-5.669470,-5.645752,-1.464844,1.159668,30.517578
64640,11.247959,-2.092532,-4.491522,0.457764,-20.538330,16.723633,30.507812
64680,10.845734,0.746991,-2.868254,0.701904,-26.275635,33.874512,30.509766
64720,7.733272,1.201889,-2.528277,17.578125,-21.667480,30.181885,30.509766
64760,4.386178,-0.866701,-1.853112,-0.335693,-17.517090,22.094727,30.505859
64800,4.458004,-0.890643,-1.450886,-9.460449,-12.756348,6.774902,30.500000
64840,6.698977,0.359130,-1.197101,-14.038086,8.880615,1.831055,30.517578
64880,9.069236,0.541090,-0.895431,-27.923584,14.129639,6.500244,30.515625
64920,10.826580,1.130063,-1.853112,-42.755127,4.821777,6.744385,30.513672
64960,12.904747,1.522712,-1.575385,-39.001465,10.742188,13.519287,30.517578
65000,13.364434,-0.258574,-1.781286,-38.940430,5.126953,25.268555,30.507812
65040,11.664551,-1.599327,-5.204995,31.127930,-22.583008,-2.655029,30.511719
65080,9.332599,-2.686294,-5.803545,20.660400,-26.306152,-4.089355,30.509766
65120,9.504981,0.545878,-7.771579,-19.378662,-5.065918,4.272461,30.513672
65160,10.141838,1.838747,-7.393295,-18.737793,22.766113,-17.364502,30.517578
65200,9.026140,0.119710,-4.036624,18.493652,5.126953,-21.575928,30.517578
65240,5.741296,-1.403002,-1.958457,-1.678467,15.747070,-23.498535,30.531250
65280,4.070143,-0.746991,-1.781286,-21.209717,23.101807,-23.681641,30.523438
65320,5.300763,1.249773,-1.412579,5.706787,3.540039,-5.706787,30.519531
65360,7.580042,2.504335,-1.584962,18.218994,-7.141113,2.319336,30.527344
65400,9.892841,2.145205,-1.733402,12.390137,2.777100,1.190186,30.560547
65440,12.234370,1.786075,-1.786075,9.338379,9.613037,-8.300781,30.552734
65480,13.120225,2.509123,-2.039860,21.209717,12.023926,-21.392822,30.539062
