MS,Accel X (m/s²),Accel Y (m/s²),Accel Z (m/s²),Gyro X (°/s),Gyro Y (°/s),Gyro Z (°/s),Temp (°C)
1440,6.833052,-1.077391,-4.908113,52.337646,-5.584717,-43.701172,40.464844
1480,7.307104,-0.335188,-4.702212,54.290771,-5.584717,-40.618896,40.466797
1520,7.991845,-0.387861,-4.299986,55.633545,-12.603760,-30.761719,40.451172
1560,8.159439,-0.316035,-4.453215,53.161621,-13.031006,-25.817871,40.443359
1600,8.322245,-0.244209,-4.376601,54.290771,-10.375977,-26.458740,40.455078
1640,8.767567,0.124498,-4.271256,49.987793,-8.514404,-30.670166,40.462891
1680,9.461885,0.086191,-4.247314,48.034668,-0.396729,-36.499023,40.488281
1720,10.352529,-0.354342,-3.940856,55.969238,12.512207,-39.154053,40.478516
1760,10.860099,-1.010353,-4.276044,60.791016,36.590576,-40.802002,40.478516
1800,10.802638,-1.312023,-6.224925,48.675537,33.233643,-26.855469,40.468750
1840,8.556877,-1.101333,-7.565677,53.619385,-15.258789,-20.843506,40.486328
1880,7.110779,-3.634398,-6.315904,57.067871,-29.479980,-15.472412,40.458984
1920,8.341399,-4.266468,-5.319916,53.192139,-17.822266,-7.568359,40.449219
1960,8.825027,-2.375048,-5.305551,61.431885,-15.777588,-6.927490,40.484375
2000,7.714118,-1.446098,-4.922479,57.617188,-16.510010,-6.164551,40.466797
2040,6.560112,-1.359907,-4.232949,45.501709,-19.531250,0.610352,40.451172
2080,6.291962,-1.695095,-3.993528,30.242920,-13.336182,5.493164,40.472656
2120,7.019799,-1.752556,-4.046201,24.475098,-16.815186,6.378174,40.458984
2160,7.623138,-1.685518,-3.869030,14.526367,1.007080,-4.699707,40.460938
2200,8.236053,-1.508347,-3.596091,6.317139,14.099121,-14.495850,40.457031
2240,8.705317,-1.594538,-3.682282,3.784180,7.812500,-13.671875,40.449219
2280,8.935161,-1.723825,-3.916914,-2.044678,-1.983643,-7.598877,40.449219
2320,9.581595,-1.479617,-3.758897,-3.967285,-8.270264,-4.211426,40.480469
2360,10.615891,-1.249773,-3.117251,-17.364502,4.272461,-0.946045,40.488281
2400,11.200075,-0.972046,-3.011906,-31.677246,18.280029,6.134033,40.455078
2440,10.955867,-1.905785,-4.999093,-8.880615,-13.458252,7.171631,40.462891
2480,9.251195,-3.337517,-6.746861,26.824951,-14.251709,-9.765625,40.458984
2520,6.766014,-3.792415,-6.497863,-7.720947,-0.762939,-2.380371,40.458984
2560,6.373365,-1.771709,-6.852205,-17.578125,1.403809,-6.347656,40.478516
2600,7.608773,-0.991199,-6.871359,-6.439209,-3.875732,-20.690918,40.488281
2640,8.092402,-1.934515,-5.410896,0.732422,5.645752,-31.646729,40.478516
2680,6.876147,-1.982399,-4.448427,-7.171631,12.145996,-25.512695,40.468750
2720,6.473921,-1.039083,-4.151546,-3.814697,16.052246,-22.766113,40.462891
2760,6.971915,-0.339977,-4.103662,9.277344,10.986328,-17.272949,40.439453
2800,7.800309,0.028730,-3.797204,13.519287,4.089355,-5.218506,40.472656
2840,8.513782,0.047884,-3.500323,19.836426,6.958008,-2.105713,40.478516
2880,8.820239,0.110133,-4.050989,19.042969,2.471924,-11.596680,40.462891
2920,9.428367,0.004788,-4.352659,18.432617,11.871338,-23.864746,40.478516
2960,10.735600,-0.177171,-3.624821,43.365479,11.444092,-36.163330,40.482422
3000,11.736377,-0.397437,-3.011906,52.032471,38.085938,-35.156250,40.468750
3040,11.286267,0.210690,-4.936844,33.935547,48.797607,-23.742676,40.468750
3080,9.260772,-0.153229,-7.211336,18.615723,-8.697510,-9.124756,40.484375
3120,7.058106,-1.757344,-6.837840,35.522461,-42.083740,-3.662109,40.484375
3160,9.030929,-4.405331,-5.204995,27.740479,-28.564453,5.554199,40.474609
3200,10.079589,-2.207454,-4.606444,36.376953,-26.977539,14.190674,40.482422
3240,8.030152,0.019154,-4.529830,36.499023,-41.015625,24.261475,40.482422
3280,5.410896,0.081403,-3.864242,21.331787,-55.664062,33.111572,40.474609
3320,5.430049,-0.991199,-3.347094,20.355225,-54.962158,23.956299,40.468750
3360,7.096414,-2.044648,-3.677494,17.639160,-34.576416,9.765625,40.492188
3400,8.149862,-1.742979,-3.509900,3.814697,8.239746,-7.537842,40.492188
3440,8.489840,-1.096544,-3.643975,-10.772705,16.906738,-11.260986,40.488281
3480,9.241618,-1.034295,-4.386178,-14.434814,-2.197266,8.331299,40.501953
3520,11.180922,-0.833182,-4.812346,-15.472412,-9.643555,28.015137,40.462891
3560,12.181698,-2.106898,-5.870583,-3.173828,-32.348633,40.557861,40.501953
3600,11.832145,-3.371036,-8.140285,51.727295,-24.230957,23.529053,40.484375
3640,7.158663,-4.232949,-6.363788,4.699707,16.906738,-15.869141,40.486328
3680,4.548983,-3.711013,-7.575254,-13.153076,-19.989014,6.500244,40.503906
3720,5.243302,-1.575385,-8.887277,-19.805908,-13.366699,-7.690430,40.494141
3760,7.603985,-1.877054,-7.144298,-27.160645,12.176514,-20.690918,40.494141
3800,7.187394,-1.465251,-5.032612,-29.052734,21.881104,-24.963379,40.480469
3840,5.521029,-0.579397,-4.616021,-28.106689,1.922607,-15.106201,40.490234
3880,5.688623,-0.909797,-4.544195,-26.062012,2.319336,-9.063721,40.490234
3920,6.837840,-0.761356,-4.113238,-16.754150,12.512207,-2.960205,40.488281
3960,7.824251,-0.225055,-3.854665,-10.986328,30.609131,5.401611,40.482422
4000,8.236053,0.421380,-4.309563,-6.134033,42.266846,-3.967285,40.476562
4040,8.829816,-0.292093,-5.003881,-1.525879,45.593262,-15.930176,40.478516
4080,10.194510,-0.009577,-4.668694,1.281738,43.914795,-23.925781,40.486328
4120,11.554418,0.296881,-4.865018,18.310547,24.719238,-25.207520,40.503906
4160,11.980585,0.665588,-7.560889,6.164551,23.559570,-20.629883,40.478516
4200,9.916783,-0.430956,-8.350976,25.299072,-2.593994,-10.894775,40.476562
4240,7.196970,-4.175488,-6.837840,14.892578,-17.578125,0.885010,40.486328
4280,7.915231,-4.496311,-5.238513,4.608154,-16.418457,14.160156,40.474609
4320,8.403648,-1.455675,-4.979939,22.277832,-33.508301,18.066406,40.498047
4360,6.837840,0.076614,-4.788404,25.817871,-42.053223,24.291992,40.511719
4400,5.185841,-0.943315,-4.228160,12.969971,-46.081543,30.456543,40.488281
4440,5.999869,-2.126051,-3.495534,11.749268,-40.832520,21.331787,40.511719
4480,7.000646,-1.776498,-3.892972,3.784180,-12.725830,8.117676,40.519531
4520,7.354988,-1.498770,-4.022259,-14.221191,10.650635,-2.685547,40.492188
4560,8.350976,-1.460463,-4.299986,-23.345947,8.575439,0.000000,40.498047
4600,9.883265,-1.647211,-5.214571,-17.578125,-5.706787,14.373779,40.488281
4640,11.008539,-1.599327,-5.161899,-25.085449,4.150391,31.585693,40.496094
4680,11.281479,-2.121263,-5.971139,-22.491455,-7.263184,31.066895,40.474609
4720,10.568007,-2.925714,-7.771579,17.517090,-12.512207,11.932373,40.494141
4760,7.077260,-4.328717,-7.086837,-6.439209,20.141602,-7.843018,40.486328
4800,5.157111,-2.978387,-8.101978,-28.533936,-3.997803,7.080078,40.472656
4840,5.367800,-0.713472,-8.686164,-29.937744,5.798340,-7.537842,40.488281
4880,7.206547,-1.355118,-7.005434,-29.266357,15.563965,-16.387939,40.498047
4920,7.216124,-1.618480,-4.750096,-24.658203,23.345947,-28.778076,40.474609
4960,5.588067,-0.981623,-4.616021,-27.343750,14.434814,-19.439697,40.484375
5000,5.980716,-0.459687,-4.807557,-24.383545,10.131836,-15.136719,40.482422
5040,7.278373,0.071826,-4.635174,-7.568359,-0.640869,-5.432129,40.523438
5080,7.905654,-0.081403,-4.371812,-0.671387,15.655518,1.373291,40.500000
5120,7.857770,-0.229843,-4.386178,2.014160,27.832031,-3.936768,40.482422
5160,8.418014,-0.138864,-4.400543,4.791260,27.801514,-14.709473,40.511719
5200,9.337387,-0.119710,-4.606444,4.028320,34.790039,-17.395020,40.509766
5240,10.601525,0.014365,-4.491522,13.977051,33.294678,-23.345947,40.505859
5280,11.798626,0.349553,-4.319140,29.357910,20.690918,-22.857666,40.480469
5320,12.009315,0.871489,-5.612009,22.583008,19.958496,-18.646240,40.492188
5360,10.520123,0.440533,-6.809110,17.517090,16.479492,-10.711670,40.490234
5400,6.928820,-1.039083,-7.115568,19.989014,-12.908936,3.387451,40.507812
5440,7.043741,-2.801216,-5.832275,9.765625,-18.280029,9.185791,40.529297
5480,9.074024,-1.982399,-4.290410,10.101318,-11.199951,16.326904,40.507812
5520,8.020576,0.158017,-4.678270,16.876221,-25.451660,23.284912,40.501953
5560,6.148310,0.574608,-4.376601,-2.410889,-18.920898,31.127930,40.494141
5600,6.052542,-0.608127,-3.763685,0.518799,-31.341553,34.240723,40.529297
5640,6.986280,-1.661576,-3.830723,4.669189,-21.484375,19.073486,40.527344
5680,7.493851,-1.685518,-3.830723,0.976562,-1.586914,4.364014,40.498047
5720,7.800309,-1.240196,-3.509900,-8.239746,12.054443,-3.112793,40.515625
5760,8.528147,-0.933739,-3.878607,-12.115479,-0.244141,-1.464844,40.517578
5800,10.539276,-0.665588,-4.630386,-6.378174,-21.789551,19.958496,40.525391
5840,11.870452,-0.732626,-4.448427,-24.810791,-0.701904,38.787842,40.498047
5880,11.583148,-2.059013,-5.746084,-18.646240,-0.762939,26.123047,40.515625
5920,10.558430,-2.633622,-7.168240,17.059326,6.561279,-7.598877,40.519531
5960,6.880936,-3.481169,-7.015011,-5.004883,10.986328,-5.828857,40.492188
6000,5.051765,-1.944092,-7.580042,-37.689209,-3.967285,13.549805,40.525391
6040,6.100426,-0.043096,-8.063671,-41.961670,6.225586,1.312256,40.527344
6080,8.097190,-0.751779,-6.291962,-30.426025,2.746582,-9.307861,40.509766
6120,7.632715,-1.101333,-4.434062,-21.697998,12.451172,-12.634277,40.507812
6160,5.861006,-0.885855,-4.280833,-22.735596,2.349854,-7.629395,40.515625
6200,6.148310,-0.957681,-4.003105,-18.798828,10.345459,-8.544922,40.529297
6240,7.436390,-0.138864,-3.878607,-12.115479,17.272949,0.793457,40.505859
6280,8.470686,0.517148,-3.691859,-5.035400,22.094727,9.521484,40.519531
6320,8.437167,0.502782,-4.089296,0.823975,19.958496,-1.068115,40.501953
6360,9.141062,0.392649,-4.587290,3.540039,20.019531,-14.617920,40.542969
6400,10.328587,0.569820,-4.352659,12.725830,20.355225,-23.162842,40.527344
6440,11.635820,0.287304,-4.467580,24.200439,19.500732,-25.482178,40.539062
6480,11.674128,0.593762,-5.549759,11.810303,30.975342,-14.343262,40.523438
6520,9.543288,0.555455,-7.019799,3.692627,1.159668,-2.563477,40.517578
6560,6.684611,-1.843535,-6.804321,28.625488,-31.799316,-1.983643,40.523438
6600,7.738060,-5.008670,-4.869806,7.507324,-32.012939,13.977051,40.533203
6640,9.849746,-2.561796,-4.783615,34.545898,-42.205811,13.305664,40.498047
6680,8.518570,0.047884,-5.056554,53.375244,-59.967041,19.378662,40.496094
6720,6.023811,-0.292093,-4.252102,35.705566,-50.079346,24.108887,40.503906
6760,5.286397,-1.671153,-3.418920,15.167236,-39.306641,20.538330,40.529297
6800,6.646304,-2.001553,-3.610456,13.488770,-22.796631,6.134033,40.519531
6840,7.493851,-1.594538,-3.687071,3.692627,3.692627,-8.575439,40.521484
6880,8.350976,-1.412579,-3.711013,-2.502441,12.298584,-13.732910,40.503906
6920,9.351752,-1.446098,-4.553771,-8.972168,-3.021240,-0.122070,40.539062
6960,10.544065,-0.991199,-4.845864,-20.965576,7.629395,19.378662,40.533203
7000,11.444284,-1.101333,-5.334281,-29.998779,5.157471,24.322510,40.523438
7040,11.865664,-2.753332,-7.939173,22.094727,-23.559570,12.512207,40.515625
7080,8.480263,-4.539406,-7.144298,-0.793457,32.348633,-21.057129,40.529297
7120,5.947197,-3.974375,-7.546524,-22.705078,5.676270,-5.737305,40.541016
7160,5.583278,-1.283292,-8.470686,-22.674561,14.373779,-17.120361,40.509766
7200,7.120356,-1.335965,-7.292738,-21.423340,25.634766,-23.986816,40.517578
7240,7.584831,-1.426944,-5.157111,-0.976562,16.967773,-36.773682,40.521484
7280,5.875371,-1.379060,-4.247314,0.213623,12.237549,-30.609131,40.511719
7320,5.544971,-0.785298,-4.108450,2.288818,15.319824,-35.644531,40.531250
7360,6.454768,0.330400,-4.084508,5.371094,9.033203,-23.162842,40.527344
7400,7.560889,0.368707,-3.964798,11.199951,2.655029,-6.317139,40.548828
7440,8.690952,0.095768,-3.639187,15.625000,13.702393,-3.875732,40.541016
7480,9.471462,0.517148,-4.065354,17.181396,22.949219,-11.505127,40.533203
7520,10.390836,0.052672,-4.266468,14.434814,35.461426,-18.463135,40.541016
7560,11.616667,0.019154,-3.806781,33.233643,24.841309,-26.336670,40.531250
7600,12.248735,0.421380,-4.644751,34.973145,18.768311,-25.787354,40.533203
7640,11.056423,1.125275,-6.268020,12.847900,23.620605,-14.862061,40.546875
7680,8.121132,0.325611,-6.631939,20.355225,-3.112793,-0.549316,40.533203
7720,6.387730,-2.619257,-6.904878,13.305664,-29.510498,2.624512,40.541016
7760,9.193734,-3.332729,-5.094861,4.455566,-22.979736,21.759033,40.541016
7800,9.557653,-0.565032,-4.754885,20.050049,-41.381836,24.963379,40.533203
7840,7.311892,0.579397,-4.606444,19.317627,-38.543701,29.785156,40.529297
7880,5.190629,-0.464475,-3.888184,7.202148,-45.532227,36.590576,40.554688
7920,5.851429,-1.651999,-3.548207,9.948730,-42.816162,24.627686,40.560547
7960,7.259220,-1.929727,-4.041412,10.894775,-25.390625,8.758545,40.564453
8000,7.905654,-1.340753,-3.811569,-3.814697,9.429932,-2.532959,40.558594
8040,8.518570,-0.881066,-4.094085,-7.781982,8.666992,-2.899170,40.542969
8080,9.471462,-1.101333,-4.793192,-7.720947,-8.300781,11.566162,40.546875
8120,10.625467,-0.919373,-4.865018,-19.805908,0.976562,23.559570,40.558594
8160,11.166556,-1.800440,-5.564125,-26.184082,0.427246,31.707764,40.566406
8200,10.864887,-2.944868,-7.441179,5.828857,-6.896973,8.148193,40.544922
8240,8.331821,-3.227384,-7.024588,1.556396,28.778076,-19.775391,40.546875
8280,5.712565,-3.093309,-7.527370,-21.087646,-3.540039,1.739502,40.556641
8320,5.377377,-0.909797,-7.929596,-30.181885,6.134033,-1.770020,40.558594
8360,6.976704,-0.536301,-7.422025,-22.460938,10.101318,-11.566162,40.517578
8400,7.819463,-1.307234,-5.544971,-20.721436,20.690918,-20.904541,40.544922
8440,6.464345,-1.106121,-4.491522,-12.939453,12.451172,-21.179199,40.554688
8480,6.009446,-0.952892,-4.323928,-16.448975,11.260986,-17.089844,40.550781
8520,6.742072,0.014365,-4.410120,-14.129639,15.899658,-11.077881,40.535156
8560,7.723695,0.282516,-4.118027,0.427246,12.573242,-0.610352,40.541016
8600,7.972692,-0.057461,-3.849876,5.798340,25.268555,0.030518,40.556641
8640,8.686164,0.335188,-3.907337,12.176514,18.310547,-6.164551,40.550781
8680,9.830592,0.857124,-4.357447,5.981445,27.801514,-15.960693,40.550781
8720,10.778696,0.991199,-4.453215,12.664795,24.047852,-24.230957,40.562500
8760,12.095507,0.474052,-4.611232,20.172119,14.343262,-25.146484,40.539062
8800,11.994950,1.130063,-5.310339,8.758545,25.817871,-17.578125,40.550781
8840,9.816227,0.536301,-5.980716,4.821777,18.096924,-3.234863,40.541016
8880,6.354211,-1.853112,-6.770802,14.404297,-23.956299,2.288818,40.554688
8920,7.120356,-3.974375,-5.353435,8.239746,-33.874512,15.075684,40.564453
8960,8.987833,-2.063802,-5.018247,26.153564,-44.067383,14.068604,40.544922
9000,8.662222,-0.191536,-4.740520,43.579102,-61.218262,21.728516,40.548828
9040,6.354211,-0.301669,-4.309563,31.799316,-55.694580,30.578613,40.527344
9080,6.028600,-1.063026,-3.859453,20.843506,-51.605225,27.374268,40.556641
9120,7.153875,-1.316811,-3.864242,15.594482,-27.526855,9.338379,40.533203
9160,7.824251,-1.101333,-3.658340,1.403809,7.598877,-2.502441,40.556641
9200,8.408437,-1.326388,-3.993528,-7.843018,13.549805,-4.302979,40.550781
9240,9.926360,-1.723825,-4.955997,1.983643,-7.019043,5.950928,40.544922
9280,10.539276,-1.580173,-4.817134,-12.664795,15.411377,18.615723,40.554688
9320,10.127473,-1.963245,-4.558560,-46.386719,48.461914,14.343262,40.544922
9360,10.342952,-3.040636,-7.398083,-0.701904,12.207031,-8.972168,40.556641
9400,8.978256,-2.576161,-7.503428,11.505127,17.181396,-13.397217,40.566406
9440,6.062119,-2.121263,-7.608773,-20.629883,-1.586914,2.044678,40.558594
9480,6.148310,-0.186748,-7.972692,-35.217285,10.955811,-6.500244,40.560547
9520,7.876924,-0.148441,-7.216124,-25.299072,14.465332,-14.984131,40.537109
9560,8.183381,-1.130063,-5.046977,-16.998291,15.289307,-22.033691,40.568359
9600,6.282385,-1.077391,-3.974375,-17.425537,10.467529,-16.693115,40.564453
9640,5.252879,-1.000776,-4.079720,-24.993896,13.946533,-16.296387,40.570312
9680,6.560112,0.196325,-3.878607,-11.383057,12.817383,-10.101318,40.574219
9720,7.948750,0.660800,-3.734955,1.892090,5.035400,3.448486,40.556641
9760,8.518570,0.536301,-3.572149,8.209229,21.057129,2.990723,40.546875
9800,8.767567,0.612916,-4.175488,10.284424,16.052246,-7.843018,40.582031
9840,9.878476,0.909797,-4.501099,6.164551,12.664795,-13.885498,40.568359
9880,11.348516,0.689530,-4.242526,20.324707,4.699707,-21.575928,40.566406
9920,12.756307,-0.071826,-4.285621,40.283203,12.451172,-31.066895,40.568359
9960,11.927913,1.101333,-5.051765,18.066406,30.151367,-16.815186,40.548828
10000,8.992621,0.981623,-6.110003,8.300781,10.314941,3.295898,40.552734
10040,5.966351,-1.575385,-6.670246,22.796631,-35.797119,1.739502,40.558594
10080,8.020576,-3.787627,-5.128380,8.514404,-27.252197,14.526367,40.537109
10120,9.916783,-1.594538,-4.821922,31.494141,-38.421631,12.664795,40.550781
10160,8.513782,0.277727,-4.620809,44.250488,-52.337646,20.233154,40.580078
10200,5.501875,-0.191536,-4.209007,22.033691,-48.675537,34.362793,40.556641
10240,5.746084,-1.268927,-3.610456,17.517090,-50.109863,28.167725,40.550781
10280,7.369353,-1.470040,-3.907337,22.247314,-32.470703,7.263184,40.564453
10320,7.637504,-1.225831,-3.653552,4.913330,6.622314,-2.929688,40.556641
10360,7.704541,-0.986411,-3.658340,-16.418457,20.050049,-3.631592,40.552734
10400,9.327810,-0.885855,-4.563348,-19.165039,4.821777,4.699707,40.566406
10440,11.176133,-0.881066,-5.094861,-13.763428,-0.762939,26.977539,40.542969
10480,11.568783,-2.164358,-5.669470,-25.238037,8.789062,29.479980,40.550781
10520,11.377247,-2.959233,-7.556100,11.688232,-5.249023,1.098633,40.558594
10560,8.427590,-3.620033,-7.082048,4.913330,24.719238,-23.498535,40.570312
10600,5.573701,-3.078943,-7.503428,-15.228271,2.838135,-4.608154,40.544922
10640,5.564125,-0.804452,-8.212111,-29.479980,16.876221,-10.040283,40.562500
10680,7.541735,-0.454898,-7.608773,-18.554688,18.157959,-20.904541,40.554688
10720,8.039729,-1.125275,-5.276821,-4.150391,19.683838,-32.836914,40.574219
10760,6.291962,-1.168370,-4.070143,0.976562,20.782471,-28.045654,40.583984
10800,5.439626,-0.866701,-3.983952,-1.281738,25.848389,-27.038574,40.580078
10840,6.138733,0.402226,-4.079720,-3.173828,19.531250,-19.165039,40.568359
10880,7.843405,0.857124,-3.725378,11.444092,-4.028320,1.312256,40.564453
10920,8.552089,0.359130,-3.485958,12.542725,20.935059,3.997803,40.560547
10960,8.470686,0.301669,-4.151546,16.235352,17.089844,-7.965088,40.550781
11000,9.806650,0.253785,-4.252102,18.035889,16.662598,-17.120361,40.554688
11040,11.391612,0.699107,-4.036624,27.099609,10.894775,-21.087646,40.556641
11080,12.579136,0.943315,-4.678270,29.357910,8.178711,-23.193359,40.570312
11120,12.253524,1.675941,-5.521029,9.429932,21.728516,-12.908936,40.568359
11160,9.337387,1.144428,-6.311116,4.119873,10.620117,4.394531,40.558594
11200,6.263232,-1.446098,-6.646304,11.840820,-27.191162,8.270264,40.544922
11240,7.694964,-3.289633,-5.128380,-5.310059,-26.672363,24.505615,40.570312
11280,9.481039,-1.268927,-4.865018,7.263184,-34.027100,25.634766,40.548828
11320,8.523358,0.641646,-4.563348,19.470215,-40.191650,30.242920,40.566406
11360,5.856217,0.086191,-4.232949,4.516602,-44.006348,45.349121,40.578125
11400,5.597643,-1.125275,-4.046201,2.929688,-48.004150,43.792725,40.585938
11440,7.034164,-1.848324,-4.204218,2.380371,-27.679443,23.101807,40.580078
11480,7.680599,-1.436521,-4.103662,-6.469727,4.852295,6.927490,40.570312
11520,7.742848,-0.957681,-4.118027,-12.756348,17.333984,0.213623,40.566406
11560,8.738836,-1.163582,-4.357447,-18.157959,5.187988,15.594482,40.591797
11600,10.127473,-0.373495,-4.946421,-22.979736,-2.319336,33.355713,40.580078
11640,10.788273,-0.186748,-4.678270,-46.630859,24.688721,37.628174,40.570312
11680,10.817003,-1.522712,-4.601655,-61.584473,44.738770,28.869629,40.574219
11720,9.835381,-2.082955,-6.272809,-16.387939,23.681641,-3.295898,40.580078
11760,8.154651,-3.677494,-8.101978,10.589600,-23.590088,-2.502441,40.580078
11800,6.143522,-3.725378,-7.647080,-25.695801,-0.549316,11.047363,40.564453
11840,7.029376,-1.719037,-8.025364,-41.809082,27.069092,-2.532959,40.566406
11880,8.370130,-1.177947,-7.225701,-18.829346,19.470215,-28.381348,40.556641
11920,7.144298,-1.810017,-4.572925,-14.160156,17.639160,-25.207520,40.566406
11960,5.425261,-1.527501,-3.955221,-20.324707,24.658203,-31.402588,40.564453
12000,5.894525,-0.756568,-3.610456,-11.779785,33.813477,-28.686523,40.578125
12040,7.254431,0.627281,-3.126827,2.136230,6.408691,-8.209229,40.578125
12080,7.900866,0.833182,-3.399766,2.929688,0.396729,4.760742,40.554688
12120,8.207323,0.081403,-3.792415,8.605957,11.566162,0.823975,40.580078
12160,9.892841,-0.038307,-3.691859,11.596680,10.772705,-9.063721,40.562500
12200,11.506534,0.349553,-3.916914,15.563965,17.822266,-19.531250,40.583984
12240,12.143391,0.210690,-3.663129,42.572021,10.833740,-29.418945,40.558594
12280,11.985373,-0.023942,-4.893748,28.747559,27.465820,-20.996094,40.562500
12320,9.662998,0.320823,-6.794744,0.457764,14.953613,-0.518799,40.574219
12360,6.780379,-1.197101,-6.924031,23.986816,-29.968262,-1.892090,40.566406
12400,7.939173,-3.845088,-5.535394,12.817383,-24.688721,3.875732,40.570312
12440,10.002975,-2.193089,-4.611232,10.406494,-22.521973,18.035889,40.583984
12480,8.805874,0.450110,-4.620809,43.884277,-41.809082,17.578125,40.560547
12520,5.750873,-0.354342,-4.194642,16.571045,-46.264648,30.822754,40.580078
12560,5.382165,-1.450886,-3.505111,11.077881,-40.313721,26.000977,40.603516
12600,6.895301,-1.604115,-3.509900,12.573242,-23.284912,11.993408,40.570312
12640,7.642292,-1.259350,-3.371036,1.159668,8.972168,-6.500244,40.589844
12680,8.293514,-1.034295,-3.337517,-9.948730,22.918701,-8.972168,40.580078
12720,9.581595,-0.881066,-3.912126,-25.482178,16.967773,6.164551,40.570312
12760,11.262324,-0.129287,-4.285621,-31.677246,20.538330,18.981934,40.593750
12800,12.009315,-0.287304,-3.873818,-51.300049,28.228760,18.493652,40.585938
12840,11.219229,-2.638410,-6.172252,-14.312744,0.854492,8.575439,40.576172
12880,9.318233,-3.375824,-7.623138,30.151367,-13.610840,-7.293701,40.585938
12920,6.354211,-3.418920,-7.115568,-0.457764,-9.246826,-1.403809,40.578125
12960,6.339846,-1.168370,-7.776367,-42.327881,15.075684,-1.159668,40.580078
13000,8.049306,-0.402226,-7.623138,-18.463135,9.796143,-21.148682,40.603516
13040,8.312668,-1.546654,-4.821922,7.598877,10.223389,-34.271240,40.591797
13080,6.100426,-1.695095,-3.768473,-11.169434,25.909424,-34.545898,40.599609
13120,5.779603,-0.828394,-3.936068,4.150391,19.104004,-28.839111,40.570312
13160,7.115568,0.359130,-3.327940,8.148193,0.640869,-11.230469,40.578125
13200,7.991845,0.881066,-3.490746,10.955811,-12.115479,2.441406,40.589844
13240,8.360553,0.603339,-3.399766,14.495850,7.904053,1.983643,40.585938
13280,8.647857,-0.004788,-3.969586,20.385742,3.631592,-8.728027,40.580078
13320,10.093954,0.081403,-3.921702,16.998291,9.490967,-17.578125,40.587891
13360,11.449073,0.407014,-3.706224,34.240723,15.258789,-25.054932,40.613281
13400,12.310986,0.162806,-3.969586,44.494629,17.059326,-26.397705,40.580078
13440,11.717223,0.746991,-5.386954,14.892578,31.341553,-11.474609,40.595703
13480,9.284714,0.804452,-6.909666,-0.061035,-0.732422,2.624512,40.609375
13520,6.512228,-1.268927,-6.756437,19.073486,-35.461426,2.990723,40.603516
13560,8.236053,-3.529053,-4.960786,5.340576,-20.690918,14.953613,40.591797
13600,9.686940,-1.522712,-4.448427,12.725830,-23.315430,21.514893,40.628906
13640,8.188169,0.622492,-4.501099,22.735596,-32.989502,27.313232,40.593750
13680,5.722142,0.507571,-4.371812,-1.739502,-36.987305,41.442871,40.595703
13720,5.793968,-1.048660,-3.763685,0.244141,-43.579102,35.125732,40.605469
13760,6.904878,-2.054225,-3.974375,-0.396729,-19.500732,16.845703,40.615234
13800,7.910442,-1.584962,-3.801992,-7.995605,10.772705,-1.708984,40.585938
13840,8.259995,-0.919373,-3.720589,-12.512207,24.230957,-9.124756,40.576172
13880,8.882488,-0.924162,-4.175488,-19.073486,7.293701,4.119873,40.597656
13920,10.093954,-0.531513,-4.577713,-21.453857,2.532959,26.245117,40.576172
13960,11.343728,-0.426168,-3.940856,-39.306641,14.892578,33.203125,40.607422
14000,11.573571,-1.393425,-4.606444,-45.806885,15.808105,25.695801,40.607422
14040,10.912771,-2.327164,-6.665458,2.716064,5.126953,-0.427246,40.601562
14080,7.819463,-3.596091,-6.694188,11.444092,11.779785,-14.953613,40.585938
14120,5.655105,-3.629610,-7.015011,-16.326904,-20.111084,9.796143,40.591797
14160,6.435614,-0.924162,-7.862558,-30.334473,6.378174,-5.676270,40.595703
14200,8.418014,-0.292093,-7.034164,-7.629395,0.610352,-22.521973,40.601562
14240,7.972692,-1.120486,-4.448427,-0.427246,8.697510,-27.648926,40.593750
14280,5.961562,-1.225831,-3.806781,-8.697510,13.671875,-26.702881,40.611328
14320,6.114791,-0.732626,-3.964798,-8.056641,20.751953,-24.078369,40.593750
14360,7.580042,0.292093,-3.562572,3.875732,-2.105713,-7.354736,40.587891
14400,8.441956,0.521936,-3.289633,6.500244,1.464844,1.953125,40.603516
14440,8.561666,0.378284,-3.347094,7.629395,24.688721,-3.845215,40.609375
14480,9.006987,0.196325,-3.950433,9.399414,19.378662,-13.427734,40.589844
14520,10.405201,0.703895,-4.151546,4.608154,14.221191,-18.310547,40.595703
14560,11.851298,0.483629,-3.548207,28.503418,10.101318,-25.695801,40.613281
14600,12.334928,0.071826,-3.854665,27.801514,26.092529,-19.989014,40.587891
14640,11.037270,-0.019154,-5.870583,4.516602,36.224365,-3.814697,40.589844
14680,7.627927,-0.464475,-7.168240,8.148193,-14.678955,0.366211,40.583984
14720,6.794744,-2.365471,-6.287174,13.671875,-34.759521,3.265381,40.591797
14760,9.821015,-3.179500,-4.458004,6.469727,-6.195068,17.456055,40.603516
14800,9.730036,-0.402226,-4.501099,28.137207,-23.193359,16.235352,40.603516
14840,6.584054,0.162806,-4.410120,11.352539,-35.400391,26.275635,40.607422
14880,5.118803,-0.588974,-3.792415,0.091553,-36.499023,28.656006,40.603516
14920,6.507440,-1.302446,-3.423708,0.793457,-26.458740,17.700195,40.593750
14960,7.738060,-1.422156,-3.629610,-1.556396,-4.821777,1.464844,40.593750
15000,8.212111,-1.225831,-3.318364,-11.871338,20.812988,-7.080078,40.613281
15040,8.772355,-0.909797,-3.586514,-14.587402,8.880615,-5.126953,40.589844
15080,9.911995,-0.761356,-4.223372,-9.155273,-9.124756,3.936768,40.613281
15120,11.525687,-1.115698,-3.883395,-15.594482,-5.340576,24.078369,40.613281
15160,11.707646,-1.613692,-4.256891,-27.282715,0.457764,23.315430,40.601562
15200,10.903194,-2.059013,-6.464345,11.627197,-7.019043,-1.861572,40.615234
15240,8.403648,-2.983175,-6.483498,18.737793,12.115479,-15.197754,40.609375
15280,6.153099,-2.437297,-7.316680,-1.678467,-13.854980,-3.784180,40.642578
15320,6.397307,-0.770933,-7.790732,-8.636475,1.770020,-9.216309,40.615234
15360,8.054094,-1.144428,-6.746861,0.183105,6.927490,-26.611328,40.613281
15400,8.159439,-1.589750,-4.563348,12.298584,16.662598,-37.292480,40.625000
15440,6.378153,-0.976834,-4.194642,12.268066,16.326904,-36.499023,40.589844
15480,6.244078,-0.397437,-4.309563,11.901855,18.341064,-27.465820,40.603516
15520,7.469909,0.617704,-4.012682,14.862061,-4.821777,-15.075684,40.609375
15560,8.303091,0.584185,-3.610456,16.265869,-2.655029,-3.540039,40.601562
15600,8.188169,0.172383,-3.615245,13.183594,12.542725,-1.281738,40.613281
15640,8.322245,0.344765,-3.993528,15.075684,6.622314,-8.850098,40.601562
15680,9.591172,0.215478,-3.988740,19.744873,8.270264,-17.608643,40.605469
15720,11.013328,-0.138864,-3.615245,24.780273,20.385742,-22.827148,40.607422
15760,12.014104,0.138864,-4.012682,33.996582,17.883301,-27.679443,40.613281
15800,12.181698,1.000776,-4.893748,16.815186,20.111084,-17.486572,40.580078
15840,10.620679,1.556231,-5.698200,6.683350,14.038086,-3.814697,40.611328
15880,6.909666,-0.258574,-6.531382,8.728027,-22.583008,9.826660,40.609375
15920,6.890512,-2.863465,-5.511452,-4.028320,-25.360107,21.026611,40.609375
15960,9.366117,-1.968034,-4.898537,3.417969,-33.264160,22.064209,40.617188
16000,9.428367,0.239420,-4.807557,22.827148,-41.503906,23.193359,40.601562
16040,6.799533,0.071826,-4.299986,6.378174,-29.510498,34.362793,40.615234
16080,5.746084,-0.972046,-4.022259,3.387451,-44.403076,38.787842,40.589844
16120,6.880936,-1.613692,-3.897760,4.150391,-28.503418,21.697998,40.630859
16160,7.618350,-1.417367,-4.031836,-3.234863,3.479004,3.967285,40.615234
16200,7.680599,-0.814029,-3.945644,-12.359619,16.998291,-1.373291,40.634766
16240,8.240842,-0.689530,-3.993528,-15.960693,11.077881,4.119873,40.574219
16280,9.423578,-0.914585,-4.295198,-17.089844,-2.899170,17.883301,40.625000
16320,10.438720,-0.847547,-4.592079,-25.573730,9.918213,28.869629,40.623047
16360,10.955867,-1.819593,-5.343858,-29.449463,2.105713,29.785156,40.623047
16400,11.611878,-2.202666,-6.569689,-3.784180,-7.080078,13.702393,40.605469
16440,9.390059,-2.461239,-5.913678,-9.552002,35.858154,-10.620117,40.623047
16480,6.593631,-3.303998,-6.627151,-12.725830,-6.805420,-6.164551,40.617188
16520,5.702989,-1.225831,-7.350199,-17.974854,-8.575439,-3.875732,40.611328
16560,6.799533,-0.114922,-7.699753,-22.491455,-3.906250,-0.823975,40.623047
16600,8.078036,-0.727837,-6.033388,-22.796631,9.704590,-18.646240,40.619141
16640,7.431602,-1.019930,-4.094085,-9.307861,14.129639,-26.031494,40.625000
16680,6.143522,-0.991199,-3.998317,-10.437012,15.533447,-22.644043,40.593750
16720,6.718130,-0.277727,-4.223372,-15.655518,18.829346,-13.336182,40.630859
16760,7.939173,0.675165,-3.892972,-0.030518,2.655029,-2.502441,40.625000
16800,8.370130,0.181959,-3.605668,6.347656,13.092041,3.479004,40.609375
16840,8.317456,0.143652,-3.663129,9.094238,22.003174,-1.892090,40.613281
16880,8.978256,0.316035,-3.869030,12.237549,26.000977,-14.526367,40.636719
16920,9.730036,0.799663,-4.132392,12.481689,16.754150,-17.944336,40.617188
16960,11.281479,0.521936,-4.151546,27.923584,2.777100,-24.230957,40.625000
17000,12.435484,0.483629,-4.783615,20.965576,14.495850,-23.254395,40.632812
17040,11.683704,1.426944,-6.076484,-2.593994,18.798828,-6.774902,40.628906
17080,8.403648,0.162806,-6.852205,11.444092,-12.237549,3.997803,40.619141
17120,6.253655,-3.145981,-5.750873,8.544922,-26.489258,7.965088,40.632812
17160,8.231265,-3.423708,-4.592079,-5.798340,-26.031494,24.108887,40.621094
17200,9.342175,-0.215478,-5.104438,26.062012,-49.865723,19.012451,40.621094
17240,7.723695,0.373495,-4.453215,27.343750,-38.757324,23.132324,40.615234
17280,5.707777,-0.756568,-3.993528,9.643555,-38.085938,35.095215,40.615234
17320,6.430826,-1.565808,-3.864242,7.843018,-40.893555,28.350830,40.632812
17360,7.551312,-1.355118,-4.122815,4.943848,-15.533447,9.735107,40.621094
17400,7.747637,-1.168370,-3.888184,-7.690430,10.711670,-0.915527,40.613281
17440,8.283937,-1.120486,-3.993528,-14.770508,12.756348,1.251221,40.638672
17480,9.677363,-1.029507,-4.544195,-12.451172,-5.462646,17.181396,40.638672
17520,11.051635,-0.435745,-4.845864,-19.561768,0.976562,29.907227,40.619141
17560,11.166556,-1.417367,-4.290410,-57.250977,42.663574,30.822754,40.628906
17600,10.084377,-3.026271,-6.368577,-30.364990,32.043457,3.417969,40.621094
17640,9.212888,-2.767697,-7.603985,8.331299,6.439209,-14.190674,40.623047
17680,6.454768,-2.959233,-7.292738,-5.493164,-6.225586,-1.037598,40.648438
17720,5.693412,-1.489193,-7.350199,-35.858154,2.227783,-0.946045,40.625000
17760,7.450756,0.110133,-7.747637,-21.118164,7.019043,-11.718750,40.640625
17800,8.485051,-0.689530,-5.928043,-0.671387,1.525879,-25.543213,40.642578
17840,6.861782,-1.584962,-4.079720,-10.314941,17.425537,-26.489258,40.628906
17880,5.741296,-1.096544,-4.103662,-9.613037,26.153564,-28.564453,40.619141
17920,6.555324,-0.248997,-3.830723,-5.218506,32.043457,-20.843506,40.636719
17960,7.632715,1.010353,-3.500323,3.173828,-2.441406,-0.701904,40.632812
18000,8.293514,0.818817,-3.409343,6.958008,14.007568,5.004883,40.625000
18040,8.532935,0.392649,-3.854665,7.507324,13.916016,-1.251221,40.617188
18080,9.691729,0.507571,-3.979163,4.089355,15.625000,-10.131836,40.628906
18120,10.879252,0.694318,-4.137180,10.467529,12.420654,-16.906738,40.628906
18160,12.291832,0.383072,-4.539406,19.653320,1.098633,-24.566650,40.607422
18200,12.607866,1.575385,-5.214571,0.732422,21.240234,-19.439697,40.607422
18240,10.213664,1.575385,-6.042965,-5.432129,10.498047,4.974365,40.605469
18280,6.181829,-1.580173,-7.105990,4.028320,-30.426025,14.221191,40.644531
18320,6.947973,-3.883395,-5.295974,-11.718750,-25.695801,24.902344,40.632812
18360,8.858546,-1.403002,-4.826711,8.697510,-44.067383,19.775391,40.636719
18400,8.595184,0.181959,-4.759673,29.235840,-54.107666,26.672363,40.642578
18440,6.430826,-0.387861,-4.338294,19.012451,-49.835205,38.513184,40.638672
18480,6.071695,-1.163582,-4.046201,12.878418,-48.583984,31.494141,40.632812
18520,7.182605,-1.292869,-3.993528,10.070801,-30.151367,12.329102,40.644531
18560,7.613562,-1.110910,-3.801992,-4.394531,8.514404,2.105713,40.648438
18600,8.030152,-1.154005,-3.854665,-23.529053,24.536133,0.000000,40.640625
18640,9.466674,-1.312023,-4.544195,-30.914307,20.538330,10.803223,40.619141
18680,10.836157,-0.732626,-4.802769,-30.883789,24.810791,25.695801,40.615234
18720,10.486604,-2.164358,-5.257667,-40.618896,31.890869,25.756836,40.634766
18760,10.271125,-3.083732,-7.680599,-4.119873,10.772705,0.030518,40.644531
18800,8.762778,-2.758120,-7.699753,3.997803,7.965088,-6.500244,40.630859
18840,6.153099,-1.508347,-7.766790,-18.768311,-9.704590,2.685547,40.626953
18880,5.789180,0.277727,-8.092402,-30.395508,6.042480,-4.791260,40.628906
18920,7.546524,-0.383072,-7.254431,-19.775391,2.014160,-12.756348,40.638672
18960,8.317456,-1.417367,-4.702212,-10.925293,17.089844,-28.289795,40.625000
19000,6.689400,-1.067814,-4.027047,-9.643555,22.827148,-24.597168,40.623047
19040,5.827487,0.100556,-4.189853,-10.223389,20.690918,-17.456055,40.656250
19080,6.727707,1.082179,-4.036624,-6.286621,-0.915527,-8.697510,40.642578
19120,8.221688,0.775721,-3.797204,-2.380371,-2.624512,3.540039,40.640625
19160,8.513782,0.138864,-3.634398,-3.295898,25.115967,2.227783,40.644531
19200,8.312668,0.114922,-4.060566,5.035400,22.644043,-9.368896,40.658203
19240,9.356541,0.378284,-4.050989,3.784180,10.986328,-9.643555,40.644531
19280,10.893618,0.569820,-3.888184,11.962891,14.312744,-14.343262,40.658203
19320,11.798626,0.541090,-3.562572,13.488770,18.524170,-16.693115,40.648438
19360,12.066776,1.139640,-4.596867,2.960205,13.854980,-13.397217,40.644531
19400,11.166556,1.053449,-5.808333,4.028320,15.075684,-3.936768,40.650391
19440,6.880936,-0.090980,-6.775591,-8.331299,-21.118164,17.150879,40.648438
19480,6.382942,-1.944092,-6.876147,-4.913330,-35.858154,18.737793,40.638672
19520,9.600749,-1.991976,-4.386178,-5.218506,-10.711670,22.888184,40.650391
19560,8.710106,-0.124498,-4.879383,22.094727,-41.900635,23.437500,40.654297
19600,6.497863,-0.306458,-4.481946,7.019043,-43.029785,36.651611,40.646484
19640,6.282385,-0.732626,-4.041412,19.409180,-56.121826,37.567139,40.644531
19680,7.206547,-0.857124,-3.921702,21.667480,-46.813965,21.209717,40.666016
19720,7.412448,-1.206678,-3.859453,5.981445,-4.486084,6.042480,40.646484
19760,7.886500,-1.417367,-3.591303,-16.510010,22.399902,-0.885010,40.662109
19800,9.543288,-1.297657,-4.036624,-24.566650,26.977539,7.263184,40.638672
19840,10.697293,-0.641646,-4.620809,-25.268555,23.040771,18.737793,40.617188
19880,10.352529,-2.025495,-5.650316,-24.291992,15.380859,22.430420,40.671875
19920,10.821792,-2.327164,-7.527370,-1.190186,13.763428,-0.701904,40.640625
19960,8.676587,-2.552219,-7.862558,2.563477,9.155273,-10.101318,40.623047
20000,6.042965,-1.067814,-7.513005,-23.712158,-3.112793,4.058838,40.634766
20040,5.966351,0.885855,-7.469909,-29.815674,10.650635,-5.157471,40.664062
20080,7.891289,0.067038,-6.445191,-24.047852,12.207031,-13.610840,40.648438
20120,8.532935,-0.876278,-4.309563,-13.702393,18.524170,-20.965576,40.648438
20160,6.813898,-0.699107,-3.993528,-10.314941,18.127441,-16.479492,40.648438
20200,6.124368,-0.119710,-4.228160,-14.770508,25.268555,-11.840820,40.640625
20240,7.110779,0.895431,-3.854665,-2.838135,8.392334,-4.333496,40.648438
20280,8.355764,0.598550,-3.347094,6.042480,7.598877,6.286621,40.652344
20320,8.561666,0.569820,-3.050213,6.744385,17.822266,4.943848,40.648438
20360,8.183381,0.670376,-3.734955,11.840820,13.244629,-7.568359,40.654297
20400,9.471462,0.732626,-3.821146,12.939453,4.821777,-13.824463,40.654297
20440,11.329363,0.823605,-3.078943,30.639648,7.110596,-19.042969,40.656250
20480,12.291832,0.656011,-4.036624,29.418945,32.104492,-24.291992,40.666016
20520,11.027693,1.623269,-6.756437,-12.817383,31.188965,-6.286621,40.648438
20560,7.972692,0.124498,-7.450756,-8.514404,-8.666992,-0.305176,40.654297
20600,8.283937,-3.289633,-5.951985,-0.305176,-6.195068,7.537842,40.660156
20640,10.213664,-2.643199,-4.874595,-14.617920,6.134033,27.984619,40.638672
20680,9.591172,0.158017,-4.606444,-0.946045,-18.341064,34.881592,40.664062
20720,6.550536,0.416591,-4.347870,-4.699707,-20.141602,38.574219,40.652344
20760,5.339070,-1.015141,-3.672705,-11.047363,-29.205322,35.461426,40.634766
20800,6.737284,-1.853112,-3.390190,-11.016846,-18.646240,22.491455,40.644531
20840,7.824251,-1.570596,-3.438074,-7.202148,-9.033203,8.911133,40.644531
20880,8.044518,-1.048660,-3.165135,-19.866943,14.953613,0.610352,40.640625
20920,8.815451,-0.790087,-3.404555,-27.587891,10.101318,4.089355,40.652344
20960,10.146626,-0.474052,-3.466804,-32.989502,1.739502,16.143799,40.646484
21000,10.884041,-0.541090,-3.184288,-37.689209,11.169434,19.500732,40.656250
21040,10.955867,-0.430956,-2.810793,-58.013916,21.148682,15.533447,40.642578
21080,10.855310,-1.412579,-5.516241,-39.276123,9.216309,8.789062,40.640625
21120,9.878476,-3.265691,-6.828263,-4.089355,7.446289,3.540039,40.656250
21160,7.599196,-2.863465,-6.732495,-10.345459,-9.460449,9.979248,40.648438
21200,6.876147,-0.067038,-7.326257,-21.850586,-5.432129,-4.394531,40.642578
21240,8.116343,-0.028730,-6.909666,-9.887695,-4.577637,-13.671875,40.652344
21280,8.815451,-1.312023,-4.563348,5.065918,8.666992,-25.970459,40.648438
21320,6.900089,-1.077391,-3.840300,8.636475,12.298584,-27.465820,40.644531
21360,6.138733,-0.402226,-3.711013,8.148193,3.997803,-18.005371,40.648438
21400,7.254431,0.703895,-3.605668,6.622314,-7.995605,-10.162354,40.642578
21440,8.188169,0.660800,-3.471592,5.187988,-12.359619,0.732422,40.640625
21480,8.623915,-0.071826,-3.141193,7.720947,3.875732,5.950928,40.638672
21520,8.968679,-0.162806,-3.193865,9.521484,8.453369,0.854492,40.650391
21560,9.773131,0.134075,-3.840300,15.014648,12.390137,-8.361816,40.654297
21600,11.152191,0.205901,-3.222595,20.751953,13.885498,-14.587402,40.632812
21640,11.961432,-0.019154,-2.920926,29.693604,30.822754,-17.791748,40.642578
21680,11.951855,0.368707,-4.673482,8.697510,46.508789,-2.899170,40.630859
21720,9.495404,1.379060,-7.125144,-13.336182,-5.218506,5.645752,40.654297
21760,6.440403,-0.588974,-6.607996,-1.007080,-24.414062,3.112793,40.658203
21800,8.489840,-2.964022,-4.970363,-6.988525,-7.385254,17.669678,40.648438
21840,10.127473,-0.995988,-4.371812,-11.230469,-18.554688,30.578613,40.664062
21880,8.298303,0.311246,-4.271256,-3.845215,-21.667480,36.071777,40.650391
21920,5.837064,-0.229843,-3.888184,-11.718750,-29.235840,34.942627,40.632812
21960,6.052542,-1.465251,-3.390190,-10.284424,-35.156250,30.334473,40.654297
22000,7.819463,-1.738190,-3.404555,-6.652832,-22.338867,18.035889,40.658203
22040,8.590396,-1.398214,-3.361459,-7.385254,0.610352,3.295898,40.675781
22080,8.604761,-1.000776,-3.256114,-11.871338,11.810303,-2.410889,40.664062
22120,8.987833,-1.149217,-3.380613,-13.519287,5.493164,3.448486,40.650391
22160,9.993398,-1.043872,-3.514688,-14.465332,0.091553,13.763428,40.660156
22200,11.037270,-0.373495,-3.088520,-22.094727,7.873535,18.280029,40.658203
22240,11.271901,-0.545878,-3.050213,-36.590576,15.014648,14.831543,40.658203
22280,10.639832,-1.838747,-5.765238,-10.650635,-3.143311,4.150391,40.658203
22320,8.695741,-3.131616,-6.928820,17.639160,1.556396,0.061035,40.667969
22360,7.024588,-2.437297,-7.824251,-17.272949,-21.484375,16.387939,40.646484
22400,7.900866,-0.272939,-7.685388,-27.770996,18.920898,-15.014648,40.646484
22440,9.026140,-0.531513,-6.200983,-3.387451,21.209717,-37.963867,40.658203
22480,7.422025,-1.613692,-4.242526,-15.472412,19.592285,-26.519775,40.648438
22520,5.731719,-1.115698,-4.036624,-5.767822,14.434814,-22.521973,40.650391
22560,6.478710,-0.416591,-3.519476,-3.021240,14.984131,-19.439697,40.660156
22600,7.441179,0.373495,-3.251326,-4.241943,-7.415771,-5.523682,40.666016
22640,8.255207,0.402226,-2.930503,-1.983643,-1.037598,1.770020,40.662109
22680,8.753201,0.119710,-2.940080,1.281738,20.324707,-2.166748,40.675781
22720,9.437943,-0.124498,-3.773262,0.854492,10.162354,-7.751465,40.667969
22760,11.152191,0.000000,-3.624821,11.932373,2.197266,-16.296387,40.662109
22800,12.454638,0.062249,-3.835511,29.632568,13.763428,-32.653809,40.685547
22840,11.631032,0.948104,-4.850653,12.084961,32.287598,-19.927979,40.662109
22880,9.078813,0.641646,-6.181829,2.960205,10.162354,-2.990723,40.664062
22920,7.029376,-2.442086,-6.746861,9.887695,-25.268555,-3.814697,40.677734
22960,8.887277,-3.088520,-5.238513,-1.159668,-21.881104,16.052246,40.662109
23000,10.103531,-0.114922,-4.702212,18.310547,-38.391113,20.904541,40.662109
23040,8.508993,0.641646,-4.333505,16.784668,-35.675049,31.219482,40.664062
23080,6.186617,-0.368707,-3.758897,0.518799,-35.400391,35.644531,40.673828
23120,5.899313,-1.173159,-3.433285,-9.796143,-31.982422,26.031494,40.669922
23160,7.062895,-0.794875,-3.509900,-18.005371,-7.843018,15.167236,40.666016
23200,7.948750,-0.675165,-3.122039,-34.362793,21.484375,5.187988,40.648438
23240,8.408437,-0.814029,-3.356671,-40.344238,23.040771,1.556396,40.664062
23280,9.337387,-0.799663,-3.873818,-38.970947,8.880615,7.385254,40.660156
23320,10.400413,-1.106121,-3.380613,-42.327881,25.177002,19.165039,40.660156
23360,10.735600,-1.278504,-2.633622,-60.363770,40.435791,15.289307,40.695312
23400,11.003751,-1.115698,-4.529830,-49.804688,25.421143,4.730225,40.664062
23440,11.032481,-1.795651,-6.651093,-9.460449,19.653320,8.209229,40.648438
23480,8.379706,-1.781286,-6.335058,-11.444092,9.063721,18.768311,40.673828
23520,6.947973,0.660800,-6.876147,-28.320312,3.143311,1.647949,40.664062
23560,8.054094,1.661576,-6.981492,-16.845703,-4.638672,-7.202148,40.652344
23600,8.667010,-0.632069,-5.655105,-4.791260,-3.540039,-20.233154,40.667969
23640,8.236053,-1.326388,-4.237737,3.387451,-2.044678,-17.272949,40.673828
23680,7.508216,-0.430956,-3.586514,11.657715,-6.805420,-14.587402,40.669922
23720,7.383718,0.114922,-3.198653,14.129639,0.762939,-13.397217,40.666016
23760,7.278373,0.392649,-3.270479,16.723633,-1.708984,-7.110596,40.677734
23800,7.920019,0.296881,-2.853889,16.784668,-3.631592,-0.610352,40.658203
23840,8.848969,0.210690,-2.552219,16.815186,11.596680,3.265381,40.671875
23880,8.896853,0.871489,-3.744531,11.718750,8.178711,-4.028320,40.650391
23920,9.749189,0.670376,-3.399766,15.411377,0.640869,-10.894775,40.683594
23960,11.089942,0.129287,-1.953669,30.609131,23.101807,-20.294189,40.658203
24000,11.372458,0.651223,-3.289633,30.517578,40.771484,-19.317627,40.660156
24040,10.678140,1.915361,-6.426037,-4.119873,5.981445,-15.533447,40.648438
24080,8.010999,0.751779,-6.469133,1.129150,-22.796631,-4.058838,40.675781
24120,8.738836,-2.743755,-6.119579,-11.138916,-15.777588,9.216309,40.677734
24160,11.463438,-0.751779,-5.099649,-8.483887,-20.416260,28.320312,40.679688
24200,9.619903,1.565808,-4.850653,-3.234863,-41.320801,47.637939,40.687500
24240,6.660669,0.723049,-4.132392,-19.744873,-40.924072,54.412842,40.671875
24280,5.899313,-0.708684,-3.509900,-26.336670,-39.184570,39.520264,40.677734
24320,6.947973,-0.727837,-3.337517,-25.146484,-16.632080,25.512695,40.667969
24360,7.920019,-0.842759,-3.131616,-38.696289,13.702393,13.916016,40.681641
24400,8.916007,-0.579397,-3.155558,-39.306641,20.782471,8.544922,40.681641
24440,9.634268,-0.138864,-3.682282,-41.076660,10.101318,16.143799,40.675781
24480,9.907207,-0.545878,-3.672705,-46.264648,26.306152,25.604248,40.671875
24520,10.237606,-0.933739,-2.734178,-59.967041,48.461914,20.965576,40.669922
24560,10.529699,-0.718261,-3.768473,-57.220459,36.224365,3.875732,40.673828
24600,10.702082,-0.924162,-6.598420,-16.967773,9.704590,14.495850,40.664062
24640,8.312668,-0.766145,-6.172252,-29.541016,10.559082,27.160645,40.650391
24680,7.158663,1.283292,-6.957550,-49.316406,-6.530762,14.343262,40.654297
24720,8.595184,1.460463,-6.962338,-33.294678,-5.676270,0.885010,40.667969
24760,9.251195,-0.521936,-5.070919,-27.832031,3.112793,-5.737305,40.671875
24800,7.958326,-0.263362,-4.017470,-28.472900,-2.532959,0.183105,40.681641
24840,6.876147,0.105345,-3.404555,-26.306152,-9.948730,6.195068,40.667969
24880,6.895301,0.373495,-2.997540,-22.583008,-7.934570,7.934570,40.669922
24920,7.556100,0.579397,-2.901772,-16.845703,-9.796143,16.357422,40.667969
24960,8.303091,0.699107,-2.647987,-13.580322,-1.098633,16.021729,40.671875
25000,8.925584,0.579397,-3.213019,-8.453369,13.458252,7.507324,40.664062
25040,9.859323,0.780510,-3.371036,-7.415771,12.817383,-0.488281,40.660156
25080,10.457873,1.249773,-3.596091,4.608154,6.164551,-12.359619,40.662109
25120,11.391612,0.507571,-5.602432,2.349854,28.228760,-17.211914,40.683594
25160,10.050858,-0.512359,-6.909666,4.669189,12.329102,-10.467529,40.687500
25200,9.136273,-3.572149,-5.688623,-5.462646,-2.014160,11.383057,40.675781
25240,10.079589,-2.643199,-5.406107,-1.861572,-17.059326,18.341064,40.671875
25280,9.950302,0.172383,-4.960786,-1.190186,-27.038574,29.479980,40.664062
25320,7.876924,0.234632,-3.878607,1.495361,-23.651123,33.111572,40.675781
25360,5.966351,-1.048660,-3.562572,-6.927490,-29.174805,27.008057,40.671875
25400,6.057330,-1.441309,-3.256114,-11.352539,-24.871826,17.791748,40.673828
25440,7.340622,-1.216254,-2.944868,-18.127441,-8.178711,7.324219,40.677734
25480,8.676587,-0.876278,-2.652776,-21.118164,16.113281,-6.622314,40.677734
25520,9.576807,-1.010353,-2.997540,-23.925781,8.941650,-2.532959,40.677734
25560,10.175357,-0.861913,-3.217807,-35.949707,9.887695,9.918213,40.677734
25600,10.682928,-0.785298,-2.849100,-34.484863,16.662598,9.368896,40.658203
25640,11.276690,-1.810017,-4.328717,-30.761719,7.507324,7.629395,40.701172
25680,11.745954,-2.351106,-7.182605,12.695312,0.793457,18.280029,40.662109
25720,8.418014,-1.029507,-7.599196,-6.408691,-1.434326,5.340576,40.658203
25760,7.153875,1.273715,-8.647857,-30.334473,-0.183105,-1.770020,40.662109
25800,7.848193,0.148441,-6.914454,-27.648926,13.732910,-15.045166,40.681641
25840,8.097190,-1.345541,-4.769250,-13.244629,3.051758,-23.376465,40.658203
25880,6.823475,-0.933739,-3.849876,-15.808105,4.699707,-15.106201,40.707031
25920,6.756437,0.124498,-3.442862,-7.476807,0.274658,-11.047363,40.671875
25960,7.220912,0.378284,-3.380613,-5.767822,-3.417969,-5.065918,40.666016
26000,8.034941,0.047884,-3.280056,-8.331299,2.349854,4.150391,40.687500
26040,9.045294,0.478840,-3.117251,-0.671387,17.028809,0.793457,40.697266
26080,9.701305,0.656011,-3.763685,3.051758,10.101318,-7.537842,40.677734
26120,11.324574,0.445322,-3.294421,-2.349854,11.688232,-5.920410,40.677734
26160,11.884817,0.378284,-3.318364,14.282227,20.568848,-12.145996,40.677734
26200,12.081141,0.478840,-5.051765,12.847900,36.315918,-11.810303,40.701172
26240,9.686940,1.211466,-6.660669,0.335693,8.880615,-1.220703,40.693359
26280,6.229713,-0.809240,-6.842628,1.647949,-24.230957,4.699707,40.669922
26320,8.044518,-2.504335,-5.415684,-8.453369,-8.575439,17.028809,40.685547
26360,9.385271,-0.565032,-5.046977,-9.307861,-26.672363,30.975342,40.667969
26400,8.288726,0.646434,-4.778827,-1.190186,-46.295166,37.689209,40.679688
26440,6.593631,-0.263362,-3.912126,-10.650635,-34.301758,36.895752,40.669922
26480,6.584054,-1.067814,-3.883395,-10.223389,-31.890869,29.571533,40.677734
26520,7.503428,-1.345541,-4.031836,-5.889893,-20.904541,21.148682,40.667969
26560,8.034941,-1.201889,-3.806781,-11.749268,-1.525879,9.094238,40.671875
26600,8.231265,-0.684742,-3.883395,-14.312744,4.425049,2.868652,40.667969
26640,8.384495,-0.885855,-4.314352,-10.314941,-7.080078,4.852295,40.664062
26680,9.370906,-1.388637,-4.424485,-7.354736,-16.601562,13.671875,40.648438
26720,10.409989,-1.154005,-4.122815,-14.495850,0.213623,13.946533,40.681641
26760,10.687716,-1.350330,-3.897760,-31.860352,20.843506,8.911133,40.685547
26800,10.702082,-2.121263,-4.869806,-26.000977,18.493652,9.552002,40.683594
26840,10.165780,-1.872266,-5.659893,-2.532959,23.681641,-4.089355,40.675781
26880,7.900866,-2.375048,-6.880936,12.481689,-4.943848,-6.317139,40.693359
26920,6.014235,-0.478840,-7.589619,-6.927490,-5.706787,-8.697510,40.705078
26960,6.703765,0.746991,-7.632715,-7.110596,-4.364014,-10.681152,40.681641
27000,8.389283,-0.253785,-6.014235,-3.356934,-5.554199,-20.233154,40.681641
27040,8.049306,-0.828394,-4.400543,-1.251221,-1.892090,-22.674561,40.708984
27080,6.564901,-0.282516,-4.141969,-6.774902,-4.058838,-15.380859,40.664062
27120,6.627151,0.445322,-4.132392,-10.223389,-0.366211,-12.207031,40.681641
27160,7.575254,0.656011,-3.912126,-6.652832,-6.744385,-3.936768,40.689453
27200,8.298303,0.301669,-3.591303,-6.286621,10.559082,1.464844,40.673828
27240,8.422802,0.430956,-3.706224,-2.502441,23.864746,-5.432129,40.689453
27280,9.059659,0.703895,-4.266468,0.030518,4.425049,-9.979248,40.701172
27320,10.524911,0.905008,-4.089296,-7.965088,10.192871,-9.643555,40.701172
27360,11.707646,0.507571,-3.586514,2.990723,27.343750,-11.352539,40.697266
27400,11.429919,0.699107,-3.337517,3.845215,41.229248,-8.056641,40.707031
27440,10.903194,0.742203,-5.511452,1.831055,35.583496,1.373291,40.689453
27480,8.192958,0.852336,-7.393295,3.417969,-34.393311,7.415771,40.693359
27520,5.559336,-0.632069,-6.459556,2.746582,-40.985107,10.711670,40.677734
27560,8.743625,-2.997540,-5.310339,-6.103516,-3.570557,15.686035,40.697266
27600,10.390836,-1.350330,-5.133168,-7.690430,-11.566162,31.707764,40.687500
27640,7.517793,0.517148,-5.444415,7.904053,-51.116943,36.712646,40.685547
27680,5.726931,0.009577,-4.405331,-0.061035,-48.431396,36.071777,40.669922
27720,6.205771,-1.149217,-4.036624,-8.911133,-24.810791,27.130127,40.685547
27760,7.139510,-1.537078,-3.974375,-11.901855,-5.187988,14.526367,40.701172
27800,7.685388,-1.403002,-3.773262,-23.742676,13.824463,1.495361,40.697266
27840,8.585608,-1.125275,-3.993528,-22.888184,15.533447,-0.976562,40.695312
27880,9.753978,-1.091756,-4.572925,-15.502930,6.042480,2.380371,40.685547
27920,10.826580,-1.537078,-4.194642,-17.608643,20.233154,12.237549,40.699219
27960,10.716447,-1.699883,-3.390190,-35.491943,50.811768,4.638672,40.685547
28000,10.184934,-1.532289,-4.984728,-38.452148,42.938232,-6.805420,40.673828
28040,9.442732,-1.450886,-7.383718,13.702393,10.986328,-9.185791,40.691406
28080,7.297527,-1.393425,-7.149086,7.415771,-14.801025,4.669189,40.691406
28120,7.120356,1.216254,-7.498640,-13.244629,-0.305176,-6.988525,40.689453
28160,8.571242,1.288081,-6.473921,-1.312256,7.812500,-17.211914,40.697266
28200,8.465898,-0.512359,-4.879383,19.866943,-2.655029,-26.123047,40.685547
28240,6.684611,-1.010353,-4.103662,13.153076,-2.014160,-23.162842,40.691406
28280,6.253655,-0.086191,-3.687071,8.483887,8.758545,-18.585205,40.681641
28320,7.129933,1.005565,-3.548207,3.967285,-3.906250,-9.429932,40.697266
28360,8.164227,1.039083,-3.375824,4.547119,4.272461,0.427246,40.701172
28400,8.829816,0.665588,-3.289633,9.124756,21.514893,-0.610352,40.697266
28440,9.279925,0.526724,-3.701436,10.284424,7.934570,-5.981445,40.689453
28480,10.563218,0.507571,-3.806781,8.361816,7.080078,-8.514404,40.685547
28520,12.057199,0.641646,-3.495534,17.852783,9.552002,-15.289307,40.705078
28560,12.607866,0.770933,-4.390966,21.087646,25.238037,-20.599365,40.730469
28600,10.515334,1.618480,-5.875371,3.601074,24.444580,-5.126953,40.673828
28640,6.655881,0.493206,-7.465121,0.030518,-19.317627,2.777100,40.697266
28680,7.077260,-2.106898,-6.598420,-12.390137,-18.341064,8.056641,40.707031
28720,8.829816,-1.254562,-5.597643,-8.880615,-26.123047,21.820068,40.687500
28760,8.461109,0.038307,-5.190629,15.075684,-43.395996,24.261475,40.691406
28800,7.110779,-0.675165,-4.127604,8.331299,-27.679443,22.949219,40.691406
28840,6.607996,-1.192312,-4.175488,-3.265381,-27.648926,18.463135,40.701172
28880,7.412448,-0.608127,-4.261679,-0.579834,-20.263672,18.432617,40.714844
28920,7.637504,-0.320823,-3.864242,-14.251709,1.922607,12.237549,40.687500
28960,7.943961,-0.469264,-3.591303,-25.390625,12.603760,7.446289,40.703125
29000,8.451532,-0.617704,-3.979163,-26.336670,2.288818,9.460449,40.697266
29040,9.524135,-0.660800,-4.328717,-21.270752,-4.699707,15.869141,40.681641
29080,10.544065,-1.086968,-3.792415,-26.763916,9.582520,22.796631,40.697266
29120,10.673351,-1.824382,-3.854665,-40.771484,33.508301,13.885498,40.701172
29160,10.888829,-1.666364,-6.239290,-19.378662,14.770508,5.950928,40.718750
29200,9.821015,-1.666364,-7.034164,6.378174,11.993408,2.288818,40.683594
29240,7.264008,-0.804452,-7.134721,-6.744385,-9.918213,4.547119,40.710938
29280,6.200983,1.383849,-7.580042,-14.770508,-5.065918,-4.425049,40.689453
29320,7.374141,0.588974,-6.607996,-3.417969,-3.967285,-8.789062,40.687500
29360,8.092402,-0.660800,-5.339070,-1.770020,-7.049561,-17.822266,40.697266
29400,7.082048,-0.397437,-4.577713,-5.126953,-1.831055,-13.793945,40.710938
29440,6.708553,0.335188,-4.443638,-8.148193,9.216309,-7.110596,40.701172
29480,7.187394,0.689530,-4.438850,-10.040283,9.094238,-2.288818,40.714844
29520,7.776367,0.646434,-4.333505,-6.164551,3.662109,2.319336,40.685547
29560,8.499416,0.062249,-3.806781,0.640869,20.690918,3.143311,40.697266
29600,8.858546,0.277727,-3.950433,2.105713,12.664795,-0.823975,40.687500
29640,9.045294,0.814029,-4.481946,-1.220703,10.864258,-1.434326,40.689453
29680,10.319010,0.684742,-3.969586,2.471924,12.817383,-2.624512,40.697266
29720,11.070788,0.196325,-3.404555,5.767822,28.198242,-6.683350,40.697266
29760,11.018116,0.263362,-4.309563,-4.119873,27.862549,0.579834,40.693359
29800,10.357317,1.216254,-5.894525,-12.329102,9.185791,7.843018,40.707031
29840,7.809886,0.952892,-6.449979,-3.173828,-20.202637,14.587402,40.707031
29880,6.100426,-1.527501,-5.592855,-11.413574,-10.162354,15.014648,40.701172
29920,8.346188,-2.140416,-5.310339,-13.488770,-20.324707,20.965576,40.685547
29960,9.629479,-0.957681,-4.946421,-1.708984,-21.514893,26.031494,40.691406
30000,8.336611,-0.373495,-4.654328,0.183105,-20.141602,28.472900,40.691406
30040,6.914454,-0.622492,-4.299986,-0.610352,-27.313232,26.763916,40.683594
30080,6.995857,-1.149217,-4.127604,-2.319336,-24.719238,21.911621,40.716797
30120,7.852982,-1.489193,-4.012682,-3.082275,-12.512207,10.742188,40.734375
30160,8.288726,-1.393425,-3.969586,-3.173828,-2.655029,0.732422,40.699219
30200,8.398860,-1.034295,-3.845088,-2.380371,1.770020,-5.249023,40.689453
30240,8.580819,-1.173159,-3.797204,0.823975,-1.892090,-5.554199,40.708984
30280,9.179369,-1.460463,-4.055778,3.997803,-8.544922,2.288818,40.707031
30320,10.007763,-1.374272,-3.921702,1.647949,0.579834,5.126953,40.703125
30360,10.472239,-1.436521,-3.524265,-14.190674,21.362305,4.791260,40.720703
30400,10.620679,-1.671153,-3.375824,-26.885986,41.809082,-2.136230,40.710938
30440,10.362105,-1.905785,-5.535394,0.213623,14.373779,-11.413574,40.703125
30480,9.548077,-1.872266,-6.263232,32.348633,1.281738,-11.535645,40.724609
30520,7.072472,-1.537078,-6.593631,11.535645,-16.479492,-9.826660,40.695312
30560,6.584054,0.699107,-7.048530,-22.674561,8.605957,-16.723633,40.714844
30600,8.183381,1.201889,-6.560112,1.159668,0.793457,-15.716553,40.707031
30640,8.738836,-0.402226,-5.104438,7.476807,-6.866455,-20.477295,40.705078
30680,7.187394,-0.584185,-4.031836,-3.967285,-0.183105,-13.549805,40.705078
30720,6.330269,-0.210690,-3.849876,-5.187988,1.525879,-10.498047,40.685547
30760,7.144298,0.191536,-3.543418,-3.387451,-2.929688,-4.882812,40.710938
30800,8.121132,0.541090,-3.366248,-2.441406,7.263184,3.143311,40.695312
30840,8.652645,0.478840,-3.064578,2.044678,21.942139,3.570557,40.707031
30880,8.834604,0.225055,-3.629610,6.225586,6.072998,-1.983643,40.691406
30920,9.797073,0.450110,-4.122815,3.143311,2.960205,-6.164551,40.699219
30960,11.559206,0.445322,-3.524265,13.244629,6.805420,-17.364502,40.708984
31000,12.325351,-0.363919,-3.677494,26.733398,16.510010,-22.369385,40.720703
31040,11.358093,0.363919,-5.013458,15.106201,32.165527,-5.676270,40.705078
31080,9.035717,0.837971,-6.742072,14.068604,-15.716553,5.706787,40.695312
31120,6.229713,-1.316811,-6.598420,20.721436,-34.179688,-2.777100,40.710938
31160,8.264784,-2.973598,-5.224148,10.406494,-6.744385,9.216309,40.703125
31200,9.720459,-1.225831,-4.797980,17.578125,-26.672363,15.563965,40.697266
31240,8.092402,0.215478,-4.405331,16.357422,-21.606445,21.636963,40.703125
31280,5.750873,-0.110133,-4.137180,-0.976562,-20.355225,25.451660,40.707031
31320,5.971139,-1.154005,-3.687071,-6.591797,-22.521973,18.585205,40.716797
31360,7.388506,-1.225831,-3.711013,0.793457,-23.254395,10.772705,40.718750
31400,8.125920,-1.005565,-3.495534,-10.284424,1.037598,2.319336,40.716797
31440,8.604761,-0.866701,-3.299210,-20.751953,11.566162,0.579834,40.697266
31480,9.356541,-0.723049,-4.065354,-30.456543,7.873535,3.112793,40.724609
31520,11.195287,-1.010353,-4.108450,-20.507812,6.958008,18.463135,40.714844
31560,11.798626,-2.202666,-4.797980,-13.000488,-15.380859,24.810791,40.687500
31600,11.664551,-2.762909,-6.200983,15.625000,-1.281738,0.915527,40.710938
31640,8.461109,-2.949656,-6.809110,6.195068,17.059326,-18.524170,40.732422
31680,6.339846,-0.972046,-7.876924,-5.096436,-21.362305,-5.859375,40.714844
31720,6.411672,0.344765,-7.848193,-18.218994,5.645752,-10.772705,40.699219
31760,7.838616,-0.220267,-6.392519,-13.092041,10.375977,-19.256592,40.720703
31800,7.867347,-0.794875,-4.438850,3.631592,8.728027,-26.336670,40.693359
31840,6.028600,-0.737414,-4.170700,-0.305176,5.432129,-23.834229,40.701172
31880,5.913678,-0.344765,-3.869030,-7.781982,18.432617,-21.026611,40.699219
31920,7.129933,0.579397,-3.629610,-1.617432,18.249512,-11.444092,40.691406
31960,8.097190,0.694318,-3.069367,8.666992,19.622803,-2.716064,40.707031
32000,8.504205,0.746991,-3.562572,10.467529,14.648438,-5.432129,40.689453
32040,9.950302,0.818817,-4.118027,7.202148,1.770020,-10.955811,40.689453
32080,11.908759,0.809240,-3.529053,17.333984,5.523682,-16.876221,40.697266
32120,12.708423,0.464475,-3.955221,31.433105,22.003174,-27.740479,40.712891
32160,11.372458,1.005565,-5.688623,17.608643,40.740967,-15.899658,40.705078
32200,8.025364,0.598550,-7.225701,16.235352,-6.256104,5.859375,40.695312
32240,6.967127,-2.432509,-7.264008,16.235352,-30.090332,-5.004883,40.705078
32280,9.428367,-2.892196,-5.228937,6.896973,-5.340576,15.502930,40.695312
32320,9.366117,-0.090980,-4.984728,24.780273,-42.175293,22.033691,40.697266
32360,7.043741,0.588974,-4.352659,19.836426,-39.794922,30.548096,40.705078
32400,5.094861,-0.565032,-3.629610,3.753662,-23.162842,26.824951,40.710938
32440,5.913678,-1.321599,-3.380613,2.899170,-26.916504,19.134521,40.710938
32480,7.513005,-0.976834,-3.409343,2.471924,-7.812500,6.439209,40.691406
32520,8.398860,-0.814029,-3.179500,-8.300781,11.718750,-1.708984,40.718750
32560,9.174581,-0.861913,-3.816358,-16.754150,9.460449,0.305176,40.701172
32600,10.884041,-0.497994,-4.501099,-13.580322,-1.342773,15.472412,40.726562
32640,11.975797,-0.110133,-3.538630,-35.064697,15.197754,32.012939,40.718750
32680,11.037270,-0.794875,-4.185065,-53.771973,35.308838,12.847900,40.722656
32720,9.174581,-2.015918,-7.508216,2.410889,6.011963,-6.835938,40.695312
32760,7.503428,-2.600103,-7.522582,-3.356934,-13.946533,15.228271,40.701172
32800,6.885724,-0.861913,-7.762002,-40.191650,-2.563477,10.833740,40.732422
32840,8.317456,0.588974,-7.603985,-35.949707,24.169922,-11.566162,40.710938
32880,8.882488,-0.474052,-5.990293,-1.098633,3.540039,-20.416260,40.697266
32920,6.536170,-1.589750,-4.343082,-21.087646,15.380859,-19.958496,40.722656
32960,5.353435,-0.828394,-3.883395,-14.404297,15.258789,-16.754150,40.701172
33000,6.229713,-0.215478,-3.184288,-7.171631,25.848389,-16.540527,40.712891
33040,7.484274,0.775721,-2.738967,2.868652,3.509521,-0.274658,40.724609
33080,8.221688,0.981623,-2.782062,6.347656,9.460449,5.218506,40.718750
33120,9.088389,0.603339,-3.677494,6.225586,5.065918,-0.976562,40.718750
33160,10.802638,0.756568,-3.821146,9.216309,0.549316,-13.061523,40.724609
33200,12.066776,0.699107,-2.839523,26.306152,3.112793,-23.681641,40.697266
33240,11.985373,0.627281,-3.500323,31.951904,37.078857,-24.627686,40.724609
33280,10.314221,1.005565,-6.464345,5.035400,29.296875,-5.187988,40.714844
33320,7.536947,0.186748,-7.292738,18.249512,-32.226562,-0.579834,40.705078
33360,7.881712,-2.964022,-6.162675,19.531250,-30.609131,-1.342773,40.701172
33400,10.591949,-2.547431,-5.051765,17.333984,-11.474609,18.554688,40.712891
33440,10.007763,0.210690,-4.836287,39.093018,-44.036865,23.651123,40.714844
33480,6.315904,0.172383,-4.424485,17.059326,-21.484375,27.709961,40.695312
33520,4.888960,-0.866701,-3.452439,2.044678,-19.439697,24.963379,40.701172
33560,5.995081,-1.154005,-3.141193,-3.845215,-15.289307,14.190674,40.716797
33600,7.594408,-0.885855,-2.973598,-8.026123,0.732422,3.875732,40.712891
33640,8.628703,-0.794875,-3.040636,-23.437500,13.061523,2.624512,40.708984
33680,10.031705,-0.153229,-4.027047,-26.916504,5.401611,5.035400,40.714844
33720,11.899182,-0.608127,-3.782839,-23.284912,3.723145,24.108887,40.714844
33760,11.654974,-1.197101,-3.452439,-39.581299,12.634277,30.395508,40.705078
33800,10.477027,-1.862689,-6.282385,3.631592,-0.976562,-0.122070,40.726562
33840,8.389283,-2.992752,-6.933608,10.162354,3.112793,4.180908,40.708984
33880,7.082048,-1.201889,-8.020576,-8.880615,-25.421143,13.336182,40.720703
33920,7.781156,0.402226,-8.485051,-23.498535,10.894775,-9.552002,40.714844
33960,8.710106,-0.656011,-6.382942,-14.801025,14.404297,-24.719238,40.695312
34000,7.388506,-1.508347,-4.137180,-7.843018,17.791748,-25.756836,40.718750
34040,5.339070,-0.919373,-3.830723,-10.070801,8.575439,-17.242432,40.722656
34080,5.942409,-0.129287,-3.495534,-10.162354,15.960693,-13.885498,40.714844
34120,7.302315,0.646434,-3.366248,1.373291,5.065918,-3.173828,40.716797
34160,8.212111,0.780510,-2.992752,4.089355,8.087158,5.798340,40.703125
34200,8.853758,0.694318,-3.610456,6.866455,10.009766,-1.983643,40.720703
34240,10.175357,0.995988,-4.098873,2.105713,6.988525,-12.451172,40.699219
34280,11.621455,1.000776,-3.222595,13.854980,3.509521,-23.040771,40.716797
34320,12.081141,0.766145,-3.294421,24.475098,29.266357,-29.632568,40.714844
34360,11.291056,0.742203,-5.549759,9.460449,48.583984,-15.716553,40.742188
34400,8.480263,0.062249,-7.153875,-1.159668,-7.385254,-5.462646,40.730469
34440,7.297527,-2.130840,-6.593631,18.554688,-26.611328,-10.894775,40.714844
34480,9.911995,-3.083732,-5.147533,5.187988,-4.760742,11.291504,40.746094
34520,10.060435,-0.507571,-4.841076,11.138916,-26.458740,22.033691,40.714844
34560,7.637504,0.521936,-4.299986,12.817383,-29.113770,27.648926,40.724609
34600,5.367800,-0.430956,-3.438074,-3.234863,-20.385742,25.177002,40.736328
34640,5.621585,-0.842759,-3.184288,-11.535645,-24.597168,22.064209,40.734375
34680,7.077260,-0.746991,-3.265691,-8.911133,-14.862061,11.688232,40.724609
34720,8.327033,-0.660800,-2.767697,-21.697998,13.580322,2.136230,40.726562
34760,9.265560,-0.268151,-3.318364,-31.402588,12.725830,1.739502,40.708984
34800,10.788273,-0.225055,-3.931279,-27.343750,-0.701904,14.282227,40.716797
34840,11.994950,-0.397437,-2.973598,-37.109375,13.885498,30.639648,40.708984
34880,11.554418,-0.723049,-4.271256,-45.196533,12.207031,19.836426,40.716797
34920,10.108319,-1.934515,-6.981492,7.751465,-1.312256,0.549316,40.720703
34960,7.800309,-2.470816,-6.775591,-9.704590,-3.448486,17.089844,40.699219
35000,7.134721,-0.368707,-7.915231,-27.130127,-9.490967,9.246826,40.716797
35040,8.408437,0.100556,-7.273585,-18.310547,16.601562,-16.082764,40.687500
35080,8.944737,-0.881066,-5.046977,1.922607,9.796143,-27.160645,40.724609
35120,6.718130,-1.182736,-3.816358,-7.476807,19.653320,-19.348145,40.720703
35160,5.592855,-0.114922,-3.773262,-4.882812,2.929688,-12.725830,40.703125
35200,6.742072,0.579397,-3.145981,-0.610352,6.561279,-8.697510,40.691406
35240,7.757214,0.694318,-3.021482,4.089355,-1.770020,4.913330,40.722656
35280,8.231265,0.426168,-3.208230,9.094238,7.690430,2.227783,40.712891
35320,9.476251,0.167594,-3.687071,5.981445,5.126953,-4.791260,40.710938
35360,10.912771,0.287304,-3.869030,17.608643,-2.136230,-13.153076,40.718750
35400,11.822568,0.421380,-2.877831,39.642334,7.171631,-28.106689,40.722656
35440,11.568783,0.201113,-3.524265,39.672852,40.374756,-23.193359,40.699219
35480,9.093178,0.651223,-6.430826,17.456055,13.305664,-7.446289,40.720703
35520,6.813898,-0.675165,-7.354988,26.977539,-43.823242,-6.256104,40.716797
35560,9.117120,-2.796427,-6.382942,21.514893,-37.231445,5.584717,40.705078
35600,11.683704,-0.488417,-5.157111,34.332275,-34.362793,19.958496,40.712891
35640,9.198523,0.474052,-4.673482,34.484863,-27.069092,31.250000,40.730469
35680,5.219360,-0.976834,-4.180276,16.235352,-22.949219,30.761719,40.722656
35720,5.066131,-1.604115,-3.193865,-3.387451,-17.120361,21.057129,40.728516
35760,6.564901,-0.861913,-3.366248,-4.791260,-9.735107,9.155273,40.701172
35800,7.862558,-0.871489,-2.940080,-7.324219,18.035889,-1.464844,40.728516
35840,8.877700,-0.842759,-3.323152,-14.312744,12.542725,-0.152588,40.728516
35880,10.606314,-0.205901,-4.180276,-7.537842,4.119873,-2.441406,40.724609
35920,11.851298,-0.177171,-3.452439,-32.135010,30.242920,14.495850,40.716797
35960,11.066000,-0.713472,-4.151546,-23.376465,23.498535,5.737305,40.740234
36000,8.647857,-2.135628,-7.445967,20.568848,-26.153564,-5.737305,40.720703
36040,6.770802,-2.738967,-6.689400,-8.117676,-26.428223,22.338867,40.710938
36080,7.852982,-1.134852,-7.613562,-11.505127,-19.439697,10.162354,40.691406
36120,9.864111,-0.991199,-7.077260,13.366699,-2.044678,-28.778076,40.726562
36160,8.537724,-2.240973,-4.946421,19.592285,-0.122070,-28.350830,40.730469
36200,5.784391,-1.599327,-3.916914,15.625000,2.746582,-17.028809,40.716797
36240,5.085284,-0.306458,-3.797204,20.385742,-10.223389,-5.584717,40.738281
36280,5.894525,0.043096,-3.864242,22.491455,-18.402100,9.338379,40.714844
36320,8.015787,0.306458,-3.193865,20.568848,6.561279,11.596680,40.691406
36360,9.859323,0.248997,-3.706224,15.808105,17.364502,-2.136230,40.695312
36400,10.266336,-0.426168,-4.285621,15.930176,4.791260,-17.242432,40.716797
36440,10.170568,-0.761356,-5.693412,41.046143,-9.185791,-29.693604,40.693359
36480,10.524911,-1.857901,-7.982268,44.555664,9.246826,-13.122559,40.726562
36520,7.450756,-4.065354,-8.906430,21.392822,-27.252197,6.500244,40.722656
36560,9.500193,-5.018247,-7.987057,40.771484,-108.337402,42.541504,40.710938
36600,10.654198,-1.355118,-8.006210,64.514160,-102.905273,24.627686,40.707031
36640,7.177817,-1.345541,-6.143522,53.649902,-128.662109,23.468018,40.714844
36680,6.584054,-2.619257,-5.698200,59.661865,-165.710449,37.048340,40.726562
36720,5.664681,-2.863465,-7.058106,29.388428,-160.461426,5.249023,40.701172
36760,3.998317,-3.117251,-6.148310,-6.164551,-183.105469,-4.669189,40.712891
36800,3.835511,-2.657564,-5.966351,-9.643555,-119.201660,-4.211426,40.697266
36840,4.146757,-2.245761,-6.406884,-6.072998,-24.780273,7.049561,40.726562
36880,4.036624,-1.695095,-6.344635,-7.202148,40.985107,7.965088,40.736328
36920,4.141969,-1.546654,-6.531382,-11.474609,118.408203,9.918213,40.710938
36960,4.376601,-1.527501,-6.023811,-29.632568,139.221191,26.702881,40.710938
37000,5.961562,-1.091756,-6.215348,-49.163818,120.544434,42.724609,40.714844
37040,7.948750,-0.857124,-6.564901,-68.511963,129.882812,46.203613,40.728516
37080,9.289502,-1.441309,-6.856994,-52.276611,108.917236,45.501709,40.718750
37120,9.093178,-3.150769,-8.197746,4.974365,-28.503418,20.019531,40.705078
37160,10.323798,-5.870583,-12.090718,97.381592,-205.108643,25.665283,40.716797
37200,5.094861,-6.143522,-8.834604,4.180908,0.427246,-19.989014,40.728516
37240,2.906561,-4.252102,-9.859323,-16.418457,-27.893066,-26.275635,40.720703
37280,3.490746,-2.777274,-10.682928,-26.062012,-26.580811,-0.366211,40.710938
37320,5.219360,-2.375048,-8.930372,-57.952881,67.291260,3.204346,40.720703
37360,6.392519,-1.589750,-7.426814,-65.643311,80.291748,-24.017334,40.736328
37400,5.554548,-0.426168,-6.718130,-53.070068,62.042236,-29.968262,40.712891
37440,4.448427,-0.588974,-5.808333,-39.550781,34.240723,-20.141602,40.716797
37480,4.438850,-1.268927,-5.214571,-26.092529,23.010254,-17.303467,40.738281
37520,5.372589,-1.082179,-5.300763,-12.023926,27.893066,-13.397217,40.718750
37560,7.153875,-0.440533,-4.979939,-15.899658,55.206299,-4.974365,40.734375
37600,8.777143,0.301669,-5.841852,-13.732910,103.088379,-28.167725,40.720703
37640,10.093954,-0.244209,-6.593631,-1.617432,90.881348,-22.888184,40.746094
37680,10.687716,0.067038,-5.319916,8.270264,80.535889,-27.679443,40.734375
37720,10.347740,0.258574,-6.550536,20.172119,54.931641,-26.367188,40.744141
37760,7.967903,-0.641646,-8.116343,22.888184,9.765625,-8.178711,40.730469
37800,6.397307,-2.485181,-7.934384,19.775391,-28.686523,0.854492,40.710938
37840,8.599973,-3.567361,-6.354211,12.207031,2.990723,6.866455,40.712891
37880,9.093178,-1.527501,-5.157111,12.786865,-9.704590,15.411377,40.716797
37920,6.636727,-0.129287,-4.836287,17.272949,-29.907227,29.327393,40.744141
37960,4.477157,-0.445322,-4.156334,9.368896,-15.136719,31.005859,40.742188
38000,5.195418,-1.398214,-3.634398,9.033203,-21.087646,17.242432,40.734375
38040,6.890512,-1.719037,-3.624821,2.288818,-12.390137,4.486084,40.726562
38080,8.408437,-1.532289,-3.514688,-11.444092,24.291992,-1.464844,40.724609
38120,9.940725,-1.043872,-4.213795,-28.717041,21.270752,9.582520,40.720703
38160,11.817780,-0.076614,-5.204995,-18.798828,7.995605,14.465332,40.716797
38200,12.014104,-1.632846,-5.444415,-11.840820,-20.324707,28.045654,40.740234
38240,11.152191,-2.245761,-7.211336,19.805908,-46.722412,6.500244,40.730469
38280,7.201759,-3.596091,-6.785168,-1.586914,34.210205,-22.766113,40.732422
38320,5.262455,-2.748544,-8.010999,-24.658203,-17.852783,5.462646,40.765625
38360,6.330269,-0.478840,-8.681376,-35.003662,20.599365,-3.601074,40.736328
38400,7.699753,-0.775721,-6.933608,-26.641846,25.512695,-21.850586,40.740234
38440,6.722919,-1.465251,-4.199430,-18.005371,36.468506,-27.313232,40.732422
38480,5.406107,-0.852336,-4.017470,-9.582520,-10.009766,-21.270752,40.716797
38520,6.124368,-0.023942,-3.773262,-6.011963,-1.861572,-14.617920,40.751953
38560,7.144298,0.311246,-3.749320,-2.746582,9.246826,0.274658,40.724609
38600,8.106767,0.272939,-3.739743,3.814697,26.275635,3.479004,40.718750
38640,8.963891,0.225055,-4.529830,3.692627,34.973145,-7.232666,40.744141
38680,10.817003,0.248997,-4.730943,9.094238,34.790039,-17.883301,40.726562
38720,12.047623,0.167594,-4.453215,29.388428,22.735596,-26.550293,40.722656
38760,12.378023,-0.004788,-5.109226,40.618896,18.829346,-29.785156,40.751953
38800,10.658986,0.282516,-6.339846,20.874023,22.583008,-6.927490,40.736328
38840,6.919243,-0.675165,-7.129933,20.172119,-11.291504,4.486084,40.726562
38880,7.077260,-3.145981,-6.315904,15.136719,-24.841309,6.072998,40.736328
38920,9.160215,-2.078167,-4.611232,13.610840,-18.371582,16.571045,40.753906
38960,8.599973,-0.143652,-4.386178,25.451660,-41.107178,20.294189,40.734375
39000,6.143522,-0.114922,-3.969586,17.150879,-27.893066,23.986816,40.750000
39040,5.228937,-1.316811,-3.399766,7.141113,-18.829346,22.003174,40.734375
39080,6.397307,-1.728614,-3.600879,6.317139,-21.820068,9.521484,40.744141
39120,7.637504,-1.048660,-3.581726,3.753662,-5.889893,-2.105713,40.710938
39160,8.346188,-1.024718,-3.481169,-7.720947,15.838623,-8.789062,40.753906
39200,9.447520,-1.216254,-4.012682,-18.737793,5.676270,3.753662,40.718750
39240,11.271901,-0.550666,-4.692636,-17.944336,-14.801025,22.033691,40.732422
39280,12.234370,-0.186748,-4.180276,-29.693604,0.335693,30.670166,40.753906
39320,11.525687,-1.719037,-5.410896,-17.639160,-4.821777,12.939453,40.726562
39360,8.963891,-3.222595,-7.168240,8.148193,-13.183594,-14.221191,40.753906
39400,6.181829,-3.955221,-7.082048,-3.936768,-13.946533,-5.493164,40.744141
39440,6.019023,-2.054225,-7.671022,-22.399902,-15.319824,1.129150,40.744141
39480,7.742848,-0.430956,-8.058883,-21.667480,23.315430,-21.026611,40.734375
39520,8.044518,-0.751779,-5.975927,7.659912,8.453369,-38.238525,40.759766
39560,6.229713,-1.685518,-3.643975,4.058838,12.512207,-30.578613,40.736328
39600,4.989516,-0.914585,-4.012682,-2.136230,1.831055,-28.991699,40.708984
39640,6.368577,0.306458,-3.830723,-2.624512,7.598877,-15.625000,40.736328
39680,7.728483,1.024718,-3.840300,8.087158,-0.549316,-1.220703,40.707031
39720,8.451532,0.512359,-3.888184,12.664795,12.939453,-1.190186,40.734375
39760,9.011775,-0.138864,-4.309563,5.706787,24.780273,-9.704590,40.740234
39800,10.802638,-0.536301,-4.501099,7.812500,40.985107,-21.789551,40.732422
39840,12.378023,-0.028730,-4.012682,29.479980,29.479980,-23.803711,40.718750
39880,12.631808,0.794875,-4.912902,29.785156,15.838623,-19.866943,40.744141
39920,10.989386,0.598550,-6.090849,29.357910,14.465332,-5.004883,40.734375
39960,6.478710,-0.335188,-6.924031,20.629883,-22.094727,12.207031,40.724609
40000,6.531382,-2.566584,-7.005434,5.187988,-36.163330,6.225586,40.714844
40040,9.825804,-2.566584,-4.515464,3.814697,2.136230,16.967773,40.730469
40080,8.887277,0.043096,-4.975151,26.519775,-54.779053,16.235352,40.724609
40120,5.827487,-0.248997,-4.352659,17.486572,-36.682129,26.641846,40.734375
40160,4.979939,-1.326388,-3.418920,7.568359,-26.977539,23.529053,40.726562
40200,6.186617,-1.034295,-3.572149,8.911133,-33.386230,13.366699,40.746094
40240,7.508216,-0.938527,-3.548207,6.805420,-10.253906,-0.427246,40.730469
40280,8.561666,-1.383849,-3.457227,-3.875732,9.155273,-2.166748,40.722656
40320,9.586384,-1.335965,-4.419696,-14.038086,-2.197266,10.925293,40.746094
40360,11.477803,-0.957681,-4.932055,-13.305664,8.575439,21.270752,40.726562
40400,11.947066,-1.426944,-6.239290,-7.507324,-19.866943,26.275635,40.736328
40440,10.898406,-2.446874,-8.121132,22.705078,-19.195557,-7.720947,40.740234
40480,6.976704,-3.912126,-7.690176,-6.591797,17.822266,-18.066406,40.757812
40520,5.444415,-1.651999,-8.465898,-24.078369,-12.908936,5.340576,40.750000
40560,5.990293,-0.067038,-8.547300,-28.839111,24.414062,-13.916016,40.751953
40600,7.393295,-0.828394,-6.813898,-32.623291,20.355225,-16.601562,40.753906
40640,7.249643,-1.470040,-3.955221,-11.108398,27.893066,-25.177002,40.736328
40680,5.588067,-0.632069,-4.256891,-9.674072,6.011963,-25.085449,40.746094
40720,5.813122,0.646434,-4.189853,-4.913330,6.500244,-15.808105,40.730469
40760,6.976704,0.723049,-3.897760,-4.638672,5.126953,2.471924,40.746094
40800,7.920019,0.354342,-3.706224,1.770020,19.622803,7.141113,40.744141
40840,8.293514,0.138864,-4.386178,-0.396729,25.665283,0.915527,40.728516
40880,9.600749,0.114922,-4.802769,-5.615234,36.773682,-10.437012,40.730469
40920,11.640609,-0.143652,-4.381389,6.103516,41.473389,-16.906738,40.744141
40960,12.555194,0.354342,-3.519476,27.984619,25.695801,-17.120361,40.740234
41000,11.927913,0.981623,-4.807557,18.249512,34.454346,-11.688232,40.740234
41040,9.203311,0.565032,-6.540959,10.620117,11.657715,3.784180,40.755859
41080,6.162675,-0.258574,-7.168240,-5.767822,-21.972656,6.622314,40.759766
41120,8.298303,-1.426944,-6.272809,-9.979248,-26.245117,13.366699,40.750000
41160,10.189722,-0.967257,-4.371812,-20.874023,-15.380859,36.956787,40.740234
41200,8.006210,0.569820,-4.726154,-7.049561,-43.731689,50.598145,40.736328
41240,4.912902,-0.292093,-4.098873,-13.580322,-20.996094,45.776367,40.738281
41280,5.037400,-1.110910,-3.691859,-19.073486,-33.874512,28.533936,40.748047
41320,6.919243,-1.417367,-3.744531,-11.657715,-27.435303,16.845703,40.750000
41360,8.082825,-1.182736,-3.462016,-17.211914,5.523682,4.333496,40.746094
41400,8.638280,-0.809240,-3.701436,-17.822266,1.739502,1.556396,40.724609
41440,9.691729,-0.670376,-4.668694,-13.854980,-13.000488,14.312744,40.736328
41480,11.295844,-0.842759,-4.596867,-16.998291,6.713867,27.709961,40.744141
41520,12.095507,-0.521936,-4.027047,-49.835205,30.609131,27.709961,40.740234
41560,11.113884,-1.134852,-6.177041,-23.315430,5.584717,5.889893,40.751953
41600,8.475474,-2.331953,-7.671022,9.429932,-4.058838,-16.174316,40.732422
41640,6.186617,-3.457227,-7.522582,-13.244629,-29.022217,10.742188,40.761719
41680,6.469133,-1.067814,-7.584831,-51.361084,18.432617,4.791260,40.748047
41720,8.178593,0.612916,-7.958326,-19.134521,15.350342,-21.972656,40.748047
41760,8.068460,-0.584185,-5.324705,1.922607,9.735107,-24.383545,40.744141
41800,5.645528,-1.431733,-3.715801,-6.683350,28.869629,-20.324707,40.728516
41840,4.845864,-1.063026,-3.883395,-7.171631,4.272461,-17.791748,40.755859
41880,6.459556,0.110133,-3.433285,3.997803,4.943848,-11.505127,40.724609
41920,7.967903,0.861913,-3.500323,14.312744,2.044678,-1.861572,40.750000
41960,8.829816,0.569820,-3.624821,15.869141,13.397217,-0.640869,40.757812
42000,9.667787,0.268151,-4.194642,12.420654,22.888184,-11.474609,40.734375
42040,11.233594,0.172383,-4.410120,15.716553,25.421143,-21.118164,40.771484
42080,12.598289,0.186748,-3.730166,45.196533,10.437012,-26.214600,40.753906
42120,12.612655,0.770933,-4.438850,28.656006,23.590088,-18.035889,40.748047
42160,10.271125,0.933739,-6.162675,8.819580,21.179199,3.692627,40.759766
42200,6.689400,-0.071826,-7.388506,21.057129,-29.357910,8.758545,40.751953
42240,7.407660,-2.758120,-6.785168,2.990723,-34.454346,4.577637,40.746094
42280,9.969456,-2.566584,-4.525041,-0.244141,0.762939,22.583008,40.744141
42320,8.877700,0.043096,-4.563348,17.425537,-38.940430,29.083252,40.740234
42360,5.621585,0.067038,-4.189853,3.601074,-17.944336,38.940430,40.724609
42400,4.534618,-1.350330,-3.284845,-3.753662,-24.597168,22.247314,40.734375
42440,6.215348,-1.355118,-3.600879,4.852295,-38.635254,14.495850,40.751953
42480,7.723695,-1.197101,-3.505111,4.730225,-14.282227,2.593994,40.746094
42520,8.418014,-1.163582,-3.232172,-11.413574,6.683350,-1.007080,40.746094
42560,9.399636,-0.833182,-4.127604,-15.136719,-0.579834,7.598877,40.740234
42600,11.401189,-0.627281,-4.865018,-12.756348,-9.918213,27.496338,40.759766
42640,12.497733,-1.446098,-5.161899,-19.500732,-12.329102,36.102295,40.744141
42680,11.712435,-2.858677,-7.024588,15.441895,-32.592773,5.126953,40.722656
42720,8.456321,-3.682282,-6.675035,12.939453,16.479492,-31.738281,40.726562
42760,5.516241,-3.792415,-7.570466,-9.033203,-16.357422,-5.004883,40.759766
42800,5.870583,-0.924162,-8.446744,-37.475586,17.028809,-7.232666,40.750000
42840,7.436390,-0.004788,-8.010999,-24.200439,24.200439,-17.242432,40.738281
42880,7.517793,-0.905008,-5.032612,5.096436,15.136719,-26.672363,40.744141
42920,5.477933,-1.340753,-3.490746,-10.894775,20.965576,-26.184082,40.736328
42960,5.109226,-0.732626,-3.806781,1.220703,-8.544922,-19.256592,40.726562
43000,6.785168,0.205901,-3.462016,2.716064,-4.791260,-5.981445,40.736328
43040,7.809886,0.651223,-3.821146,9.429932,3.540039,1.739502,40.726562
43080,8.346188,0.383072,-4.156334,9.765625,17.181396,-0.854492,40.744141
43120,9.490616,-0.239420,-4.481946,2.075195,36.254883,-14.526367,40.748047
43160,11.698070,0.100556,-4.558560,11.322021,39.733887,-21.392822,40.732422
43200,13.053187,0.114922,-4.649539,38.452148,19.836426,-29.479980,40.746094
43240,12.703634,0.641646,-6.062119,19.775391,27.160645,-14.923096,40.750000
43280,9.217676,0.497994,-7.158663,23.071289,-1.983643,13.244629,40.722656
43320,6.009446,-2.102109,-7.599196,13.702393,-40.039062,5.859375,40.728516
43360,7.570466,-3.687071,-5.755661,-4.150391,-12.695312,17.150879,40.732422
43400,8.925584,-1.407791,-4.620809,7.446289,-23.742676,23.681641,40.740234
43440,7.532158,0.181959,-4.453215,22.521973,-50.842285,29.296875,40.720703
43480,5.161899,-0.502782,-3.921702,7.598877,-25.421143,29.754639,40.750000
43520,5.214571,-1.537078,-3.442862,-0.396729,-20.111084,20.294189,40.753906
43560,6.909666,-1.747767,-3.658340,3.448486,-15.319824,7.751465,40.753906
43600,7.771579,-1.240196,-3.715801,-4.943848,7.690430,-4.394531,40.728516
43640,8.379706,-1.134852,-3.749320,-13.763428,8.422852,-1.068115,40.767578
43680,9.830592,-1.048660,-4.745308,-17.333984,-4.241943,18.249512,40.742188
43720,11.841722,-0.598550,-4.975151,-19.226074,1.220703,30.914307,40.718750
43760,11.956643,-1.934515,-4.941632,-30.609131,9.063721,30.975342,40.744141
43800,10.448297,-2.892196,-7.196970,19.134521,-20.416260,-3.387451,40.751953
43840,7.024588,-3.701436,-7.144298,9.674072,10.192871,-19.622803,40.736328
43880,5.248090,-3.514688,-8.001422,-19.073486,-27.038574,6.896973,40.753906
43920,6.694188,-0.775721,-8.293514,-44.708252,29.449463,-16.418457,40.736328
43960,8.202535,-0.244209,-7.637504,-18.493652,23.620605,-27.587891,40.748047
44000,7.287950,-1.244985,-4.673482,-5.676270,19.927979,-23.773193,40.751953
44040,5.023035,-1.173159,-3.921702,-18.188477,10.162354,-22.674561,40.730469
44080,5.152322,-0.617704,-3.979163,-9.124756,-9.063721,-13.824463,40.751953
44120,7.034164,0.210690,-3.567361,0.640869,-7.324219,-0.152588,40.740234
44160,7.900866,0.574608,-3.849876,1.800537,7.873535,8.087158,40.740234
44200,8.848969,0.172383,-4.333505,-7.171631,34.271240,-0.122070,40.724609
44240,10.864887,-0.450110,-4.616021,1.037598,50.598145,-18.981934,40.730469
44280,12.550406,-0.100556,-4.587290,30.517578,28.503418,-24.078369,40.748047
44320,12.770672,0.028730,-4.821922,38.879395,25.024414,-23.773193,40.744141
44360,10.836157,0.507571,-6.411672,16.723633,32.531738,-0.457764,40.748047
44400,7.110779,-0.320823,-7.694964,31.982422,-23.223877,8.117676,40.732422
44440,6.746861,-3.270479,-6.770802,0.762939,-22.949219,2.349854,40.748047
44480,8.930372,-2.916138,-4.745308,6.561279,-3.326416,14.343262,40.724609
44520,8.384495,-0.469264,-4.539406,19.775391,-35.766602,18.737793,40.730469
44560,6.133945,-0.047884,-4.156334,13.336182,-31.951904,27.679443,40.724609
44600,4.754885,-1.139640,-3.572149,-0.305176,-29.418945,24.597168,40.753906
44640,6.234501,-1.723825,-3.509900,0.213623,-24.719238,15.319824,40.740234
44680,7.694964,-1.474828,-3.634398,0.854492,-10.620117,0.488281,40.755859
44720,8.020576,-1.321599,-3.471592,-5.371094,7.263184,-5.767822,40.730469
44760,8.992621,-1.316811,-4.041412,-9.674072,-11.444092,4.150391,40.744141
44800,10.970232,-1.096544,-4.951209,-5.737305,-17.944336,26.123047,40.740234
44840,12.291832,-0.991199,-5.023035,-26.672363,1.312256,30.059814,40.738281
44880,11.908759,-2.547431,-6.612785,0.030518,-29.144287,16.937256,40.759766
44920,9.476251,-3.208230,-7.105990,13.183594,8.178711,-23.223877,40.730469
44960,5.693412,-4.544195,-7.168240,-6.011963,2.868652,-15.747070,40.750000
45000,5.434838,-2.557007,-7.814674,-30.731201,-3.387451,-3.906250,40.746094
45040,6.933608,-0.411803,-8.317456,-28.411865,28.137207,-25.054932,40.748047
45080,7.738060,-0.440533,-6.306327,-7.629395,12.390137,-24.414062,40.744141
45120,6.387730,-1.225831,-3.744531,-6.286621,18.280029,-25.085449,40.736328
45160,5.233725,-0.962469,-3.821146,-1.525879,-10.070801,-23.010254,40.744141
45200,6.320693,-0.143652,-3.931279,-5.523682,-3.204346,-12.847900,40.755859
45240,7.580042,0.392649,-4.031836,0.823975,5.126953,3.021240,40.740234
45280,8.293514,0.344765,-3.835511,4.455566,25.451660,5.187988,40.718750
45320,8.360553,0.201113,-4.855441,3.051758,21.972656,-8.666992,40.750000
45360,10.299856,-0.100556,-4.893748,-1.831055,34.973145,-21.545410,40.744141
45400,11.999739,-0.043096,-4.616021,19.744873,37.384033,-27.954102,40.757812
45440,12.574347,0.282516,-3.596091,34.271240,43.762207,-20.080566,40.734375
45480,11.683704,0.090980,-4.903325,20.935059,42.022705,-2.746582,40.740234
45520,8.111555,-0.378284,-7.153875,17.242432,-7.934570,14.038086,40.740234
45560,6.042965,-1.110910,-7.326257,14.465332,-46.356201,7.720947,40.742188
45600,8.475474,-2.418144,-5.477933,6.988525,-13.671875,9.613037,40.734375
45640,9.725247,-1.522712,-4.108450,9.857178,-15.869141,24.627686,40.750000
45680,7.216124,-0.177171,-4.357447,18.127441,-37.841797,37.719727,40.744141
45720,4.606444,-0.416591,-4.003105,7.263184,-40.710449,35.095215,40.736328
45760,5.588067,-1.096544,-3.591303,0.640869,-39.581299,25.848389,40.728516
45800,7.398083,-1.556231,-3.778050,10.162354,-33.538818,12.756348,40.740234
45840,8.063671,-1.489193,-3.687071,-1.403809,1.556396,-3.295898,40.750000
45880,8.628703,-1.398214,-3.825934,-11.901855,4.943848,-0.610352,40.746094
45920,10.022128,-1.053449,-4.869806,-9.582520,-18.981934,19.409180,40.750000
45960,11.645397,-0.790087,-5.157111,-18.890381,6.042480,28.961182,40.744141
46000,11.731588,-1.407791,-4.481946,-42.205811,35.949707,22.491455,40.753906
46040,10.395624,-2.408567,-6.205771,-6.805420,12.939453,-1.251221,40.744141
46080,7.709330,-3.189077,-7.694964,20.904541,-15.808105,-18.890381,40.769531
46120,5.453991,-4.649539,-7.642292,-10.772705,-27.557373,4.852295,40.751953
46160,6.727707,-2.312799,-7.623138,-38.116455,11.352539,-7.202148,40.755859
46200,8.638280,-0.100556,-8.101978,-17.059326,27.496338,-34.484863,40.750000
46240,7.513005,-0.598550,-5.631162,-3.326416,24.719238,-29.663086,40.746094
46280,5.267244,-1.618480,-3.500323,-14.038086,25.421143,-25.848389,40.750000
46320,5.147533,-0.967257,-3.667917,-3.967285,-7.293701,-23.193359,40.753906
46360,6.833052,0.028730,-3.280056,-6.744385,11.138916,-8.972168,40.746094
46400,7.718906,0.679953,-3.462016,5.065918,13.061523,1.312256,40.726562
46440,8.178593,0.316035,-4.070143,6.622314,21.209717,-2.380371,40.759766
46480,9.648633,-0.450110,-4.161122,0.549316,40.405273,-14.465332,40.746094
46520,11.899182,0.019154,-4.299986,11.444092,26.000977,-18.188477,40.750000
46560,12.751518,0.339977,-3.873818,35.491943,7.080078,-22.308350,40.748047
46600,12.473791,0.349553,-4.908113,17.913818,31.494141,-13.763428,40.775391
46640,9.442732,-0.019154,-6.981492,9.582520,0.762939,6.530762,40.730469
46680,6.200983,-1.010353,-7.326257,19.012451,-41.076660,10.009766,40.750000
46720,7.287950,-2.724602,-6.502652,0.396729,-24.078369,5.432129,40.746094
46760,9.811439,-1.915361,-4.606444,9.765625,-16.784668,20.202637,40.753906
46800,8.547300,-0.210690,-4.395754,11.199951,-24.780273,30.944824,40.765625
46840,5.645528,-0.488417,-3.902549,2.532959,-12.115479,31.127930,40.740234
46880,5.152322,-1.197101,-3.505111,0.518799,-33.325195,24.841309,40.763672
46920,6.449979,-1.369483,-3.581726,7.781982,-33.813477,17.578125,40.746094
46960,7.584831,-1.110910,-3.624821,-2.258301,-0.396729,0.579834,40.738281
47000,8.274361,-0.933739,-3.442862,-9.216309,8.239746,-3.326416,40.726562
47040,9.356541,-0.962469,-3.907337,-16.265869,-2.929688,12.359619,40.757812
47080,11.061212,-0.478840,-4.678270,-22.308350,5.798340,26.977539,40.746094
47120,12.282255,-0.325611,-4.285621,-50.354004,32.379150,23.773193,40.757812
47160,11.597513,-2.245761,-5.655105,-22.766113,4.577637,5.462646,40.746094
47200,8.944737,-3.495534,-8.595184,27.099609,-36.315918,-14.495850,40.750000
47240,6.330269,-4.520253,-7.230489,-3.173828,-15.808105,-6.744385,40.759766
47280,6.157887,-2.346318,-7.225701,-50.018311,21.240234,-7.171631,40.746094
47320,7.781156,0.215478,-8.044518,-25.848389,27.221680,-30.609131,40.750000
47360,7.603985,-0.565032,-5.793968,-0.244141,7.080078,-28.045654,40.720703
47400,6.114791,-1.699883,-3.667917,-5.065918,18.341064,-22.827148,40.753906
47440,5.276821,-0.924162,-3.567361,-4.486084,9.246826,-27.832031,40.765625
47480,6.320693,0.670376,-3.442862,1.861572,1.861572,-14.984131,40.746094
47520,7.580042,0.943315,-3.739743,4.425049,-7.049561,1.953125,40.736328
47560,8.518570,0.555455,-3.806781,3.479004,7.873535,2.441406,40.750000
47600,9.619903,0.272939,-4.185065,4.211426,14.312744,-8.972168,40.742188
47640,11.449073,-0.124498,-4.367024,14.038086,21.362305,-20.080566,40.736328
47680,12.607866,-0.052672,-4.070143,32.470703,12.481689,-19.592285,40.753906
47720,12.516887,0.478840,-5.425261,28.228760,11.077881,-18.493652,40.753906
47760,10.194510,0.689530,-6.430826,19.927979,9.277344,-3.936768,40.736328
47800,6.421249,-0.603339,-6.900089,18.402100,-15.350342,11.871338,40.759766
47840,7.115568,-2.954445,-6.813898,-7.354736,-34.332275,11.444092,40.750000
47880,9.557653,-2.298434,-4.769250,13.000488,-15.197754,17.272949,40.722656
47920,8.159439,-0.301669,-5.018247,30.364990,-51.940918,18.615723,40.755859
47960,5.774815,-0.670376,-4.103662,11.688232,-25.177002,33.874512,40.744141
48000,5.157111,-0.991199,-3.524265,14.099121,-32.989502,23.803711,40.720703
48040,6.138733,-0.890643,-3.591303,13.244629,-20.294189,12.603760,40.757812
48080,7.311892,-1.015141,-3.505111,2.716064,3.479004,-0.671387,40.744141
48120,8.523358,-1.288081,-3.485958,-11.352539,15.136719,0.305176,40.751953
48160,10.070012,-0.976834,-4.434062,-21.820068,10.314941,10.620117,40.785156
48200,11.717223,-0.679953,-5.257667,-14.190674,12.237549,18.096924,40.753906
48240,11.985373,-2.442086,-6.770802,2.380371,-37.933350,32.318115,40.734375
48280,10.357317,-3.016694,-7.747637,13.092041,0.518799,-12.817383,40.757812
48320,6.770802,-3.902549,-7.608773,-2.563477,-1.373291,-20.416260,40.761719
48360,5.386954,-1.795651,-8.049306,-23.803711,-5.218506,-4.425049,40.751953
48400,6.124368,-0.387861,-8.164227,-43.426514,29.998779,-14.801025,40.742188
48440,7.800309,-0.359130,-6.651093,-22.186279,11.322021,-22.064209,40.746094
48480,7.129933,-1.139640,-4.161122,-9.704590,27.862549,-25.238037,40.738281
48520,5.425261,-1.067814,-3.988740,-19.134521,15.350342,-22.399902,40.744141
48560,5.640739,-0.114922,-3.634398,-14.556885,35.461426,-15.350342,40.744141
48600,7.000646,0.608127,-3.533842,-0.701904,14.312744,-0.061035,40.750000
48640,7.934384,0.545878,-3.620033,3.051758,22.003174,1.556396,40.753906
48680,8.987833,0.526724,-4.017470,7.354736,19.256592,-2.349854,40.726562
48720,11.080365,0.689530,-4.343082,8.850098,28.991699,-15.228271,40.751953
48760,12.243947,0.991199,-4.228160,23.071289,14.678955,-19.195557,40.742188
48800,12.354081,0.622492,-4.496311,32.531738,9.796143,-24.383545,40.765625
48840,11.022904,0.804452,-5.736507,6.713867,28.656006,-8.697510,40.748047
48880,7.594408,-0.148441,-6.904878,13.366699,-1.342773,6.500244,40.744141
48920,6.909666,-2.633622,-7.134721,0.274658,-36.102295,4.180908,40.750000
48960,9.260772,-2.978387,-4.884171,3.845215,-11.474609,13.885498,40.750000
49000,8.906430,-0.684742,-4.539406,26.519775,-43.426514,17.425537,40.740234
49040,6.622362,-0.205901,-3.988740,26.000977,-40.374756,25.970459,40.753906
49080,4.955997,-0.837971,-3.562572,6.683350,-30.456543,27.465820,40.744141
49120,6.076484,-1.144428,-3.524265,3.601074,-23.498535,15.472412,40.740234
49160,7.565677,-0.943315,-3.457227,12.573242,-9.674072,-1.098633,40.738281
49200,8.111555,-1.254562,-3.265691,0.000000,16.784668,-8.361816,40.753906
49240,9.246407,-1.503559,-3.878607,-11.016846,10.284424,-1.098633,40.720703
49280,11.343728,-0.799663,-4.888960,3.662109,-4.150391,15.380859,40.734375
49320,12.133814,-1.843535,-6.153099,11.505127,-43.304443,31.768799,40.773438
49360,12.205640,-2.370260,-6.603208,25.207520,-36.346436,17.028809,40.742188
49400,7.551312,-3.754108,-7.048530,11.688232,25.482178,-35.278320,40.746094
49440,5.487510,-2.724602,-7.924808,-5.187988,-16.479492,-5.737305,40.736328
49480,5.315128,-0.560243,-8.039729,-26.977539,10.833740,-13.641357,40.724609
49520,7.503428,-0.675165,-7.048530,-23.773193,23.590088,-17.761230,40.744141
49560,8.116343,-1.192312,-4.927267,-7.385254,23.529053,-28.106689,40.734375
49600,6.636727,-0.837971,-3.998317,-1.190186,13.671875,-24.444580,40.748047
49640,5.980716,-0.124498,-4.232949,-9.124756,3.936768,-13.458252,40.724609
49680,6.871359,0.531513,-3.677494,-0.762939,7.812500,-4.547119,40.740234
49720,7.608773,0.086191,-3.342306,5.432129,21.911621,-0.274658,40.746094
49760,7.603985,-0.043096,-3.974375,7.934570,31.494141,-9.765625,40.765625
49800,9.471462,-0.114922,-3.964798,10.772705,32.745361,-20.385742,40.771484
49840,11.702858,1.063026,-3.763685,21.636963,21.301270,-22.308350,40.746094
49880,11.908759,0.957681,-3.763685,41.778564,16.448975,-31.677246,40.732422
49920,11.482592,0.584185,-5.353435,23.345947,34.149170,-22.277832,40.720703
49960,9.174581,-0.095768,-6.909666,-2.075195,7.873535,1.983643,40.751953
50000,6.943185,-1.599327,-6.924031,12.695312,-22.247314,-0.335693,40.720703
50040,8.681376,-3.251326,-5.736507,6.744385,-20.690918,3.845215,40.750000
50080,10.218452,-1.599327,-4.371812,3.112793,-14.831543,16.510010,40.759766
50120,8.336611,0.311246,-4.347870,25.848389,-43.487549,22.521973,40.740234
50160,5.137957,-0.445322,-3.715801,10.498047,-32.073975,32.135010,40.734375
50200,5.420473,-1.110910,-2.944868,1.922607,-23.803711,24.932861,40.744141
50240,7.005434,-0.938527,-3.174711,1.373291,-12.847900,5.645752,40.736328
50280,7.843405,-1.077391,-3.198653,-4.516602,8.666992,-4.913330,40.751953
50320,8.643068,-1.211466,-3.543418,-19.683838,6.530762,1.800537,40.750000
50360,11.118672,-0.306458,-4.376601,-11.138916,-5.615234,18.280029,40.746094
50400,12.631808,-0.555455,-4.180276,-25.878906,17.700195,35.583496,40.734375
50440,11.889606,-2.336741,-5.578490,-20.172119,1.892090,17.608643,40.738281
50480,9.955091,-3.059790,-7.005434,19.378662,7.141113,-19.470215,40.755859
50520,6.517017,-3.471592,-7.216124,3.662109,-17.395020,-3.845215,40.759766
50560,6.023811,-1.201889,-7.896077,-26.580811,-5.462646,0.152588,40.763672
50600,7.848193,0.062249,-7.996634,-26.031494,23.376465,-19.805908,40.742188
50640,8.681376,-0.651223,-5.444415,-0.457764,20.538330,-36.743164,40.746094
50680,6.239290,-1.321599,-3.677494,2.349854,10.498047,-30.181885,40.724609
50720,4.898537,-1.039083,-3.691859,-5.035400,6.866455,-23.529053,40.744141
50760,6.268020,0.028730,-3.150769,2.868652,27.984619,-18.676758,40.730469
50800,7.905654,1.197101,-3.217807,10.406494,-7.263184,1.586914,40.748047
50840,8.633492,1.077391,-3.232172,13.946533,10.314941,3.936768,40.742188
50880,9.112331,0.454898,-3.811569,11.352539,17.883301,-4.455566,40.742188
50920,10.706870,0.272939,-3.969586,19.378662,23.590088,-18.035889,40.748047
50960,12.449849,0.407014,-3.227384,34.454346,4.119873,-19.714355,40.740234
51000,12.741941,1.015141,-4.041412,35.095215,14.953613,-21.881104,40.751953
51040,11.382035,1.130063,-5.918467,10.925293,27.374268,-9.796143,40.755859
51080,7.383718,0.114922,-6.540959,11.077881,-1.281738,5.737305,40.759766
51120,6.866570,-1.963245,-7.192182,-0.122070,-36.560059,5.035400,40.759766
51160,10.002975,-2.600103,-4.965574,-5.981445,-8.941650,23.315430,40.744141
51200,10.098742,0.268151,-4.362236,4.211426,-52.978516,36.407471,40.755859
51240,6.785168,0.579397,-4.050989,10.986328,-22.277832,41.687012,40.761719
51280,4.683059,-0.928950,-3.280056,-9.094238,-9.521484,31.738281,40.751953
51320,5.573701,-1.719037,-3.394978,-10.070801,-21.606445,19.042969,40.730469
51360,7.417237,-1.096544,-3.332729,-1.220703,-0.762939,3.082275,40.750000
51400,8.350976,-0.847547,-3.289633,-6.408691,14.984131,-7.354736,40.734375
51440,9.399636,-0.780510,-3.500323,-16.937256,10.772705,6.042480,40.742188
51480,11.185710,-0.090980,-3.964798,-21.423340,11.352539,21.331787,40.755859
51520,12.081141,0.181959,-3.581726,-32.440186,13.092041,26.702881,40.744141
51560,11.769896,-1.120486,-3.869030,-46.905518,21.362305,15.441895,40.753906
51600,9.840169,-1.771709,-7.110779,13.214111,-6.347656,-12.725830,40.753906
51640,6.818686,-3.557784,-7.311892,10.101318,-14.923096,-0.396729,40.742188
51680,6.545747,-2.940080,-7.508216,-38.696289,-3.753662,11.810303,40.744141
51720,8.437167,-0.316035,-7.972692,-35.491943,28.289795,-21.697998,40.746094
51760,9.136273,-0.445322,-6.004658,23.712158,-4.211426,-39.978027,40.736328
51800,6.833052,-1.599327,-3.485958,7.476807,35.736084,-34.912109,40.775391
51840,5.300763,-0.746991,-3.299210,7.690430,17.272949,-25.360107,40.748047
51880,5.894525,0.383072,-2.791639,12.023926,0.152588,-14.892578,40.753906
51920,7.311892,0.852336,-2.801216,4.760742,-17.272949,0.335693,40.746094
51960,8.542512,0.627281,-2.767697,6.164551,5.432129,2.380371,40.744141
52000,9.677363,0.095768,-3.361459,5.706787,9.521484,-4.211426,40.748047
52040,11.846510,-0.167594,-3.629610,13.793945,10.559082,-11.505127,40.720703
52080,13.110648,0.632069,-5.334281,16.418457,-5.523682,-23.864746,40.750000
52120,13.364434,1.474828,-6.014235,15.411377,-9.826660,-26.550293,40.742188
52160,9.883265,0.124498,-5.300763,5.035400,37.322998,9.185791,40.744141
52200,5.918467,-2.944868,-7.369353,-6.134033,-18.951416,17.333984,40.736328
52240,7.474698,-3.117251,-4.932055,-11.352539,-34.149170,25.085449,40.736328
52280,8.724471,-0.244209,-4.802769,8.544922,-48.797607,20.080566,40.736328
52320,8.370130,-0.459687,-3.960010,19.042969,-39.703369,24.688721,40.763672
52360,6.579266,-1.747767,-3.366248,18.829346,-38.543701,27.069092,40.728516
52400,5.975927,-1.302446,-3.763685,5.157471,-34.423828,20.324707,40.753906
52440,6.947973,-0.526724,-3.782839,6.622314,-12.786865,6.652832,40.757812
52480,7.757214,-0.861913,-3.385401,-2.624512,14.953613,-4.455566,40.730469
52520,8.202535,-1.628057,-3.610456,-10.650635,9.826660,0.030518,40.740234
52560,9.854534,-1.503559,-4.477157,-8.239746,-9.063721,13.519287,40.761719
52600,11.798626,-1.484405,-5.128380,0.152588,-16.876221,20.812988,40.746094
52640,12.119449,-2.073379,-7.024588,9.918213,-37.017822,28.442383,40.742188
52680,9.514558,-2.499547,-7.460332,15.930176,22.216797,-18.188477,40.740234
52720,6.186617,-2.221819,-8.236053,-3.814697,-23.742676,-7.690430,40.738281
52760,4.845864,-0.507571,-8.418014,-20.660400,-9.918213,-3.265381,40.740234
52800,6.363788,-0.617704,-7.489063,-44.067383,22.430420,-7.629395,40.763672
52840,8.097190,-0.526724,-5.497087,-24.902344,12.603760,-25.604248,40.750000
52880,6.866570,-0.311246,-4.194642,-10.559082,5.310059,-21.697998,40.746094
52920,5.482722,-0.033519,-4.256891,-12.481689,1.495361,-15.014648,40.751953
52960,6.076484,0.430956,-4.084508,-7.568359,4.943848,-2.227783,40.738281
53000,7.718906,0.090980,-3.921702,-2.319336,12.969971,6.103516,40.755859
53040,9.064447,0.191536,-3.825934,-2.990723,36.468506,2.960205,40.750000
53080,9.658210,1.010353,-4.970363,-2.899170,46.997070,-15.106201,40.753906
53120,11.190498,0.627281,-4.802769,-6.713867,66.375732,-20.416260,40.748047
53160,12.703634,0.641646,-4.654328,1.342773,32.409668,-16.601562,40.755859
53200,12.804191,1.594538,-5.841852,5.767822,31.005859,-8.972168,40.740234
53240,9.006987,0.991199,-6.502652,6.561279,8.697510,13.793945,40.759766
53280,5.525817,-1.766921,-7.335834,-4.272461,-26.550293,20.751953,40.736328
53320,7.307104,-2.992752,-5.262455,-18.066406,-13.031006,24.505615,40.769531
53360,9.097966,-0.665588,-4.587290,-5.981445,-37.719727,27.709961,40.746094
53400,8.049306,0.545878,-4.548983,8.575439,-57.220459,30.639648,40.748047
53440,5.784391,-0.713472,-3.648763,-4.516602,-27.160645,38.604736,40.748047
53480,5.841852,-1.412579,-3.610456,-7.324219,-36.010742,31.616211,40.746094
53520,7.177817,-1.288081,-3.524265,2.044678,-21.972656,15.289307,40.773438
53560,7.704541,-1.182736,-3.538630,-10.711670,6.561279,2.166748,40.773438
53600,8.355764,-1.292869,-3.768473,-17.730713,11.962891,4.791260,40.759766
53640,10.074800,-1.221043,-4.410120,-12.878418,-1.403809,14.373779,40.765625
53680,11.118672,-1.173159,-4.606444,-16.265869,16.540527,20.996094,40.773438
53720,11.214440,-1.695095,-4.797980,-32.928467,21.514893,21.392822,40.773438
53760,10.754754,-2.121263,-7.350199,10.070801,-16.510010,1.037598,40.759766
53800,8.398860,-2.810793,-7.072472,16.723633,6.622314,-11.962891,40.759766
53840,6.028600,-2.164358,-7.474698,-21.514893,-16.296387,4.547119,40.755859
53880,6.339846,0.378284,-8.465898,-46.417236,26.000977,-1.953125,40.728516
53920,8.063671,-0.181959,-7.627927,-26.519775,19.287109,-17.211914,40.765625
53960,8.116343,-1.316811,-4.218584,-13.610840,28.320312,-26.977539,40.759766
54000,5.707777,-0.981623,-3.782839,-14.190674,22.857666,-21.270752,40.757812
54040,5.219360,-0.416591,-3.926491,-9.460449,20.721436,-16.632080,40.755859
54080,6.852205,0.378284,-3.351882,-3.051758,16.815186,-7.629395,40.746094
54120,8.307879,0.660800,-3.232172,3.479004,10.467529,4.760742,40.750000
54160,8.734048,0.794875,-3.538630,3.356934,15.716553,1.861572,40.759766
54200,9.629479,0.914585,-4.079720,4.089355,6.317139,-9.765625,40.750000
54240,11.324574,0.746991,-3.912126,7.904053,5.737305,-13.793945,40.730469
54280,12.627020,0.210690,-3.610456,17.425537,7.843018,-16.876221,40.773438
54320,12.574347,0.818817,-4.984728,9.613037,26.580811,-10.162354,40.750000
54360,10.079589,0.981623,-6.445191,-6.317139,9.613037,8.209229,40.755859
54400,6.272809,-0.225055,-6.612785,-2.227783,-18.646240,14.160156,40.769531
54440,7.101202,-2.509123,-6.277597,-17.028809,-20.446777,14.038086,40.763672
54480,10.170568,-1.805228,-4.443638,-20.660400,-4.150391,31.158447,40.748047
54520,8.963891,0.555455,-4.668694,5.706787,-45.349121,36.132812,40.759766
54560,5.784391,0.071826,-4.309563,-4.211426,-22.094727,44.189453,40.746094
54600,5.295974,-1.197101,-3.557784,-6.835938,-29.541016,32.562256,40.759766
54640,6.646304,-1.398214,-3.529053,-4.302979,-22.613525,19.958496,40.759766
54680,7.723695,-1.249773,-3.500323,-4.211426,-1.220703,3.692627,40.736328
54720,8.159439,-1.144428,-3.404555,-16.906738,11.291504,4.943848,40.744141
54760,9.485827,-0.713472,-4.156334,-23.193359,3.326416,17.181396,40.742188
54800,11.415554,-0.272939,-4.625597,-22.033691,11.993408,28.106689,40.746094
54840,12.018892,-1.058237,-3.854665,-53.558350,36.651611,30.609131,40.750000
54880,11.022904,-2.159570,-5.008670,-44.586182,25.970459,10.040283,40.746094
54920,9.002198,-2.159570,-7.393295,12.695312,-5.157471,-17.303467,40.744141
54960,6.646304,-3.045424,-6.971915,1.647949,-12.786865,1.129150,40.730469
55000,6.368577,-1.565808,-7.173028,-41.961670,0.335693,7.293701,40.746094
55040,8.092402,0.378284,-7.896077,-26.519775,20.202637,-16.906738,40.740234
55080,8.887277,-0.598550,-5.966351,-1.098633,-1.678467,-28.228760,40.744141
55120,6.651093,-1.786075,-3.835511,-10.528564,16.967773,-22.766113,40.751953
55160,5.104438,-1.283292,-3.955221,-14.556885,12.908936,-26.611328,40.732422
55200,6.449979,0.057461,-3.179500,-3.021240,28.503418,-23.010254,40.753906
55240,7.814674,1.144428,-3.107674,3.051758,1.129150,-3.753662,40.750000
55280,8.346188,0.818817,-3.232172,8.880615,6.988525,1.739502,40.755859
55320,9.179369,0.177171,-3.562572,10.681152,14.282227,-7.843018,40.783203
55360,11.152191,0.560243,-3.667917,13.977051,15.014648,-16.052246,40.746094
55400,12.258312,0.905008,-3.754108,26.672363,4.302979,-20.782471,40.759766
55440,12.679692,0.828394,-4.443638,28.869629,9.155273,-24.291992,40.738281
55480,11.530476,1.019930,-5.578490,9.796143,19.409180,-9.277344,40.746094
55520,7.718906,-0.124498,-6.062119,6.195068,7.354736,5.401611,40.751953
55560,6.268020,-2.695871,-6.627151,5.584717,-31.860352,2.105713,40.746094
55600,9.083601,-2.973598,-4.817134,-8.453369,-6.866455,21.392822,40.755859
55640,9.835381,0.263362,-4.601655,9.918213,-54.016113,24.688721,40.753906
55680,7.431602,0.651223,-4.041412,17.303467,-31.829834,30.792236,40.773438
55720,5.458780,-0.948104,-3.533842,-2.014160,-19.805908,29.541016,40.746094
55760,6.052542,-1.618480,-3.299210,2.716064,-36.407471,21.087646,40.763672
55800,7.326257,-1.000776,-3.394978,3.692627,-19.012451,6.561279,40.771484
55840,7.881712,-0.991199,-3.165135,-5.279541,4.089355,-2.502441,40.751953
55880,8.595184,-1.072602,-3.682282,-8.483887,-9.399414,3.540039,40.746094
55920,10.500969,-0.847547,-4.323928,-2.075195,-19.195557,23.223877,40.775391
55960,11.899182,-0.656011,-4.127604,-23.620605,18.280029,27.435303,40.742188
56000,12.105083,-1.345541,-4.563348,-46.295166,25.085449,22.399902,40.744141
56040,10.783484,-2.149993,-6.895301,-2.502441,4.608154,-10.711670,40.746094
56080,8.097190,-3.107674,-7.139510,9.613037,6.896973,-16.510010,40.773438
56120,5.971139,-3.026271,-7.101202,-16.235352,-14.862061,6.896973,40.744141
56160,6.291962,-0.162806,-7.527370,-39.123535,22.796631,-4.608154,40.746094
56200,8.106767,0.416591,-7.513005,-12.481689,6.286621,-16.113281,40.736328
56240,8.336611,-1.163582,-4.582502,12.603760,14.129639,-26.123047,40.765625
56280,6.263232,-1.642422,-3.323152,-8.972168,42.663574,-29.022217,40.744141
56320,5.568913,-0.186748,-3.711013,14.526367,10.498047,-24.688721,40.750000
56360,6.909666,0.531513,-2.997540,11.566162,-0.213623,-7.324219,40.751953
56400,8.078036,0.464475,-3.284845,18.066406,1.495361,0.213623,40.740234
56440,8.619126,0.004788,-3.600879,23.254395,9.674072,-2.532959,40.742188
56480,9.667787,-0.071826,-3.845088,22.949219,9.094238,-11.413574,40.744141
56520,11.741165,0.158017,-3.615245,23.834229,7.507324,-14.648438,40.751953
56560,12.660539,-0.019154,-3.543418,29.479980,26.794434,-25.024414,40.755859
56600,12.636597,0.215478,-5.037400,25.390625,25.848389,-17.089844,40.736328
56640,10.170568,0.464475,-6.655881,10.620117,-2.136230,0.579834,40.751953
56680,6.191406,-1.043872,-7.139510,6.713867,-23.803711,-0.122070,40.744141
56720,7.412448,-2.796427,-5.506664,9.033203,-1.953125,5.218506,40.751953
56760,9.433155,-1.206678,-4.707001,8.239746,-16.693115,15.686035,40.738281
56800,8.207323,0.459687,-4.319140,11.505127,-17.761230,14.221191,40.750000
56840,6.196194,-0.632069,-3.260903,-1.922607,-7.263184,21.881104,40.742188
56880,5.784391,-0.885855,-3.189077,3.845215,-34.729004,19.683838,40.757812
56920,6.914454,-0.885855,-3.217807,2.868652,-39.550781,12.695312,40.765625
56960,8.058883,-0.952892,-2.949656,-2.441406,-8.789062,-0.946045,40.746094
57000,8.561666,-1.077391,-2.896984,-11.230469,3.265381,-2.746582,40.751953
57040,9.691729,-0.727837,-3.682282,-16.082764,-8.209229,6.439209,40.750000
57080,11.870452,-0.258574,-3.926491,-18.493652,-1.495361,21.942139,40.750000
57120,12.382812,-1.039083,-4.515464,-29.449463,3.540039,29.998779,40.757812
57160,11.611878,-2.600103,-7.920019,23.895264,-39.245605,14.251709,40.759766
57200,8.125920,-3.323152,-6.900089,2.502441,19.195557,-21.331787,40.740234
57240,5.851429,-2.542642,-7.833828,-26.519775,-9.918213,6.805420,40.763672
57280,5.870583,-0.196325,-8.398860,-33.172607,14.495850,-5.401611,40.744141
57320,7.805098,-0.263362,-7.302315,-12.084961,3.936768,-19.744873,40.750000
57360,8.240842,-1.182736,-4.491522,0.732422,14.862061,-28.625488,40.740234
57400,6.287174,-0.612916,-3.366248,-4.577637,26.306152,-24.383545,40.750000
57440,5.319916,-0.158017,-3.797204,6.378174,8.178711,-18.432617,40.755859
57480,6.459556,0.287304,-3.476381,5.065918,0.579834,-5.889893,40.748047
57520,7.867347,0.493206,-3.543418,9.796143,-3.204346,4.821777,40.748047
57560,8.604761,0.430956,-3.581726,12.145996,20.172119,0.091553,40.744141
57600,9.677363,0.119710,-3.883395,14.801025,19.653320,-10.803223,40.753906
57640,11.247959,0.579397,-4.036624,14.648438,15.747070,-14.953613,40.744141
57680,12.708423,0.861913,-3.960010,20.782471,13.305664,-20.111084,40.765625
57720,12.698846,0.818817,-4.936844,9.033203,30.700684,-14.678955,40.734375
57760,10.409989,0.780510,-6.239290,-2.166748,12.023926,2.746582,40.746094
57800,6.512228,-0.541090,-6.603208,3.417969,-15.045166,14.648438,40.744141
57840,6.627151,-2.791639,-6.603208,-12.786865,-18.981934,5.035400,40.728516
57880,9.859323,-2.351106,-4.888960,-5.798340,-12.023926,21.423340,40.751953
57920,9.327810,0.162806,-4.352659,11.901855,-36.529541,28.106689,40.726562
57960,6.100426,0.215478,-3.787627,-4.302979,-13.397217,33.081055,40.746094
58000,4.970363,-1.015141,-3.361459,-18.188477,-14.678955,30.792236,40.726562
58040,6.196194,-1.283292,-3.366248,-14.068604,-16.845703,19.317627,40.736328
58080,7.991845,-0.713472,-3.241749,-10.101318,3.173828,5.065918,40.748047
58120,8.427590,-0.761356,-3.280056,-11.138916,7.476807,-0.885010,40.748047
58160,9.145850,-0.881066,-3.744531,-14.709473,-9.735107,11.566162,40.773438
58200,10.860099,-0.928950,-4.074931,-15.319824,-10.406494,37.963867,40.757812
58240,12.133814,-0.679953,-4.094085,-39.916992,14.923096,32.318115,40.740234
58280,12.397177,-1.766921,-6.138733,-4.913330,-22.644043,21.484375,40.753906
58320,10.041282,-3.303998,-7.187394,23.742676,-5.493164,-14.770508,40.740234
58360,6.536170,-4.189853,-7.450756,-7.385254,-13.641357,-12.420654,40.753906
58400,5.597643,-1.264138,-7.876924,-42.144775,4.364014,-5.493164,40.750000
58440,6.952762,0.177171,-8.106767,-29.174805,18.341064,-18.920898,40.763672
58480,8.269572,-0.828394,-5.420473,8.331299,-0.518799,-28.839111,40.753906
58520,6.737284,-1.340753,-3.160346,0.061035,16.143799,-30.700684,40.746094
58560,5.238513,-0.454898,-3.677494,6.164551,0.366211,-25.726318,40.748047
58600,6.124368,0.177171,-3.883395,3.936768,6.439209,-16.113281,40.746094
58640,8.145074,0.215478,-3.289633,6.225586,2.105713,-0.457764,40.765625
58680,8.671799,0.253785,-3.375824,12.878418,27.648926,-5.950928,40.730469
58720,9.165004,-0.234632,-4.304775,14.678955,26.641846,-15.289307,40.746094
58760,11.429919,-0.301669,-4.060566,16.601562,27.954102,-15.075684,40.740234
58800,12.756307,0.105345,-3.974375,34.393311,24.078369,-23.345947,40.742188
58840,12.406754,0.627281,-5.291186,26.641846,27.008057,-18.249512,40.746094
58880,10.137050,0.780510,-6.660669,22.918701,-1.281738,-2.136230,40.757812
58920,6.478710,-0.699107,-6.947973,26.336670,-23.162842,6.072998,40.728516
58960,6.713342,-3.323152,-6.263232,-2.227783,-20.446777,5.432129,40.746094
59000,9.567230,-2.327164,-4.783615,4.699707,-16.265869,16.571045,40.759766
59040,9.078813,0.062249,-4.462792,22.247314,-34.667969,22.125244,40.732422
59080,6.143522,-0.215478,-3.739743,11.108398,-14.678955,28.869629,40.742188
59120,4.941632,-1.316811,-3.236961,4.302979,-23.437500,25.085449,40.753906
59160,6.191406,-1.355118,-3.390190,5.279541,-28.961182,14.282227,40.738281
59200,7.733272,-1.072602,-3.557784,7.202148,-6.439209,1.312256,40.742188
59240,8.432379,-1.115698,-3.347094,2.746582,13.580322,-3.570557,40.759766
59280,9.155427,-1.278504,-3.849876,-0.396729,-13.732910,7.934570,40.744141
59320,10.965444,-1.288081,-4.323928,-3.204346,-6.042480,25.756836,40.759766
59360,12.454638,-1.235408,-3.835511,-34.851074,43.182373,29.815674,40.732422
59400,11.731588,-2.695871,-4.242526,-37.017822,46.569824,9.002686,40.740234
59440,10.055647,-3.112462,-7.264008,22.430420,12.115479,-22.247314,40.740234
59480,7.541735,-3.562572,-6.809110,20.233154,9.704590,-13.336182,40.753906
59520,5.985504,-2.647987,-6.900089,-8.850098,-18.402100,1.770020,40.730469
59560,7.417237,-0.421380,-7.201759,0.213623,-4.425049,-18.157959,40.744141
59600,8.848969,-0.933739,-6.033388,8.148193,-2.563477,-23.529053,40.757812
59640,7.297527,-1.872266,-3.825934,19.775391,5.187988,-27.770996,40.750000
59680,5.439626,-1.177947,-3.481169,28.594971,-25.756836,-24.444580,40.755859
59720,5.597643,-0.847547,-3.145981,23.315430,-32.012939,-13.763428,40.744141
59760,6.981492,0.100556,-3.605668,17.547607,-28.564453,-5.615234,40.744141
59800,8.312668,0.090980,-3.811569,20.416260,-10.131836,1.861572,40.755859
59840,8.844181,-0.339977,-4.055778,18.920898,-8.453369,-3.204346,40.732422
59880,10.314221,-0.905008,-4.563348,10.925293,-2.258301,-20.660400,40.750000
59920,12.181698,-1.163582,-4.515464,24.047852,14.343262,-28.778076,40.755859
59960,12.603078,-0.890643,-5.736507,36.346436,17.578125,-31.890869,40.730469
60000,11.798626,-0.052672,-7.163452,24.505615,-1.281738,-13.610840,40.757812
60040,7.206547,-0.703895,-7.364564,13.946533,-21.636963,21.392822,40.755859
60080,5.592855,-2.987964,-6.957550,3.326416,-21.179199,13.916016,40.744141
60120,9.270349,-2.456451,-5.291186,3.692627,22.979736,15.502930,40.751953
60160,8.652645,-0.493206,-5.645528,9.613037,-1.647949,19.042969,40.724609
60200,6.047753,-0.823605,-4.213795,0.457764,9.124756,32.684326,40.753906
60240,4.261679,-1.934515,-3.093309,-2.685547,5.889893,21.881104,40.734375
60280,5.243302,-1.891419,-2.954445,-1.831055,-2.166748,9.613037,40.755859
60320,7.479486,-1.221043,-3.222595,6.927490,-0.854492,5.187988,40.751953
60360,8.298303,-1.853112,-3.064578,-10.986328,20.568848,0.579834,40.744141
60400,9.303867,-2.111686,-3.778050,-23.803711,2.807617,14.465332,40.753906
60440,12.167333,-1.714248,-4.189853,-18.676758,8.544922,31.158447,40.751953
60480,12.670115,-1.996764,-3.538630,-41.259766,52.551270,30.670166,40.750000
60520,11.372458,-2.470816,-5.822699,-7.446289,8.331299,14.923096,40.750000
60560,9.217676,-3.375824,-7.244854,22.186279,-8.605957,-5.218506,40.732422
60600,6.133945,-3.299210,-7.034164,0.610352,-20.996094,5.523682,40.761719
60640,6.038177,-2.015918,-7.182605,-28.564453,-2.349854,-0.244141,40.750000
60680,8.092402,-1.221043,-7.206547,-33.538818,-0.366211,-26.672363,40.742188
60720,8.192958,-1.790863,-5.128380,-21.118164,5.889893,-33.538818,40.750000
60760,5.851429,-1.374272,-3.763685,-18.707275,9.216309,-23.803711,40.777344
60800,4.989516,-1.024718,-3.404555,-9.246826,-25.939941,-14.831543,40.748047
60840,6.009446,-1.240196,-3.260903,-7.934570,-29.205322,-8.087158,40.732422
60880,8.034941,-0.483629,-3.806781,1.434326,-12.023926,-1.586914,40.726562
60920,8.844181,-0.028730,-4.122815,9.643555,12.420654,0.610352,40.750000
60960,9.097966,-0.565032,-4.659117,5.493164,0.000000,-7.232666,40.746094
61000,10.817003,-0.603339,-4.984728,11.932373,1.525879,-14.526367,40.736328
61040,12.521675,-0.497994,-4.807557,23.529053,19.531250,-19.561768,40.755859
61080,12.569559,0.009577,-6.325481,36.315918,-3.997803,-21.026611,40.750000
61120,10.448297,0.292093,-7.302315,35.278320,-15.533447,-6.622314,40.755859
61160,5.367800,-0.742203,-7.589619,16.448975,-29.693604,7.232666,40.746094
61200,5.181053,-3.801992,-6.469133,-20.874023,-16.571045,15.686035,40.740234
61240,9.150639,-3.409343,-5.583278,4.272461,-13.824463,24.810791,40.757812
61280,8.748413,0.143652,-5.683835,-0.946045,-9.948730,39.520264,40.755859
61320,5.918467,0.603339,-4.845864,-16.510010,11.016846,43.304443,40.742188
61360,4.390966,-1.532289,-3.782839,-16.387939,-9.307861,40.985107,40.744141
61400,5.372589,-2.753332,-3.773262,-10.742188,-26.519775,28.167725,40.746094
61440,7.216124,-2.427721,-4.070143,-14.862061,-14.770508,12.359619,40.753906
61480,8.197746,-2.207454,-4.156334,-14.434814,-5.920410,3.112793,40.753906
61520,8.834604,-2.336741,-4.577713,-17.150879,-7.263184,13.031006,40.746094
61560,10.290278,-1.857901,-5.353435,-5.859375,-5.554199,26.947021,40.753906
61600,11.319786,-1.584962,-5.181053,-23.864746,5.462646,30.273438,40.765625
61640,10.601525,-2.614468,-5.779603,-27.313232,3.387451,20.751953,40.746094
61680,8.532935,-3.706224,-8.135497,18.341064,-16.387939,-11.535645,40.736328
61720,5.980716,-4.491522,-7.742848,23.925781,-31.341553,-4.669189,40.730469
61760,4.778827,-3.260903,-7.776367,-8.026123,-20.324707,9.735107,40.746094
61800,6.268020,-1.963245,-8.212111,-27.557373,17.486572,-25.878906,40.765625
61840,7.522582,-2.097321,-7.038953,-26.184082,28.808594,-37.567139,40.753906
61880,5.803545,-2.351106,-5.497087,-16.296387,5.737305,-29.693604,40.755859
61920,4.922479,-1.675941,-4.424485,-7.049561,-3.814697,-25.390625,40.744141
61960,5.157111,-0.761356,-3.916914,-12.237549,-1.831055,-18.524170,40.773438
62000,6.536170,0.172383,-4.218584,-11.474609,-2.746582,-0.061035,40.730469
62040,7.723695,0.349553,-4.481946,3.967285,6.866455,3.448486,40.765625
62080,8.111555,-0.488417,-5.434838,6.256104,0.335693,-8.911133,40.742188
62120,9.878476,-1.326388,-5.918467,-7.659912,12.542725,-17.211914,40.751953
62160,12.196063,-1.446098,-5.846641,10.589600,52.642822,-27.709961,40.753906
62200,12.492945,-1.355118,-6.766014,27.862549,50.933838,-34.332275,40.779297
62240,10.759542,-0.292093,-8.092402,30.609131,-0.732422,-23.468018,40.765625
62280,6.162675,-0.335188,-8.662222,58.166504,-65.460205,0.610352,40.765625
62320,5.822699,-2.820370,-7.958326,43.518066,-84.136963,13.275146,40.751953
62360,8.470686,-3.792415,-5.899313,24.017334,6.164551,16.876221,40.751953
62400,7.067683,-2.255338,-5.760449,17.364502,-3.112793,15.625000,40.767578
62440,5.161899,-1.091756,-4.975151,21.057129,-5.615234,18.646240,40.736328
62480,4.299986,-0.943315,-4.295198,17.242432,-22.766113,15.899658,40.767578
62520,5.099649,-1.527501,-4.060566,18.951416,-35.400391,10.162354,40.755859
62560,6.392519,-1.877054,-4.438850,8.056641,-19.622803,4.943848,40.767578
62600,7.603985,-1.939303,-4.630386,-6.195068,3.753662,1.983643,40.744141
62640,8.690952,-1.991976,-5.339070,-17.639160,8.270264,25.573730,40.730469
62680,10.089166,-1.714248,-6.732495,-6.988525,2.105713,27.832031,40.781250
62720,11.003751,-2.715025,-6.976704,-4.058838,-4.760742,30.273438,40.736328
62760,10.218452,-3.916914,-8.058883,18.981934,-24.932861,18.341064,40.753906
62800,7.489063,-4.458004,-7.900866,6.164551,-6.103516,-19.622803,40.748047
62840,4.256891,-4.740520,-7.694964,-22.277832,-3.845215,-0.457764,40.759766
62880,3.950433,-2.877831,-8.518570,-26.763916,3.021240,-7.171631,40.722656
62920,5.712565,-2.446874,-8.403648,-39.733887,22.308350,-11.383057,40.753906
62960,6.564901,-2.035071,-6.761226,-29.846191,14.129639,-20.416260,40.779297
63000,5.109226,-1.326388,-5.444415,-22.308350,-1.739502,-15.014648,40.746094
63040,4.520253,-1.110910,-4.788404,-26.000977,-6.530762,-8.087158,40.740234
63080,5.702989,-0.885855,-4.568137,-23.956299,1.007080,-0.244141,40.773438
63120,7.153875,-0.598550,-4.879383,-17.059326,13.092041,8.148193,40.734375
63160,8.384495,-0.292093,-5.382165,-15.197754,34.545898,2.624512,40.767578
63200,8.681376,-0.617704,-6.679823,-16.418457,26.519775,-13.458252,40.730469
63240,9.911995,-0.866701,-6.991069,-14.556885,41.015625,-18.737793,40.775391
63280,11.133038,-1.091756,-7.575254,0.671387,52.520752,-27.252197,40.759766
63320,11.410766,-0.584185,-8.212111,22.949219,45.501709,-32.592773,40.757812
63360,7.091625,-0.804452,-8.576031,26.458740,-29.754639,-3.204346,40.777344
63400,5.281609,-2.451663,-7.503428,35.003662,-76.385498,12.603760,40.753906
63440,6.205771,-3.567361,-6.105214,40.069580,-48.645020,20.416260,40.734375
63480,6.799533,-3.141193,-5.908890,29.968262,-16.113281,9.887695,40.736328
63520,6.387730,-2.288857,-5.252879,37.536621,-10.864258,4.791260,40.738281
63560,5.128380,-1.508347,-4.965574,36.682129,-38.665771,9.948730,40.746094
63600,5.152322,-1.580173,-4.841076,31.341553,-49.041748,16.998291,40.746094
63640,6.382942,-1.972822,-4.855441,19.134521,-23.376465,9.674072,40.775391
63680,6.885724,-2.231396,-4.797980,1.800537,1.739502,-0.427246,40.750000
63720,7.302315,-2.303222,-5.133168,-7.812500,11.444092,3.540039,40.763672
63760,8.432379,-2.384625,-6.339846,-6.896973,-0.396729,13.427734,40.744141
63800,10.486604,-2.858677,-6.804321,-2.197266,11.566162,14.129639,40.742188
63840,10.074800,-3.940856,-7.000646,-7.934570,11.657715,12.115479,40.734375
63880,9.006987,-4.242526,-8.494628,11.230469,-2.716064,-1.129150,40.753906
63920,5.937620,-4.108450,-7.929596,8.148193,-5.340576,-16.021729,40.751953
63960,3.806781,-3.064578,-8.274361,-11.810303,-6.103516,5.706787,40.744141
64000,4.702212,-2.039860,-8.983045,-35.186768,8.697510,-5.462646,40.755859
64040,6.962338,-2.279280,-7.910442,-37.231445,27.221680,-21.911621,40.750000
64080,6.287174,-1.991976,-5.884948,-19.073486,18.066406,-28.045654,40.744141
64120,4.156334,-1.403002,-5.013458,-13.214111,-5.493164,-19.927979,40.750000
64160,4.419696,-1.211466,-4.491522,-12.756348,-4.394531,-11.077881,40.767578
64200,6.129156,-0.608127,-4.817134,-6.439209,7.049561,-1.190186,40.765625
64240,7.187394,-0.354342,-5.204995,2.777100,32.287598,0.946045,40.773438
64280,7.656657,-0.991199,-5.822699,3.936768,27.679443,-5.462646,40.775391
64320,9.586384,-1.359907,-6.253655,-0.091553,28.167725,-18.585205,40.755859
64360,11.085154,-1.187524,-6.603208,5.279541,48.034668,-28.900146,40.753906
64400,11.597513,-1.091756,-7.206547,11.749268,58.898926,-36.102295,40.759766
64440,10.658986,0.172383,-8.125920,27.923584,13.580322,-21.118164,40.751953
64480,6.813898,0.162806,-8.475474,53.619385,-49.072266,2.685547,40.740234
64520,4.927267,-2.700660,-7.603985,15.350342,-52.490234,12.542725,40.759766
64560,7.747637,-3.495534,-6.133945,3.662109,2.349854,22.033691,40.744141
64600,7.776367,-2.341529,-5.956774,13.671875,-2.532959,21.087646,40.738281
64640,6.296751,-0.919373,-5.430049,19.683838,-15.106201,29.449463,40.753906
64680,4.625597,-0.871489,-4.668694,3.112793,-12.603760,29.754639,40.740234
64720,5.046977,-1.690306,-4.491522,-4.180908,-26.428223,20.599365,40.746094
64760,6.507440,-2.116474,-4.711789,-4.638672,-14.221191,12.786865,40.748047
64800,7.177817,-2.030283,-4.802769,-13.061523,4.394531,11.230469,40.732422
64840,7.603985,-2.039860,-4.936844,-22.796631,10.620117,11.535645,40.740234
64880,8.628703,-2.240973,-5.487510,-22.949219,9.490967,15.075684,40.738281
64920,10.611102,-2.092532,-6.042965,-25.787354,16.815186,21.911621,40.730469
64960,10.951078,-2.470816,-5.822699,-34.362793,32.836914,22.644043,40.736328
65000,9.653421,-3.375824,-7.465121,-11.199951,12.268066,3.204346,40.742188
65040,7.714118,-3.979163,-8.183381,13.061523,-2.990723,-11.230469,40.755859
65080,4.663905,-3.778050,-7.623138,-2.807617,-13.977051,11.566162,40.755859
65120,4.783615,-2.217031,-8.092402,-18.707275,-12.390137,4.913330,40.753906
65160,6.818686,-1.857901,-8.001422,-30.883789,11.840820,-15.411377,40.748047
65200,7.010222,-2.183512,-6.133945,-23.712158,12.756348,-31.677246,40.750000
65240,5.085284,-1.814805,-4.927267,-14.923096,-1.647949,-28.167725,40.753906
