MS,Accel X (m/s²),Accel Y (m/s²),Accel Z (m/s²),Gyro X (°/s),Gyro Y (°/s),Gyro Z (°/s),Temp (°C)
2120,-1.106121,8.623915,-1.776498,-8.270264,7.446289,0.762939,27.816406
2160,-0.986411,8.781932,-2.054225,-4.455566,11.474609,3.784180,27.818359
2200,-1.134852,8.719683,-2.121263,-1.098633,13.519287,2.929688,27.814453
2240,-1.335965,9.141062,-2.217031,4.943848,15.838623,-2.136230,27.826172
2280,-1.551443,9.758766,-1.996764,-2.166748,19.470215,-5.828857,27.800781
2320,-1.618480,10.204087,-1.805228,-8.453369,18.402100,-4.913330,27.814453
2360,-1.522712,10.352529,-2.164358,-8.178711,15.991211,-5.523682,27.824219
2400,-1.522712,10.505757,-2.451663,-9.796143,18.920898,-5.950928,27.808594
2440,-1.211466,11.051635,-2.140416,-5.432129,26.336670,-3.967285,27.826172
2480,-0.636858,11.027693,-1.977611,1.525879,29.815674,-0.488281,27.818359
2520,-0.071826,10.280702,-2.652776,8.819580,16.510010,-10.589600,27.816406
2560,-0.181959,9.184157,-2.748544,-8.636475,11.596680,-15.350342,27.816406
2600,-0.277727,8.978256,-2.173935,-1.098633,15.411377,1.281738,27.808594
2640,-0.047884,9.327810,-1.728614,5.859375,21.881104,9.368896,27.816406
2680,-0.239420,8.987833,-1.929727,4.608154,17.395020,3.753662,27.837891
2720,-0.656011,8.647857,-2.183512,3.326416,9.948730,-8.148193,27.824219
2760,-1.101333,8.609550,-1.651999,0.885010,8.636475,-4.089355,27.833984
2800,-1.302446,8.667010,-1.441309,5.706787,7.232666,7.720947,27.841797
2840,-1.230620,8.978256,-1.915361,9.063721,4.150391,9.643555,27.826172
2880,-1.096544,9.639056,-1.968034,4.150391,0.610352,3.204346,27.832031
2920,-1.230620,9.998186,-1.379060,-0.793457,-6.225586,-4.455566,27.845703
2960,-1.455675,10.070012,-1.063026,-5.584717,-9.643555,-5.493164,27.828125
3000,-1.379060,10.285490,-1.613692,-4.852295,-10.925293,-2.899170,27.839844
3040,-1.278504,10.376471,-2.154782,3.540039,-10.009766,-4.089355,27.845703
3080,-1.651999,10.424355,-2.240973,15.075684,-9.490967,-3.173828,27.837891
3120,-1.723825,11.042058,-2.983175,18.127441,-16.479492,2.319336,27.845703
3160,-0.842759,11.449073,-3.548207,5.615234,-20.935059,-4.028320,27.824219
3200,-0.052672,10.558430,-2.882619,-14.343262,-23.925781,-6.988525,27.865234
3240,-0.177171,9.203311,-2.485181,-14.709473,-25.726318,6.317139,27.845703
3280,-0.450110,8.805874,-2.973598,-7.080078,-19.042969,19.226074,27.841797
3320,-0.191536,9.433155,-2.968810,0.854492,-6.927490,12.084961,27.845703
3360,-0.368707,9.097966,-1.958457,-2.685547,-7.690430,-1.068115,27.851562
3400,-0.976834,8.441956,-1.465251,-7.934570,-7.080078,-0.488281,27.876953
3440,-1.235408,8.322245,-1.781286,-8.209229,-1.098633,5.767822,27.871094
3480,-1.249773,8.255207,-1.953669,-4.974365,0.762939,6.927490,27.871094
3520,-1.259350,8.489840,-2.044648,-2.288818,3.204346,2.502441,27.876953
3560,-1.383849,9.179369,-2.001553,-2.227783,7.385254,-2.838135,27.861328
3600,-1.465251,10.074800,-1.867477,-5.859375,12.084961,-0.579834,27.859375
3640,-1.225831,10.860099,-1.948880,-4.486084,15.655518,-0.274658,27.855469
3680,-1.278504,11.008539,-2.068590,-2.349854,20.721436,-0.488281,27.869141
3720,-0.981623,11.516110,-2.226608,6.774902,30.242920,0.152588,27.857422
3760,-0.019154,11.832145,-2.456451,11.413574,29.388428,-3.143311,27.898438
3800,0.397437,10.448297,-2.475605,1.037598,19.073486,-17.059326,27.880859
3840,0.177171,8.848969,-2.178724,-7.141113,16.204834,-14.831543,27.896484
3880,0.220267,8.877700,-1.580173,3.540039,17.669678,0.244141,27.878906
3920,0.138864,9.011775,-1.422156,1.281738,16.418457,9.246826,27.876953
3960,-0.258574,8.614338,-1.968034,1.739502,12.268066,3.753662,27.886719
4000,-0.632069,8.494628,-1.958457,2.960205,8.758545,-3.631592,27.902344
4040,-0.847547,8.777143,-1.388637,2.685547,4.577637,-0.885010,27.896484
4080,-1.019930,8.829816,-1.302446,6.835938,0.457764,4.486084,28.000000
4120,-1.077391,9.198523,-1.738190,8.178711,-1.159668,1.007080,27.972656
4160,-1.149217,9.739613,-1.647211,3.601074,-4.974365,-6.072998,27.978516
4200,-1.335965,10.084377,-1.067814,1.922607,-10.528564,-5.310059,27.986328
4240,-1.254562,10.491392,-1.225831,-0.091553,-14.068604,-2.044678,28.001953
4280,-1.130063,10.649409,-1.944092,3.509521,-12.573242,-2.807617,28.007812
4320,-1.288081,10.649409,-2.073379,8.636475,-11.962891,-1.098633,28.000000
4360,-1.039083,11.295844,-2.628834,7.659912,-14.129639,3.295898,27.982422
4400,-0.143652,11.583148,-3.208230,-5.401611,-10.742188,-1.281738,27.996094
4440,0.517148,10.644621,-2.796427,-9.765625,-10.467529,-1.281738,27.984375
4480,0.301669,9.203311,-2.868254,-12.207031,-11.383057,7.751465,27.990234
4520,0.038307,8.935161,-3.145981,-3.204346,-0.213623,9.704590,27.990234
4560,-0.038307,9.169792,-2.240973,1.647949,10.345459,-1.739502,28.005859
4600,-0.497994,8.508993,-1.053449,-5.187988,8.575439,-2.014160,28.013672
4640,-0.957681,8.073248,-1.465251,-5.279541,10.009766,4.760742,28.005859
4680,-1.005565,8.346188,-2.394202,-4.730225,12.725830,6.256104,27.994141
4720,-0.991199,8.628703,-2.413355,-1.831055,11.627197,1.708984,28.007812
4760,-1.240196,8.882488,-2.054225,1.037598,12.512207,-4.608154,28.013672
4800,-1.623269,9.528923,-2.001553,-3.234863,16.387939,-6.439209,27.998047
4840,-1.589750,10.491392,-2.063802,-5.523682,19.439697,-4.211426,28.003906
4880,-1.326388,11.022904,-2.197877,-5.310059,20.507812,-6.408691,28.025391
4920,-1.254562,11.161768,-2.255338,-4.241943,26.031494,-4.333496,28.029297
4960,-0.608127,11.674128,-2.456451,6.561279,33.508301,-2.319336,28.017578
5000,0.229843,11.324574,-2.786851,10.986328,22.827148,-12.481689,28.017578
5040,0.306458,9.840169,-2.585738,-11.688232,15.747070,-18.432617,28.033203
5080,0.349553,9.303867,-1.958457,-1.831055,17.944336,-4.547119,28.027344
5120,0.335188,9.361329,-1.508347,-0.457764,19.073486,2.563477,28.027344
5160,-0.119710,8.729259,-1.709460,-5.615234,16.479492,-3.540039,28.031250
5200,-0.588974,8.164227,-1.872266,-4.699707,13.610840,-9.277344,28.027344
5240,-0.871489,8.173804,-1.460463,-4.882812,9.460449,-5.096436,28.023438
5280,-1.010353,8.355764,-1.364695,1.434326,4.516602,1.617432,28.019531
5320,-1.225831,8.542512,-1.771709,7.324219,0.183105,4.547119,28.046875
5360,-1.302446,9.227253,-1.613692,5.432129,-4.028320,-0.946045,28.037109
5400,-1.379060,10.007763,-0.919373,-0.885010,-8.728027,-2.410889,28.033203
5440,-1.355118,10.572795,-0.938527,0.671387,-12.115479,-0.213623,28.048828
5480,-1.182736,10.998962,-1.790863,6.622314,-11.840820,-2.746582,28.013672
5520,-1.460463,11.013328,-2.102109,12.329102,-13.153076,-4.913330,28.033203
5560,-1.446098,11.429919,-2.796427,17.089844,-17.120361,-0.030518,28.041016
5600,-0.483629,11.899182,-3.462016,0.152588,-17.913818,-3.356934,28.035156
5640,0.287304,10.951078,-2.887407,-18.249512,-18.646240,-1.739502,28.052734
5680,0.167594,9.308656,-2.748544,-12.573242,-19.653320,8.789062,28.041016
5720,-0.124498,8.681376,-3.165135,-2.532959,-14.038086,13.763428,28.046875
5760,-0.143652,8.987833,-2.691083,-0.061035,-1.190186,0.183105,28.042969
5800,-0.526724,8.580819,-1.513135,-3.814697,-0.122070,-3.631592,28.054688
5840,-0.986411,8.073248,-1.340753,-7.385254,1.220703,1.037598,28.054688
5880,-1.082179,8.178593,-1.948880,-9.063721,6.805420,3.173828,28.058594
5920,-1.058237,8.470686,-2.073379,-4.608154,10.162354,1.647949,28.042969
5960,-1.268927,8.863335,-1.833959,-0.457764,13.366699,-3.784180,28.068359
6000,-1.594538,9.586384,-1.819593,-2.899170,18.676758,-7.049561,28.042969
6040,-1.484405,10.620679,-2.039860,-6.408691,21.392822,-9.948730,28.037109
6080,-1.364695,10.821792,-2.063802,-12.268066,24.414062,-11.505127,28.134766
6120,-1.345541,10.879252,-1.723825,-7.598877,37.567139,-5.126953,28.156250
6160,-0.632069,11.405977,-1.795651,7.476807,46.295166,-2.960205,28.132812
6200,0.158017,11.075577,-2.480393,14.038086,39.459229,-13.824463,28.150391
6240,0.033519,9.643845,-2.786851,-16.815186,22.979736,-18.066406,28.150391
6280,-0.186748,9.016563,-2.384625,-14.739990,20.904541,1.525879,28.148438
6320,-0.234632,9.232041,-1.508347,4.577637,21.942139,9.613037,28.158203
6360,-0.545878,8.815451,-1.302446,-20.141602,22.857666,14.221191,28.138672
6400,-0.790087,8.288726,-1.517924,-39.489746,14.038086,16.265869,28.138672
6440,-0.957681,8.006210,-1.340753,-47.973633,1.892090,19.531250,28.154297
6480,-0.871489,8.437167,-0.881066,-24.536133,-4.699707,20.202637,28.171875
6520,-0.584185,9.198523,-0.205901,-21.209717,-2.502441,26.641846,28.154297
6560,-0.363919,9.902418,-0.019154,-9.948730,-10.559082,20.843506,28.152344
6600,-0.363919,10.314221,0.124498,-19.775391,-17.272949,10.589600,28.171875
6640,-0.507571,10.568007,0.521936,-21.514893,-18.554688,3.417969,28.167969
6680,-0.263362,11.109096,0.612916,-2.410889,-14.862061,0.976562,28.160156
6720,-0.158017,11.645397,0.076614,-2.868652,-14.984131,-0.793457,28.187500
6760,-0.402226,11.487380,-0.296881,-2.868652,-19.622803,6.286621,28.177734
6800,0.153229,11.578360,-0.497994,14.251709,-20.446777,5.767822,28.189453
6840,1.187524,11.496957,-0.339977,-2.807617,-13.854980,-8.605957,28.185547
6880,1.278504,10.390836,-0.138864,-24.810791,-11.383057,-4.394531,28.179688
6920,0.814029,9.141062,-0.488417,-14.221191,-19.165039,16.204834,28.164062
6960,0.943315,9.088389,-0.766145,5.462646,-13.427734,18.188477,28.185547
7000,1.019930,9.366117,-0.497994,1.312256,5.126953,-1.861572,28.187500
7040,0.373495,8.614338,0.110133,-8.636475,13.458252,-1.831055,28.177734
7080,-0.095768,8.202535,0.129287,-22.094727,13.916016,6.622314,28.197266
7120,-0.124498,8.403648,-0.225055,-14.007568,11.047363,11.108398,28.199219
7160,-0.191536,8.734048,-0.272939,-7.629395,10.925293,10.620117,28.191406
7200,-0.320823,9.342175,-0.205901,-4.821777,14.068604,11.566162,28.181641
7240,-0.177171,10.658986,-0.095768,-3.448486,15.472412,6.866455,28.197266
7280,0.181959,11.908759,0.143652,-15.106201,18.157959,-1.800537,28.207031
7320,0.215478,12.052411,0.617704,-19.287109,20.751953,-7.812500,28.197266
7360,0.158017,11.717223,0.751779,-22.613525,16.235352,-1.251221,28.197266
7400,0.809240,11.860875,0.464475,0.518799,17.974854,-16.143799,28.191406
7440,1.125275,10.975020,0.043096,-4.241943,6.530762,-30.487061,28.195312
7480,0.550666,9.126697,-0.004788,-11.657715,-9.582520,-14.221191,28.199219
7520,0.636858,8.499416,0.770933,-6.164551,-2.929688,3.112793,28.199219
7560,0.723049,8.461109,1.101333,2.502441,1.007080,4.974365,28.208984
7600,0.201113,8.197746,0.766145,10.314941,-7.629395,0.305176,28.208984
7640,-0.497994,7.829040,0.531513,10.559082,-16.967773,3.387451,28.205078
7680,-0.603339,8.346188,0.617704,2.410889,-13.488770,2.014160,28.214844
7720,-0.387861,8.959103,0.909797,12.634277,-7.080078,2.349854,28.228516
7760,-0.004788,9.562442,1.043872,5.554199,-12.329102,-5.157471,28.208984
7800,0.009577,9.902418,1.268927,2.136230,-12.115479,-13.854980,28.222656
7840,-0.172383,10.275913,1.441309,17.913818,-19.866943,-11.932373,28.216797
7880,-0.277727,10.970232,0.933739,6.103516,-20.507812,-1.007080,28.234375
7920,-0.459687,11.453861,0.402226,8.117676,-21.606445,0.885010,28.208984
7960,-0.316035,11.990162,-0.047884,6.896973,-18.981934,0.732422,28.222656
8000,0.454898,12.272678,-0.531513,-3.479004,-22.949219,-6.134033,28.242188
8040,0.770933,11.180922,-0.287304,-19.775391,-22.888184,-6.286621,28.279297
8080,0.435745,9.787497,-0.368707,-23.406982,-25.604248,10.986328,28.300781
8120,0.373495,9.150639,-0.699107,4.119873,-30.944824,24.871826,28.314453
8160,0.632069,9.203311,-0.177171,13.854980,-18.951416,7.080078,28.310547
8200,0.378284,8.566454,0.349553,21.026611,-11.871338,-10.070801,28.300781
8240,-0.124498,7.905654,0.469264,3.997803,-3.753662,-1.708984,28.298828
8280,-0.282516,8.379706,-0.124498,-15.502930,0.610352,1.007080,28.300781
8320,-0.244209,9.088389,-0.732626,-26.580811,-1.281738,7.843018,28.316406
8360,-0.373495,9.662998,-0.641646,-38.970947,1.922607,10.131836,28.292969
8400,-0.469264,10.419566,0.086191,-41.473389,8.178711,7.232666,28.310547
8440,-0.186748,11.204864,1.072602,-28.320312,16.021729,3.509521,28.322266
8480,-0.043096,11.645397,1.723825,-23.315430,19.104004,5.981445,28.314453
8520,0.239420,12.018892,1.561020,-40.405273,14.495850,11.230469,28.300781
8560,1.077391,12.205640,1.618480,-12.023926,18.188477,-4.638672,28.308594
8600,1.039083,10.778696,1.493982,15.380859,14.129639,-25.634766,28.316406
8640,0.244209,9.150639,0.526724,-6.378174,-15.319824,-16.784668,28.314453
8680,0.090980,8.710106,0.354342,-18.371582,-32.531738,-1.495361,28.314453
8720,0.110133,8.422802,0.981623,-6.530762,-35.980225,2.807617,28.314453
8760,-0.124498,7.819463,1.479617,-3.234863,-34.423828,-1.098633,28.320312
8800,-0.392649,7.498640,1.417367,16.906738,-46.997070,-8.941650,28.318359
8840,-0.359130,7.963115,1.297657,30.975342,-69.610596,-6.378174,28.310547
8880,0.043096,8.925584,1.628057,22.277832,-55.999756,-7.965088,28.304688
8920,0.430956,9.696517,2.073379,10.925293,-44.128418,-11.535645,28.320312
8960,0.402226,9.873688,2.207454,18.524170,-48.706055,-14.160156,28.302734
9000,0.215478,9.557653,2.432509,10.375977,-45.837402,-1.464844,28.328125
9040,0.272939,9.768343,2.331953,12.481689,-37.017822,10.223389,28.324219
9080,0.153229,10.084377,1.747767,10.955811,-48.522949,22.003174,28.337891
9120,0.258574,10.587160,0.823605,12.939453,-53.619385,42.083740,28.332031
9160,0.948104,10.726024,-0.818817,5.401611,-77.636719,53.680420,28.328125
9200,1.489193,9.423578,-1.824382,22.064209,-111.450195,61.614990,28.347656
9240,1.766921,7.848193,-2.126051,23.986816,-127.746582,92.224121,28.324219
9280,2.145205,7.450756,-2.121263,25.878906,-122.070312,97.076416,28.320312
9320,2.877831,6.517017,-1.771709,51.361084,-108.886719,107.513428,28.349609
9360,3.557784,6.129156,-2.092532,-7.080078,-87.646484,159.210205,28.333984
9400,4.247314,6.684611,-2.576161,-48.065186,-143.524170,157.043457,28.349609
9440,5.904101,7.259220,-2.202666,-28.991699,-147.888184,137.573242,28.343750
9480,6.694188,7.465121,-1.948880,-12.115479,-112.243652,131.683350,28.337891
9520,7.450756,7.867347,-2.183512,-24.871826,-85.083008,119.354248,28.361328
9560,9.040505,8.264784,-1.968034,-1.770020,-49.774170,157.043457,28.367188
9600,10.692505,8.973468,-2.035071,29.846191,-18.463135,137.054443,28.343750
9640,11.808203,8.753201,-2.715025,38.146973,-15.747070,79.315186,28.369141
9680,11.085154,6.684611,-4.041412,-10.406494,6.317139,48.889160,28.363281
9720,9.524135,5.544971,-5.453991,-78.796387,-0.305176,50.506592,28.357422
9760,8.307879,4.754885,-5.114015,-51.147461,-49.957275,41.015625,28.355469
9800,7.364564,3.926491,-3.696647,-39.367676,-44.189453,52.825928,28.384766
9840,7.244854,3.859453,-2.762909,-15.319824,-5.279541,60.638428,28.347656
9880,7.570466,4.352659,-2.537854,0.488281,17.639160,43.121338,28.376953
9920,7.728483,4.774038,-2.106898,29.449463,-10.620117,19.561768,28.361328
9960,6.962338,3.222595,-2.054225,-14.526367,-1.800537,37.872314,28.363281
10000,6.957550,2.293645,-2.207454,-60.028076,22.247314,31.036377,28.367188
10040,8.255207,2.997540,-2.580950,-70.159912,5.462646,32.623291,28.451172
10080,9.241618,3.845088,-2.461239,-35.675049,8.117676,45.745850,28.449219
10120,9.964667,3.514688,-2.135628,-45.379639,23.345947,51.544189,28.445312
10160,10.582372,2.580950,-1.738190,-39.093018,11.199951,123.382568,28.445312
10200,10.907983,2.317587,-2.073379,-21.911621,38.269043,-43.823242,28.451172
10240,10.927136,2.145205,-2.628834,-47.485352,57.983398,-77.819824,28.460938
10280,11.089942,2.413355,-3.040636,-55.725098,73.089600,-75.805664,28.458984
10320,10.625467,2.030283,-3.533842,-68.450928,76.629639,-73.638916,28.455078
10360,9.672575,2.217031,-4.022259,-65.887451,62.194824,-77.178955,28.464844
10400,9.188946,2.312799,-3.596091,-48.797607,0.274658,-42.999268,28.468750
10440,8.714894,2.442086,-0.914585,-46.356201,11.047363,-30.761719,28.451172
10480,7.852982,3.160346,0.574608,-19.836426,-1.007080,-45.104980,28.455078
10520,6.263232,4.687847,-0.114922,-32.745361,-9.979248,-70.892334,28.453125
10560,5.683835,5.621585,-1.307234,-84.075928,-130.493164,-17.944336,28.460938
10600,6.435614,4.989516,0.138864,-55.541992,-55.694580,2.410889,28.453125
10640,7.886500,4.702212,1.134852,10.040283,3.936768,-2.105713,28.468750
10680,8.882488,5.295974,0.943315,-15.869141,21.636963,-12.573242,28.464844
10720,9.428367,5.779603,0.272939,-13.641357,18.585205,-16.906738,28.460938
10760,8.987833,6.042965,0.842759,19.866943,5.493164,-24.780273,28.468750
10800,8.561666,5.817910,1.230620,-23.742676,53.344727,8.636475,28.468750
10840,9.495404,8.154651,-0.344765,-83.068848,99.334717,6.866455,28.482422
10880,9.892841,10.529699,-0.512359,30.242920,-0.091553,-83.343506,28.484375
10920,7.824251,7.651869,-0.919373,31.799316,-16.052246,-100.616455,28.474609
10960,6.133945,3.749320,-0.627281,-45.074463,-10.284424,-43.426514,28.478516
11000,6.536170,3.303998,1.043872,22.338867,-22.125244,-36.254883,28.492188
11040,7.086837,4.525041,1.144428,-12.207031,-20.019531,-2.990723,28.458984
11080,6.761226,5.808333,0.565032,-43.060303,-30.731201,3.143311,28.470703
11120,6.157887,5.602432,0.287304,-23.193359,-69.305420,-4.028320,28.496094
11160,6.555324,4.486734,0.718261,5.859375,-79.711914,10.803223,28.488281
11200,8.753201,4.984728,1.599327,-26.763916,-11.169434,35.949707,28.509766
11240,10.261548,5.300763,1.584962,-69.854736,59.692383,62.622070,28.488281
11280,10.156203,4.802769,0.679953,-73.028564,20.874023,43.945312,28.482422
11320,9.279925,3.691859,1.029507,-53.375244,-26.184082,68.664551,28.507812
11360,8.939949,4.141969,1.288081,-104.888916,-33.081055,102.478027,28.503906
11400,10.055647,6.435614,0.593762,-73.059082,-90.606689,66.589355,28.494141
11440,10.975020,7.982268,-1.244985,-50.781250,-184.844971,41.320801,28.500000
11480,9.844957,5.334281,-1.441309,-25.177002,-207.031250,88.378906,28.505859
11520,8.130709,2.183512,-1.972822,-69.396973,-155.120850,193.328857,28.511719
11560,8.259995,2.092532,-1.599327,-58.776855,-106.872559,134.460449,28.515625
11600,8.753201,2.403779,-2.451663,-23.620605,-79.650879,67.474365,28.511719
11640,8.997410,3.241749,-4.012682,-26.794434,-140.625000,-51.574707,28.500000
11680,8.997410,4.199430,-3.524265,37.841797,-174.316406,-138.641357,28.505859
11720,7.790732,3.821146,-3.691859,29.327393,-144.378662,-124.877930,28.505859
11760,6.296751,4.161122,-5.166687,1.678467,-107.238770,-89.080811,28.505859
11800,6.258443,4.218584,-6.076484,10.223389,-90.545654,-92.224121,28.507812
11840,6.440403,3.605668,-5.798757,14.312744,-31.066895,-63.018799,28.513672
11880,7.015011,5.310339,-6.268020,12.512207,5.523682,-116.333008,28.511719
11920,6.517017,5.717354,-7.603985,41.473389,-1.708984,-144.042969,28.517578
11960,5.635951,5.219360,-7.943961,40.954590,28.747559,-104.034424,28.501953
12000,5.631162,6.646304,-7.177817,53.955078,109.100342,-187.164307,28.609375
12040,4.774038,4.228160,-7.182605,77.423096,135.803223,-190.307617,28.599609
12080,5.276821,2.020706,-6.287174,131.042480,146.331787,-89.172363,28.625000
12120,6.612785,3.323152,-6.076484,158.813477,114.379883,-42.724609,28.611328
12160,7.273585,3.064578,-6.493075,159.820557,122.772217,-113.311768,28.603516
12200,5.554548,2.255338,-6.311116,120.208740,140.777588,-93.078613,28.613281
12240,5.607220,2.944868,-5.133168,96.099854,154.388428,-96.435547,28.625000
12280,6.325481,4.314352,-5.286397,57.098389,148.712158,-132.415771,28.634766
12320,6.181829,5.501875,-5.128380,84.167480,198.638916,-216.674805,28.619141
12360,5.176264,5.463568,-4.529830,-103.759766,92.285156,-210.937500,28.634766
12400,5.003881,5.597643,-3.845088,-203.613281,99.517822,-105.529785,28.619141
12440,4.448427,6.435614,-1.110910,-175.292969,85.418701,-87.066650,28.626953
12480,4.582502,7.967903,1.240196,-188.781738,184.936523,-85.601807,28.605469
12520,5.070919,9.198523,1.297657,-86.761475,150.634766,-19.317627,28.623047
12560,7.192182,10.491392,-0.181959,-177.703857,82.611084,-3.631592,28.646484
12600,8.183381,8.303091,-0.339977,-260.345459,0.152588,88.317871,28.625000
12640,7.244854,4.831499,2.193089,-348.968506,-214.508057,203.399658,28.636719
12680,9.854534,5.731719,5.588067,46.997070,-332.702637,-82.519531,28.609375
12720,9.639056,5.631162,4.419696,23.559570,-162.109375,-25.329590,28.634766
12760,7.575254,4.084508,2.341529,-7.446289,-97.778320,-17.181396,28.638672
12800,7.034164,4.726154,1.541866,29.663086,-93.963623,-16.540527,28.644531
12840,6.277597,4.620809,1.738190,-11.383057,-30.212402,12.603760,28.634766
12880,5.808333,4.917690,1.747767,-26.214600,-26.306152,13.458252,28.611328
12920,5.707777,6.023811,0.785298,-10.314941,-204.376221,-122.467041,28.636719
12960,9.825804,8.896853,0.938527,-19.012451,-11.993408,44.830322,28.634766
13000,11.161768,9.533711,1.163582,10.375977,37.414551,91.125488,28.662109
13040,10.773908,8.398860,0.699107,49.499512,70.465088,67.413330,28.648438
13080,9.533711,4.707001,-1.513135,-17.852783,95.245361,48.004150,28.638672
13120,9.519346,3.730166,-1.800440,-34.545898,55.603027,13.092041,28.660156
13160,10.414778,3.730166,0.876278,-4.882812,45.013428,12.786865,28.642578
13200,10.084377,5.233725,0.617704,-87.005615,10.955811,13.214111,28.642578
13240,6.445191,5.410896,1.742979,-64.239502,-11.077881,-85.571289,28.654297
13280,5.190629,2.446874,0.411803,-12.847900,-90.911865,-113.616943,28.664062
13320,7.565677,0.828394,1.067814,10.223389,6.683350,44.464111,28.652344
13360,7.872135,2.920926,2.523489,-6.439209,40.252686,19.622803,28.626953
13400,6.239290,4.845864,4.031836,-69.152832,-23.773193,-23.620605,28.654297
13440,5.616797,7.244854,5.114015,-195.312500,-48.004150,-213.836670,28.640625
13480,9.184157,7.450756,2.604892,-95.581055,-3.601074,-63.781738,28.654297
13520,9.806650,6.430826,4.390966,-30.975342,-21.911621,52.947998,28.667969
13560,9.821015,6.971915,4.563348,-13.275146,-50.933838,66.772461,28.642578
13600,10.826580,6.191406,1.661576,-13.000488,-45.806885,37.750244,28.642578
13640,9.787497,3.916914,0.493206,40.832520,9.674072,-9.307861,28.650391
13680,8.978256,5.166687,-0.114922,18.676758,-119.750977,-20.050049,28.667969
13720,8.762778,6.440403,-0.885855,28.778076,-1.892090,-51.452637,28.669922
13760,7.781156,6.263232,-0.574608,59.448242,19.531250,1.861572,28.671875
13800,6.215348,4.754885,-0.493206,97.961426,-75.988770,-0.274658,28.664062
13840,4.927267,4.841076,-0.201113,44.311523,11.260986,-15.228271,28.683594
13880,4.271256,5.870583,1.249773,92.926025,123.229980,-28.472900,28.667969
13920,5.286397,6.947973,2.212242,55.084229,89.355469,10.406494,28.667969
13960,6.517017,7.465121,1.240196,74.859619,37.567139,33.843994,28.677734
14000,6.722919,6.904878,1.043872,43.823242,-61.462402,38.543701,28.740234
14040,7.536947,7.091625,0.703895,79.132080,-45.898438,39.337158,28.744141
14080,9.016563,7.307104,1.192312,69.000244,-11.016846,22.918701,28.744141
14120,8.825027,6.789956,0.852336,-37.689209,-1.861572,-79.742432,28.742188
14160,9.064447,7.718906,-0.804452,-48.950195,-235.168457,-23.284912,28.746094
14200,9.452309,7.110779,-3.064578,-80.017090,-243.194580,45.440674,28.746094
14240,6.598420,5.444415,-5.272032,4.974365,-28.228760,-1.953125,28.746094
14280,6.828263,4.817134,-3.854665,11.596680,-32.318115,-8.514404,28.734375
14320,9.088389,5.391742,-3.404555,22.369385,62.133789,-17.242432,28.763672
14360,8.374918,5.736507,-3.643975,5.157471,144.195557,-42.938232,28.763672
14400,5.190629,5.712565,-2.887407,40.954590,82.763672,-27.679443,28.720703
14440,4.826711,4.999093,-1.972822,24.993896,26.855469,-18.157959,28.761719
14480,6.344635,5.726931,-0.502782,18.432617,79.193115,-41.351318,28.746094
14520,6.780379,6.555324,-0.100556,16.204834,43.609619,-20.568848,28.750000
14560,5.597643,7.048530,0.713472,-9.521484,50.750732,-30.029297,28.763672
14600,6.071695,7.072472,0.656011,-19.561768,-8.728027,-30.487061,28.775391
14640,6.636727,8.212111,0.344765,-27.404785,-5.126953,-8.239746,28.765625
14680,7.134721,8.892065,1.000776,-38.940430,5.920410,4.852295,28.771484
14720,7.129933,8.667010,1.939303,-46.966553,-27.862549,-0.274658,28.763672
14760,7.479486,7.958326,-0.248997,-22.186279,-46.173096,-3.601074,28.736328
14800,8.111555,6.378153,-3.193865,8.758545,-17.974854,-15.838623,28.773438
14840,7.900866,6.617573,-3.327940,-3.295898,-15.563965,-5.493164,28.777344
14880,6.804321,8.350976,-2.346318,7.598877,-3.082275,-19.805908,28.759766
14920,7.211336,8.604761,-1.565808,27.954102,32.165527,-30.151367,28.753906
14960,7.177817,6.473921,-1.493982,24.414062,32.012939,-23.254395,28.759766
15000,5.420473,4.994305,-1.886631,27.679443,46.478271,-25.360107,28.771484
15040,4.577713,6.181829,-1.058237,26.947021,56.365967,-28.442383,28.769531
15080,4.065354,7.359776,-0.033519,23.406982,34.454346,-22.399902,28.775391
15120,4.141969,7.254431,0.052672,15.472412,8.728027,-2.990723,28.761719
15160,4.611232,7.680599,0.158017,18.646240,5.126953,-1.678467,28.765625
15200,5.760449,8.212111,0.196325,22.155762,16.082764,-9.368896,28.785156
15240,6.718130,9.418790,0.512359,18.157959,27.191162,-11.352539,28.794922
15280,6.478710,10.462662,1.077391,14.923096,39.215088,-11.108398,28.783203
15320,6.713342,10.769119,0.268151,19.012451,39.672852,-9.521484,28.779297
15360,6.095637,9.873688,-1.991976,12.023926,40.466309,-3.570557,28.779297
15400,6.052542,7.297527,-3.327940,18.951416,3.875732,1.129150,28.787109
15440,7.546524,6.713342,-2.303222,24.047852,-5.523682,7.293701,28.794922
15480,7.192182,8.566454,-0.555455,3.906250,2.288818,7.781982,28.779297
15520,5.607220,8.240842,-0.847547,-4.974365,-19.317627,13.244629,28.794922
15560,4.553771,5.956774,-1.273715,-3.875732,-34.423828,20.080566,28.792969
15600,4.390966,5.209783,-0.905008,-2.960205,-28.625488,9.765625,28.783203
15640,5.272032,6.110003,-0.349553,7.568359,-10.681152,5.310059,28.779297
15680,5.573701,6.708553,0.191536,7.415771,0.823975,-2.197266,28.794922
15720,5.473145,7.125144,0.526724,3.173828,-0.274658,-7.293701,28.783203
15760,5.602432,8.504205,0.225055,-14.038086,-17.517090,-4.180908,28.802734
15800,6.234501,10.151415,0.191536,-6.805420,-25.268555,6.011963,28.808594
15840,7.240066,10.208876,0.675165,-27.008057,-35.461426,17.272949,28.775391
15880,8.097190,9.241618,-2.264915,-18.432617,-65.826416,19.073486,28.818359
15920,8.738836,7.034164,-4.429273,5.065918,9.674072,8.789062,28.798828
15960,6.200983,6.732495,-4.539406,-19.348145,-21.911621,-6.958008,28.880859
16000,5.238513,8.676587,-4.587290,5.310059,-10.223389,-6.072998,28.861328
16040,7.005434,8.465898,-2.590526,42.053223,31.463623,-24.230957,28.886719
16080,6.186617,6.531382,-2.255338,33.172607,27.282715,-19.714355,28.851562
16120,4.371812,5.659893,-2.451663,41.290283,21.545410,-13.153076,28.882812
16160,3.624821,6.698977,-2.135628,57.891846,37.414551,-17.852783,28.882812
16200,4.362236,7.781156,-1.666364,35.491943,14.190674,-8.422852,28.900391
16240,5.272032,8.111555,-1.642422,35.491943,3.051758,-1.647949,28.871094
16280,5.272032,8.494628,-1.359907,27.740479,13.244629,-1.312256,28.871094
16320,5.559336,8.973468,-1.412579,25.177002,19.134521,-5.584717,28.890625
16360,6.540959,10.553641,-1.379060,9.063721,18.859863,-3.814697,28.859375
16400,7.402872,11.018116,-2.710236,19.989014,8.789062,0.488281,28.880859
16440,7.996634,10.797850,-2.906561,13.732910,9.948730,12.481689,28.861328
16480,7.311892,8.705317,-3.490746,-3.601074,1.861572,17.608643,28.880859
16520,6.502652,6.766014,-3.375824,-3.723145,12.847900,19.012451,28.892578
16560,5.928043,5.817910,-3.303998,-8.453369,6.072998,11.901855,28.884766
16600,5.415684,5.966351,-3.169923,-14.312744,-8.728027,4.455566,28.884766
16640,5.597643,6.842628,-2.585738,-16.693115,-12.420654,-2.990723,28.876953
16680,5.884948,6.588843,-2.480393,-4.241943,14.709473,2.777100,28.902344
16720,6.191406,5.899313,-2.154782,-4.974365,3.082275,6.713867,28.896484
16760,5.990293,5.856217,-1.948880,5.737305,-6.652832,6.866455,28.884766
16800,5.784391,6.603208,-1.900996,6.469727,-18.096924,12.145996,28.888672
16840,5.233725,6.493075,-1.857901,3.295898,-31.799316,12.054443,28.900391
16880,4.917690,5.928043,-1.551443,4.272461,-18.188477,8.605957,28.892578
16920,4.975151,5.813122,-0.981623,-14.038086,5.462646,-1.220703,28.894531
16960,5.353435,6.569689,-0.148441,-22.735596,15.197754,-12.115479,28.914062
17000,6.382942,7.843405,0.177171,-33.203125,5.950928,-11.596680,28.892578
17040,7.230489,8.719683,-0.641646,-30.303955,-12.390137,-0.091553,28.912109
17080,7.747637,9.275137,-2.054225,-7.598877,-69.091797,15.350342,28.933594
17120,7.771579,9.409213,-3.371036,-14.739990,-9.063721,-6.774902,28.906250
17160,7.814674,8.159439,-4.577713,-31.829834,10.803223,-10.070801,28.894531
17200,5.937620,7.762002,-4.635174,-23.223877,-18.737793,-18.676758,28.888672
17240,4.141969,8.058883,-3.816358,-1.586914,8.087158,-22.247314,28.914062
17280,5.358223,8.049306,-2.619257,2.075195,13.854980,-20.080566,28.906250
17320,5.621585,7.125144,-1.719037,-6.896973,32.714844,-21.942139,28.929688
17360,4.386178,6.153099,-1.781286,10.284424,30.609131,-9.521484,28.902344
17400,3.222595,6.038177,-1.699883,11.779785,13.427734,-5.645752,28.931641
17440,3.265691,6.789956,-1.216254,-1.983643,-2.563477,2.044678,28.921875
17480,3.974375,7.493851,-1.077391,-9.063721,-0.701904,9.674072,28.914062
17520,4.319140,8.025364,-0.608127,-9.887695,1.220703,3.784180,28.935547
17560,5.214571,8.892065,-0.497994,-18.432617,5.676270,-5.859375,28.929688
17600,5.822699,9.643845,-0.780510,-17.913818,26.336670,-10.162354,28.916016
17640,6.277597,10.141838,0.086191,1.739502,54.168701,-10.253906,28.906250
17680,6.344635,11.032481,-0.028730,-2.929688,44.464111,-4.882812,28.925781
17720,5.583278,10.812215,-2.030283,-17.547607,10.223389,-2.075195,28.925781
17760,4.903325,8.446744,-3.706224,-10.833740,-11.566162,0.640869,28.935547
17800,5.813122,6.569689,-2.983175,-0.518799,-33.355713,4.058838,28.939453
17840,6.976704,8.145074,-0.986411,-14.251709,-9.277344,8.331299,28.927734
17880,5.851429,8.954314,-0.909797,-34.179688,-32.501221,12.237549,28.945312
17920,4.256891,7.230489,-1.656788,-33.233643,-45.867920,15.319824,28.933594
17960,3.883395,5.779603,-1.661576,-18.127441,-55.938721,14.801025,29.001953
18000,4.845864,6.052542,-0.799663,-13.183594,-43.395996,14.923096,29.011719
18040,5.554548,6.588843,-0.407014,-7.507324,-26.977539,10.375977,28.992188
18080,5.233725,6.770802,0.000000,-16.021729,-10.162354,-0.213623,29.009766
18120,5.209783,7.474698,0.248997,-13.916016,-25.360107,2.288818,29.021484
18160,5.157111,9.078813,0.052672,-25.329590,-38.970947,6.072998,29.011719
18200,6.019023,10.333375,0.373495,-21.179199,-41.412354,14.648438,28.992188
18240,7.125144,10.232818,0.617704,-39.764404,-63.232422,18.432617,28.992188
18280,7.527370,10.017340,-1.589750,-24.871826,-62.866211,7.934570,29.011719
18320,7.302315,7.876924,-3.031059,-21.728516,-11.688232,-6.835938,29.005859
18360,6.440403,6.502652,-3.806781,-31.555176,-53.680420,2.136230,29.013672
18400,4.429273,8.370130,-4.204218,-38.757324,-36.895752,-13.153076,29.005859
18440,4.898537,9.730036,-2.738967,23.376465,11.566162,-22.674561,29.007812
18480,5.817910,8.259995,-0.804452,4.333496,8.087158,-18.463135,29.013672
18520,4.912902,6.066907,-1.134852,-1.007080,0.762939,-9.979248,29.019531
18560,3.744531,5.645528,-1.273715,11.596680,25.207520,-10.223389,29.001953
18600,3.390190,6.555324,-0.713472,10.589600,-1.831055,-1.770020,29.005859
18640,3.610456,7.943961,-0.239420,-7.324219,-10.894775,6.713867,29.015625
18680,3.830723,8.518570,-0.268151,-12.481689,-7.598877,6.225586,29.035156
18720,4.707001,8.801085,-0.775721,-4.364014,-2.166748,-1.251221,29.015625
18760,5.736507,10.271125,-0.459687,2.471924,9.826660,-7.904053,29.021484
18800,6.737284,11.755530,0.263362,-0.457764,35.644531,-10.620117,29.025391
18840,6.157887,11.994950,-1.422156,-5.584717,29.266357,-10.253906,29.031250
18880,5.061342,10.160992,-3.385401,-3.936768,-6.622314,-0.854492,29.050781
18920,6.200983,6.612785,-3.576937,3.356934,-14.495850,5.889893,29.007812
18960,7.584831,6.196194,-2.020706,4.211426,-10.192871,5.737305,29.037109
19000,6.330269,8.173804,-1.235408,-7.568359,-30.517578,8.239746,29.025391
19040,4.635174,8.355764,-1.417367,-20.812988,-30.426025,10.833740,29.035156
19080,3.945644,5.884948,-1.565808,-18.646240,-43.548584,15.930176,29.033203
19120,4.199430,5.061342,-1.039083,-2.960205,-45.806885,12.145996,29.066406
19160,5.008670,6.143522,-0.363919,-3.967285,-36.560059,9.429932,29.025391
19200,5.310339,6.952762,-0.191536,-8.972168,-16.906738,1.861572,29.048828
19240,5.511452,7.359776,0.440533,-15.838623,-12.023926,-1.770020,29.052734
19280,5.276821,8.657434,0.272939,-24.597168,-32.165527,0.213623,29.044922
19320,5.956774,10.204087,0.057461,-19.042969,-33.111572,10.101318,29.035156
19360,7.297527,10.261548,0.952892,-46.630859,-46.020508,12.847900,29.035156
19400,8.231265,9.969456,-1.805228,-27.099609,-49.591064,1.922607,29.039062
19440,8.872911,8.164227,-3.950433,-9.429932,10.711670,-3.234863,29.039062
19480,6.229713,7.283162,-4.074931,-28.564453,-18.707275,-14.526367,29.046875
19520,3.605668,9.026140,-4.711789,-17.517090,-13.427734,-12.664795,29.046875
19560,4.534618,9.260772,-3.126827,23.529053,36.468506,-24.475098,29.068359
19600,5.947197,7.738060,-1.244985,16.326904,57.525635,-29.174805,29.056641
19640,4.845864,6.196194,-1.302446,10.253906,45.928955,-12.634277,29.066406
19680,3.351882,6.110003,-1.484405,18.188477,50.689697,-7.843018,29.050781
19720,2.734178,6.928820,-0.660800,9.857178,14.923096,-3.295898,29.066406
19760,3.313575,7.469909,-0.225055,3.143311,10.406494,2.960205,29.064453
19800,3.572149,8.097190,-0.057461,-2.563477,3.051758,5.401611,29.039062
19840,4.304775,8.652645,-0.359130,-2.258301,-3.509521,0.122070,29.062500
19880,5.319916,9.974244,-0.162806,1.373291,18.432617,-7.476807,29.060547
19920,5.616797,11.765107,1.441309,-3.570557,40.588379,-14.831543,29.123047
19960,5.640739,11.918336,0.474052,-4.180908,42.175293,-9.307861,29.126953
20000,4.735731,10.831368,-2.351106,-10.437012,8.300781,-5.401611,29.123047
20040,5.161899,8.140285,-3.744531,6.317139,-20.782471,0.427246,29.130859
20080,6.813898,6.459556,-2.600103,17.150879,-27.099609,6.225586,29.128906
20120,6.976704,8.700529,-0.746991,-7.263184,-18.463135,9.918213,29.119141
20160,5.305551,9.318233,-0.780510,-35.095215,-49.316406,11.169434,29.146484
20200,3.543418,7.354988,-1.407791,-29.479980,-54.534912,20.660400,29.150391
20240,3.198653,5.224148,-1.479617,-13.488770,-60.516357,15.197754,29.126953
20280,4.582502,5.770026,-0.311246,0.335693,-44.281006,11.260986,29.134766
20320,5.511452,6.947973,0.248997,0.183105,-24.749756,5.432129,29.132812
20360,5.521029,7.283162,0.703895,-7.354736,-5.920410,-3.753662,29.148438
20400,4.975151,8.020576,0.588974,-12.878418,-30.242920,0.488281,29.152344
20440,4.922479,9.959879,0.038307,-11.932373,-28.900146,1.373291,29.152344
20480,6.196194,10.879252,1.221043,-31.066895,-38.726807,10.345459,29.123047
20520,6.502652,10.572795,0.742203,-53.955078,-48.492432,-1.068115,29.136719
20560,7.757214,8.734048,-2.954445,-2.532959,-15.350342,-1.953125,29.160156
20600,7.498640,7.187394,-3.538630,-29.693604,-0.488281,-11.352539,29.138672
20640,4.994305,9.050082,-4.448427,-39.306641,-43.426514,-16.906738,29.132812
20680,3.993528,11.214440,-3.126827,6.378174,57.769775,-35.766602,29.146484
20720,5.741296,9.653421,-0.938527,14.068604,77.789307,-42.541504,29.162109
20760,5.329493,6.478710,-0.852336,4.425049,44.586182,-19.470215,29.150391
20800,3.576937,4.845864,-1.192312,22.521973,30.944824,-3.601074,29.136719
20840,2.509123,5.487510,-0.679953,26.367188,27.313232,-2.990723,29.152344
20880,2.566584,7.556100,0.186748,17.333984,12.512207,2.624512,29.146484
20920,2.849100,8.748413,0.474052,6.317139,6.622314,8.697510,29.167969
20960,3.586514,8.743625,0.162806,2.075195,1.373291,6.683350,29.136719
21000,4.750096,9.667787,0.105345,8.056641,12.115479,-1.983643,29.167969
21040,5.185841,11.473015,1.221043,4.669189,33.172607,-10.742188,29.142578
21080,5.698200,12.320562,0.995988,3.997803,44.860840,-10.070801,29.167969
21120,4.592079,11.568783,-1.728614,8.636475,19.561768,-7.659912,29.173828
21160,4.563348,8.820239,-3.476381,14.160156,8.941650,-0.671387,29.169922
21200,6.248867,7.110779,-2.193089,18.768311,-19.866943,6.378174,29.175781
21240,6.325481,9.500193,-0.411803,7.507324,-0.640869,11.260986,29.166016
21280,4.831499,9.653421,-0.603339,-30.609131,-33.813477,11.474609,29.140625
21320,3.337517,7.173028,-1.350330,-12.786865,-37.017822,17.883301,29.183594
21360,3.385401,5.425261,-0.794875,-5.249023,-40.527344,16.906738,29.166016
21400,3.835511,6.071695,-0.316035,10.040283,-36.071777,11.260986,29.158203
21440,4.256891,7.350199,0.316035,-3.417969,-16.906738,4.791260,29.164062
21480,4.754885,7.685388,0.593762,-11.962891,-19.714355,1.312256,29.160156
21520,4.616021,8.901642,0.636858,-15.502930,-36.285400,2.502441,29.179688
21560,5.128380,10.778696,0.474052,-7.720947,-34.576416,11.016846,29.177734
21600,6.148310,11.104307,1.154005,-32.501221,-45.898438,17.669678,29.187500
21640,6.406884,10.965444,-0.833182,-35.827637,-44.464111,2.655029,29.171875
21680,6.607996,8.829816,-2.940080,-23.864746,-4.150391,-6.439209,29.166016
21720,5.511452,7.522582,-3.514688,-35.583496,-42.114258,-6.988525,29.197266
21760,3.754108,9.715671,-4.060566,-33.447266,-47.058105,-10.681152,29.191406
21800,4.328717,10.864887,-2.245761,8.880615,28.381348,-28.930664,29.201172
21840,5.334281,8.791509,-0.723049,0.640869,25.207520,-27.038574,29.193359
21880,4.481946,6.062119,-1.115698,5.615234,21.545410,-9.338379,29.205078
21920,2.806004,5.343858,-1.115698,20.324707,23.345947,-9.124756,29.240234
21960,2.422932,6.435614,-0.450110,16.479492,3.692627,-1.007080,29.244141
22000,2.600103,8.106767,-0.119710,5.218506,-3.570557,4.791260,29.248047
22040,3.093309,8.561666,-0.191536,6.286621,-1.892090,5.004883,29.242188
22080,4.185065,9.284714,-0.272939,12.481689,1.922607,-0.335693,29.234375
22120,4.654328,11.334151,0.162806,7.171631,21.026611,-8.789062,29.257812
22160,4.620809,12.531252,1.345541,-2.166748,44.738770,-10.742188,29.253906
22200,4.228160,12.603078,-0.057461,-6.958008,43.853760,-7.751465,29.273438
22240,3.620033,10.850522,-2.767697,-9.613037,8.026123,-7.385254,29.271484
22280,4.572925,7.704541,-3.701436,9.735107,-14.953613,1.220703,29.240234
22320,6.191406,6.703765,-2.595315,27.862549,-20.690918,8.331299,29.251953
22360,6.076484,9.078813,-1.053449,2.075195,-27.252197,12.115479,29.255859
22400,4.587290,9.643845,-0.981623,-17.486572,-38.940430,14.312744,29.273438
22440,3.208230,7.326257,-1.426944,-25.085449,-46.051025,22.064209,29.275391
22480,3.102885,5.789180,-1.537078,-2.014160,-54.595947,18.768311,29.283203
22520,4.194642,6.545747,-0.397437,-1.861572,-42.449951,13.366699,29.257812
22560,4.750096,7.422025,0.181959,-12.054443,-22.766113,2.838135,29.279297
22600,4.673482,7.613562,0.579397,-14.678955,-16.082764,-2.960205,29.267578
22640,4.232949,8.475474,0.335188,-19.500732,-33.813477,0.274658,29.289062
22680,4.568137,10.429143,-0.134075,-11.077881,-30.792236,4.638672,29.289062
22720,5.449203,11.722012,1.484405,-40.679932,-42.449951,8.483887,29.273438
22760,5.602432,11.410766,0.373495,-54.077148,-38.116455,-3.356934,29.271484
22800,7.005434,9.605537,-3.414132,-9.582520,-7.354736,-9.979248,29.263672
22840,6.938396,7.536947,-3.371036,-27.801514,6.164551,-9.094238,29.277344
22880,4.836287,8.015787,-3.653552,-31.890869,-36.010742,-3.021240,29.283203
22920,3.232172,10.596737,-3.208230,1.403809,24.963379,-18.707275,29.287109
22960,4.668694,9.586384,-1.067814,22.644043,40.832520,-28.778076,29.279297
23000,4.860229,6.679823,-0.464475,12.268066,36.621094,-21.423340,29.271484
23040,3.725378,5.516241,-1.297657,37.414551,32.287598,-9.399414,29.269531
23080,2.585738,6.828263,-0.363919,25.939941,27.282715,-5.645752,29.277344
23120,2.240973,8.288726,0.052672,16.693115,14.038086,1.617432,29.283203
23160,2.140416,8.906430,0.129287,1.342773,-0.061035,10.650635,29.259766
23200,2.533065,8.863335,0.000000,-0.946045,-3.570557,7.324219,29.283203
23240,3.993528,9.557653,-0.162806,3.051758,5.493164,0.915527,29.285156
23280,4.472369,11.243171,0.665588,-1.098633,23.834229,-10.589600,29.271484
23320,4.941632,12.636597,0.598550,-0.701904,45.532227,-16.113281,29.281250
23360,3.912126,12.684481,-1.685518,-5.859375,20.507812,-9.155273,29.283203
23400,3.500323,9.921572,-2.949656,-10.162354,2.899170,-4.699707,29.296875
23440,5.305551,6.507440,-3.169923,21.087646,-5.645752,-1.159668,29.285156
23480,6.694188,8.130709,-1.541866,15.106201,-11.993408,11.230469,29.291016
23520,4.932055,10.050858,-0.383072,-10.070801,-33.447266,12.054443,29.285156
23560,3.016694,8.729259,-0.694318,-19.592285,-38.177490,20.080566,29.289062
23600,2.312799,6.200983,-1.206678,-0.549316,-52.673340,20.355225,29.277344
23640,3.174711,6.066907,-0.560243,1.525879,-43.548584,12.329102,29.289062
23680,4.357447,7.187394,-0.110133,2.288818,-26.214600,8.300781,29.277344
23720,4.663905,7.833828,0.363919,-6.317139,-7.019043,-3.387451,29.292969
23760,4.299986,8.327033,0.627281,-6.439209,-16.052246,-4.669189,29.316406
23800,4.046201,9.816227,0.110133,-9.887695,-23.193359,0.244141,29.289062
23840,4.649539,11.042058,0.751779,-15.502930,-44.250488,16.662598,29.292969
23880,4.616021,11.664551,1.331176,-52.246094,-52.947998,5.767822,29.369141
23920,6.296751,10.884041,-1.991976,-23.925781,-21.179199,-1.129150,29.378906
23960,7.235278,8.403648,-3.260903,-17.211914,19.348145,-9.033203,29.378906
24000,5.631162,7.513005,-3.394978,-16.082764,-16.693115,3.967285,29.390625
24040,3.639187,9.878476,-4.007894,-14.160156,-15.045166,-13.092041,29.382812
24080,4.352659,10.706870,-1.738190,16.174316,57.250977,-33.020020,29.376953
24120,4.707001,8.087613,-0.416591,8.422852,36.346436,-25.146484,29.373047
24160,3.519476,5.856217,-1.259350,30.944824,27.282715,-9.399414,29.375000
24200,2.422932,6.076484,-0.814029,29.785156,23.651123,-6.286621,29.371094
24240,2.341529,7.369353,-0.086191,18.676758,19.317627,-2.502441,29.369141
24280,2.288857,8.609550,0.129287,7.629395,1.739502,7.415771,29.376953
24320,2.418144,8.992621,-0.095768,1.190186,-0.213623,2.624512,29.380859
24360,3.701436,9.907207,-0.095768,5.828857,6.378174,-4.547119,29.394531
24400,4.199430,11.511322,0.622492,4.150391,21.881104,-9.490967,29.392578
24440,4.453215,12.373235,0.746991,-0.183105,48.492432,-14.251709,29.398438
24480,3.926491,12.387600,-1.273715,-10.131836,38.146973,-9.490967,29.365234
24520,3.433285,10.156203,-3.265691,-6.622314,6.866455,-6.011963,29.378906
24560,5.003881,7.058106,-3.294421,23.590088,-8.850098,0.335693,29.400391
24600,6.574478,8.312668,-1.594538,13.763428,3.967285,9.613037,29.408203
24640,4.869806,10.079589,-0.569820,-16.235352,-20.477295,11.322021,29.390625
24680,2.748544,8.786720,-0.919373,-11.901855,-19.775391,17.181396,29.390625
24720,2.059013,6.349423,-1.211466,1.831055,-46.783447,19.409180,29.371094
24760,2.806004,6.220136,-0.555455,1.281738,-37.078857,11.810303,29.392578
24800,4.189853,6.995857,-0.186748,1.434326,-25.573730,6.744385,29.414062
24840,4.520253,7.790732,0.426168,-5.828857,-9.979248,-2.563477,29.404297
24880,4.127604,8.729259,0.684742,-7.537842,-25.665283,-3.936768,29.406250
24920,3.557784,10.333375,0.105345,-9.307861,-20.904541,-3.356934,29.390625
24960,4.850653,11.262324,0.814029,-11.993408,-44.464111,18.676758,29.398438
25000,5.468357,11.712435,0.560243,-30.303955,-44.555664,11.505127,29.404297
25040,6.560112,10.649409,-2.542642,-13.763428,3.143311,-3.295898,29.384766
25080,6.536170,8.063671,-3.074155,-23.712158,19.775391,-9.277344,29.398438
25120,4.577713,8.164227,-3.730166,-20.568848,-22.003174,0.915527,29.429688
25160,3.318364,9.979033,-3.845088,0.701904,13.641357,-12.908936,29.406250
25200,4.424485,9.677363,-1.029507,19.012451,46.844482,-27.343750,29.400391
25240,4.386178,7.489063,-0.497994,12.847900,41.595459,-19.439697,29.425781
25280,3.294421,6.224925,-1.326388,32.806396,23.986816,-3.295898,29.412109
25320,2.327164,6.761226,-0.603339,26.397705,40.832520,-9.429932,29.410156
25360,2.126051,7.891289,-0.177171,20.172119,22.094727,-1.312256,29.402344
25400,1.972822,8.810662,-0.038307,3.417969,1.800537,6.195068,29.406250
25440,2.394202,8.920795,-0.201113,1.525879,-0.518799,3.417969,29.412109
25480,3.586514,9.878476,-0.158017,5.096436,10.284424,-1.617432,29.412109
25520,3.749320,11.204864,0.646434,6.103516,23.468018,-8.880615,29.447266
25560,4.103662,12.186486,0.699107,-0.610352,45.745850,-10.955811,29.404297
25600,3.921702,12.593501,-1.565808,-6.500244,37.658691,-8.575439,29.427734
25640,3.605668,10.381259,-3.466804,-1.861572,8.911133,-3.509521,29.417969
25680,4.951209,7.000646,-3.246537,22.003174,-4.638672,-0.183105,29.447266
25720,6.138733,8.173804,-1.594538,10.528564,-2.044678,10.437012,29.412109
25760,4.639963,10.285490,-0.478840,-11.993408,-22.613525,12.512207,29.429688
25800,2.657564,8.916007,-0.895431,-11.199951,-17.364502,13.122559,29.443359
25840,2.375048,6.670246,-1.307234,-2.532959,-38.665771,18.249512,29.449219
25880,3.026271,6.253655,-0.612916,6.500244,-34.698486,13.732910,29.482422
25920,4.041412,7.096414,-0.220267,6.469727,-25.268555,8.544922,29.486328
25960,4.175488,7.920019,0.339977,-8.911133,-5.065918,-1.678467,29.480469
26000,3.878607,8.365341,0.713472,-13.397217,-17.211914,-1.159668,29.490234
26040,2.839523,9.849746,0.402226,-13.488770,-29.113770,-1.617432,29.484375
26080,3.399766,11.511322,0.584185,-10.070801,-44.708252,7.171631,29.486328
26120,4.635174,11.961432,1.278504,-38.665771,-50.323486,6.408691,29.501953
26160,5.918467,11.401189,-1.733402,-25.573730,-12.298584,3.265381,29.472656
26200,7.082048,8.595184,-3.687071,-23.864746,6.988525,-2.746582,29.492188
26240,5.439626,7.929596,-3.485958,-24.963379,-6.164551,-2.044678,29.476562
26280,3.696647,10.017340,-4.271256,-13.732910,-3.143311,-8.178711,29.501953
26320,4.520253,10.285490,-1.656788,13.732910,46.081543,-29.724121,29.507812
26360,5.051765,7.910442,-0.507571,13.244629,47.943115,-23.681641,29.505859
26400,3.797204,5.928043,-1.206678,30.212402,39.123535,-7.598877,29.501953
26440,2.183512,6.124368,-0.785298,27.282715,36.560059,-5.920410,29.480469
26480,1.604115,7.570466,-0.177171,22.308350,17.852783,-0.122070,29.501953
26520,1.484405,8.729259,0.277727,7.781982,2.471924,8.239746,29.486328
26560,2.063802,8.930372,0.033519,3.448486,-0.549316,6.408691,29.494141
26600,3.720589,9.610326,-0.335188,9.674072,8.728027,2.471924,29.486328
26640,4.122815,10.817003,0.392649,8.209229,23.834229,-5.676270,29.507812
26680,3.715801,11.851298,1.661576,-2.655029,52.429199,-10.772705,29.505859
26720,3.514688,12.186486,-0.416591,-7.812500,48.278809,-4.364014,29.494141
26760,3.275268,10.951078,-3.471592,5.218506,12.451172,-3.967285,29.513672
26800,4.759673,7.977480,-3.418920,31.005859,-18.249512,6.378174,29.515625
26840,6.430826,8.508993,-1.805228,38.604736,-12.115479,16.448975,29.505859
26880,5.564125,11.276690,-0.210690,-7.049561,-1.525879,17.181396,29.500000
26920,3.236961,9.662998,-0.962469,-13.946533,-1.251221,17.547607,29.496094
26960,2.140416,5.808333,-1.862689,5.218506,-36.132812,24.871826,29.496094
27000,2.595315,5.367800,-0.785298,5.859375,-30.761719,16.052246,29.515625
27040,3.830723,6.890512,-0.158017,7.324219,-23.681641,11.291504,29.535156
27080,4.333505,7.886500,0.143652,-8.209229,-6.896973,0.152588,29.533203
27120,3.974375,8.504205,0.502782,-13.275146,-10.955811,-1.770020,29.535156
27160,3.260903,9.792285,-0.086191,-6.072998,-22.674561,0.885010,29.515625
27200,4.218584,11.458650,0.177171,-8.483887,-34.423828,12.634277,29.511719
27240,4.975151,12.205640,0.837971,-30.700684,-42.449951,10.192871,29.527344
27280,5.932832,11.635820,-1.522712,-15.594482,-6.591797,1.281738,29.523438
27320,6.904878,8.619126,-3.533842,-9.582520,14.831543,3.662109,29.544922
27360,6.215348,7.029376,-3.543418,-4.180908,-17.883301,-2.044678,29.519531
27400,3.883395,9.260772,-4.611232,-35.003662,-19.104004,-20.141602,29.539062
27440,3.955221,10.261548,-3.098097,20.385742,42.968750,-20.782471,29.552734
27480,4.683059,7.977480,0.138864,-1.647949,22.857666,-20.019531,29.546875
27520,3.112462,6.124368,-1.106121,23.956299,10.345459,-13.214111,29.531250
27560,2.360683,6.397307,-0.943315,18.463135,-1.922607,-4.211426,29.525391
27600,2.480393,7.603985,-0.229843,10.864258,0.274658,1.190186,29.542969
27640,2.461239,8.537724,0.210690,0.488281,0.305176,7.598877,29.531250
27680,2.078167,8.992621,-0.181959,-3.143311,-8.514404,5.218506,29.535156
27720,3.055001,9.892841,-0.713472,-3.662109,-4.028320,-3.753662,29.525391
27760,4.209007,11.401189,-0.028730,-6.347656,14.099121,-10.131836,29.548828
27800,4.721366,12.215217,0.957681,-6.896973,45.593262,-7.629395,29.539062
27840,4.400543,11.956643,-0.962469,-14.831543,45.532227,-6.134033,29.595703
27880,3.562572,10.046070,-4.003105,8.026123,2.777100,-5.523682,29.601562
27920,4.903325,7.603985,-3.691859,29.571533,-20.202637,-1.464844,29.628906
27960,7.158663,8.192958,-1.719037,14.404297,7.141113,7.751465,29.611328
28000,5.698200,10.314221,-0.617704,-9.765625,11.016846,9.857178,29.599609
28040,2.987964,8.925584,-1.225831,-11.840820,-2.349854,9.063721,29.587891
28080,2.427721,5.975927,-1.637634,2.960205,-25.756836,15.563965,29.597656
28120,3.007117,5.726931,-0.732626,9.552002,-24.871826,9.918213,29.611328
28160,3.907337,6.976704,-0.320823,5.615234,-16.021729,3.204346,29.593750
28200,4.175488,7.527370,-0.004788,-10.650635,-1.068115,-2.502441,29.617188
28240,4.046201,8.058883,0.469264,-8.636475,-5.249023,-4.608154,29.593750
28280,3.620033,9.720459,0.201113,-7.537842,-17.059326,-3.997803,29.583984
28320,4.079720,11.314998,0.517148,-9.124756,-29.968262,8.300781,29.595703
28360,4.888960,11.731588,0.861913,-23.315430,-50.598145,13.763428,29.597656
28400,6.162675,11.530476,-1.728614,-8.666992,-12.847900,8.514404,29.613281
28440,6.904878,8.791509,-2.691083,-12.084961,18.768311,-11.413574,29.611328
28480,5.612009,7.192182,-3.088520,-0.213623,-9.246826,-1.800537,29.619141
28520,3.567361,9.059659,-4.548983,-23.193359,-9.307861,-7.720947,29.626953
28560,3.969586,10.395624,-3.093309,22.857666,40.649414,-22.003174,29.609375
28600,4.879383,8.781932,0.000000,3.356934,33.599854,-24.139404,29.623047
28640,3.787627,6.943185,-0.861913,16.571045,27.252197,-13.854980,29.632812
28680,2.571373,6.713342,-1.149217,19.561768,16.174316,-3.204346,29.607422
28720,2.202666,7.082048,-0.421380,14.373779,7.446289,-2.502441,29.605469
28760,2.624045,8.164227,0.153229,10.681152,7.507324,5.920410,29.615234
28800,2.126051,8.772355,0.143652,-0.061035,3.295898,5.340576,29.625000
28840,2.585738,9.016563,-0.727837,7.476807,-0.610352,-1.190186,29.630859
28880,4.007894,10.342952,-0.244209,3.723145,18.676758,-7.110596,29.623047
28920,4.410120,11.851298,0.703895,1.586914,36.956787,-10.101318,29.625000
28960,4.390966,12.751518,-0.354342,0.366211,41.839600,-10.070801,29.636719
29000,3.519476,12.129025,-2.403779,3.875732,18.554688,-5.371094,29.628906
29040,4.218584,8.863335,-3.533842,23.864746,12.878418,2.868652,29.630859
29080,6.306327,6.737284,-2.662352,23.223877,-9.216309,9.735107,29.630859
29120,5.913678,8.949526,-1.278504,10.467529,-6.072998,15.258789,29.628906
29160,3.859453,9.811439,-1.072602,2.044678,-0.549316,12.847900,29.638672
29200,2.844312,7.283162,-1.312023,-2.197266,-6.561279,18.341064,29.619141
29240,2.930503,5.755661,-1.106121,10.040283,-19.958496,13.610840,29.650391
29280,3.682282,6.684611,-0.483629,10.711670,-16.479492,6.530762,29.634766
29320,4.017470,7.757214,-0.263362,-0.915527,-4.852295,1.220703,29.660156
29360,4.079720,7.929596,0.244209,-8.270264,2.990723,-4.516602,29.640625
29400,3.892972,8.437167,0.392649,-14.617920,-12.847900,-3.692627,29.644531
29440,3.682282,10.261548,-0.282516,-8.453369,-17.730713,-1.098633,29.630859
29480,5.003881,11.377247,0.493206,-15.960693,-37.933350,15.930176,29.652344
29520,5.808333,11.832145,-0.311246,-21.392822,-32.958984,14.221191,29.642578
29560,6.813898,10.352529,-2.480393,-15.045166,9.460449,-2.807617,29.642578
29600,6.215348,7.776367,-2.968810,-5.981445,15.228271,-12.451172,29.656250
29640,4.055778,8.226477,-4.280833,-7.904053,-18.432617,-6.896973,29.638672
29680,3.323152,9.864111,-5.133168,-18.829346,5.493164,-9.735107,29.666016
29720,4.462792,9.509769,-1.508347,16.265869,43.731689,-25.604248,29.650391
29760,4.467580,7.580042,-0.445322,8.544922,36.102295,-21.972656,29.667969
29800,3.107674,6.545747,-1.350330,23.712158,26.062012,-8.666992,29.642578
29840,2.140416,6.837840,-0.957681,21.270752,12.664795,-4.638672,29.693359
29880,2.331953,7.920019,-0.138864,17.211914,10.772705,1.678467,29.710938
29920,2.375048,8.930372,0.330400,4.577637,6.591797,7.232666,29.703125
29960,2.063802,9.112331,0.043096,-5.767822,4.028320,1.434326,29.726562
30000,3.246537,9.466674,-0.732626,-3.417969,7.659912,-2.258301,29.705078
30040,4.070143,10.884041,0.177171,-4.699707,23.498535,-8.605957,29.705078
30080,4.137180,11.975797,1.244985,-10.620117,48.187256,-8.239746,29.712891
30120,3.682282,12.081141,-0.833182,-13.916016,46.661377,-6.347656,29.703125
30160,3.198653,10.467450,-3.979163,6.530762,2.014160,-5.737305,29.705078
30200,4.845864,7.963115,-3.543418,29.296875,-16.754150,-0.701904,29.732422
30240,6.938396,8.695741,-1.671153,14.221191,-5.004883,11.352539,29.710938
30280,4.888960,10.414778,-0.617704,-6.011963,-3.692627,14.617920,29.714844
30320,2.422932,8.695741,-1.244985,-3.234863,-13.549805,18.920898,29.705078
30360,2.331953,5.923255,-1.695095,6.011963,-38.146973,22.857666,29.718750
30400,3.256114,5.889736,-0.555455,9.094238,-32.928467,12.969971,29.716797
30440,4.175488,7.436390,-0.177171,6.134033,-20.050049,8.056641,29.718750
30480,4.280833,7.996634,0.067038,-7.995605,0.488281,-0.579834,29.738281
30520,4.132392,8.231265,0.718261,-16.296387,-1.159668,-3.082275,29.716797
30560,3.581726,9.672575,0.296881,-12.756348,-13.336182,-3.845215,29.724609
30600,4.228160,11.228806,0.488417,-9.918213,-24.200439,7.690430,29.703125
30640,5.224148,11.674128,0.627281,-22.094727,-44.281006,14.495850,29.746094
30680,5.770026,11.286267,-1.752556,-20.446777,-5.218506,-0.793457,29.730469
30720,6.397307,8.652645,-3.126827,-17.700195,13.946533,-6.744385,29.730469
30760,5.109226,8.427590,-3.624821,-25.909424,-12.969971,-1.129150,29.738281
30800,2.964022,10.165780,-4.865018,-16.113281,-17.028809,-7.598877,29.722656
30840,3.849876,9.749189,-1.915361,19.958496,27.526855,-23.071289,29.732422
30880,4.572925,7.963115,-0.344765,5.767822,17.242432,-19.958496,29.738281
30920,3.289633,6.727707,-0.861913,8.972168,11.505127,-7.659912,29.742188
30960,2.087744,6.550536,-0.857124,13.397217,2.166748,-0.946045,29.726562
31000,1.991976,7.287950,-0.335188,8.239746,-6.683350,2.960205,29.724609
31040,2.169147,8.418014,0.076614,0.061035,-4.364014,7.598877,29.742188
31080,2.446874,8.896853,0.000000,-2.380371,-5.493164,5.126953,29.744141
31120,3.294421,9.840169,-0.258574,0.732422,1.373291,-1.403809,29.742188
31160,3.600879,11.305421,0.205901,-5.126953,18.096924,-7.751465,29.748047
31200,3.787627,12.052411,0.881066,-5.096436,32.653809,-8.880615,29.740234
31240,3.715801,12.038046,-0.727837,-8.911133,36.560059,-11.199951,29.738281
31280,3.672705,10.151415,-3.390190,10.131836,3.143311,-8.758545,29.728516
31320,5.597643,7.776367,-3.538630,34.332275,-16.235352,-3.112793,29.724609
31360,7.407660,8.547300,-1.757344,22.125244,0.030518,10.742188,29.740234
31400,5.181053,10.309433,-0.737414,-4.150391,7.263184,11.505127,29.734375
31440,2.829947,8.944737,-1.177947,-1.159668,-6.134033,14.526367,29.724609
31480,2.509123,6.167464,-1.489193,11.016846,-29.876709,17.181396,29.742188
31520,3.002329,5.995081,-0.718261,16.265869,-23.376465,10.070801,29.738281
31560,3.773262,7.101202,-0.292093,6.195068,-15.106201,6.195068,29.724609
31600,4.094085,7.493851,0.076614,-7.202148,1.129150,-2.929688,29.757812
31640,4.007894,8.101978,0.708684,-13.946533,-0.335693,-5.157471,29.751953
31680,3.677494,9.595961,0.067038,-7.080078,-14.587402,-2.746582,29.742188
31720,4.496311,11.463438,0.569820,-2.227783,-31.341553,12.756348,29.763672
31760,4.462792,12.301409,1.187524,-30.792236,-51.757812,11.657715,29.753906
31800,5.530606,11.669339,-2.576161,-12.695312,-6.378174,8.331299,29.822266
31840,7.077260,8.753201,-3.878607,-13.366699,6.927490,-4.425049,29.806641
31880,5.181053,8.030152,-3.801992,-17.242432,-13.397217,-5.828857,29.791016
31920,3.035848,9.677363,-5.023035,-16.876221,-9.246826,-8.544922,29.812500
31960,4.122815,9.725247,-2.207454,20.416260,41.198730,-23.925781,29.802734
32000,4.649539,7.857770,-0.387861,3.814697,29.815674,-23.620605,29.818359
32040,3.548207,6.373365,-1.168370,13.488770,23.437500,-10.650635,29.826172
32080,2.030283,6.775591,-1.211466,17.547607,11.199951,-5.615234,29.822266
32120,1.824382,7.685388,-0.497994,9.643555,1.770020,0.793457,29.833984
32160,2.384625,8.087613,-0.339977,5.950928,2.532959,6.561279,29.806641
32200,2.633622,8.777143,-0.143652,4.791260,-3.631592,6.652832,29.812500
32240,3.308787,10.328587,-0.158017,2.929688,0.976562,0.885010,29.812500
32280,3.873818,11.391612,0.009577,-3.204346,22.003174,-4.974365,29.818359
32320,4.070143,11.626244,1.096544,-6.256104,45.593262,-7.141113,29.828125
32360,3.964798,11.396400,-0.593762,-6.500244,47.515869,-5.706787,29.820312
32400,3.213019,10.429143,-3.792415,9.796143,14.282227,-5.554199,29.804688
32440,4.548983,8.355764,-3.643975,25.390625,-0.244141,0.396729,29.832031
32480,6.454768,8.619126,-2.346318,23.345947,-9.399414,11.657715,29.824219
32520,5.123591,10.682928,-0.938527,-5.645752,-6.500244,12.481689,29.835938
32560,3.131616,9.385271,-1.249773,-7.446289,-7.965088,16.357422,29.824219
32600,2.413355,6.038177,-1.824382,-2.777100,-37.475586,23.284912,29.822266
32640,2.844312,5.578490,-1.264138,9.613037,-36.071777,16.082764,29.843750
32680,3.821146,6.876147,-0.378284,8.575439,-24.291992,9.521484,29.843750
32720,4.209007,7.666234,-0.086191,0.793457,-7.141113,0.213623,29.832031
32760,4.223372,8.370130,0.416591,-9.429932,-10.864258,-1.800537,29.828125
32800,3.648763,9.911995,-0.038307,-13.336182,-21.118164,0.244141,29.818359
32840,4.103662,11.453861,0.086191,-11.718750,-28.533936,10.162354,29.835938
32880,4.979939,11.846510,0.646434,-33.966064,-48.645020,13.488770,29.851562
32920,5.702989,11.362882,-1.910573,-19.470215,-8.666992,5.798340,29.859375
32960,6.167464,8.647857,-3.342306,-16.876221,13.488770,-10.528564,29.835938
33000,5.339070,7.000646,-3.476381,-9.216309,-17.883301,-1.586914,29.818359
33040,3.533842,9.418790,-4.975151,-26.519775,-20.629883,-7.080078,29.830078
33080,3.864242,10.615891,-3.457227,3.662109,32.409668,-20.141602,29.843750
33120,4.625597,8.528147,-0.493206,5.218506,30.303955,-27.435303,29.820312
33160,3.639187,6.670246,-0.857124,8.758545,20.050049,-16.479492,29.849609
33200,2.360683,6.703765,-1.177947,20.568848,9.490967,-6.713867,29.853516
33240,2.274492,7.445967,-0.277727,8.453369,3.631592,-1.678467,29.849609
33280,2.379837,8.341399,0.114922,2.593994,6.164551,3.784180,29.865234
33320,2.221819,8.676587,-0.090980,-4.425049,2.410889,3.723145,29.847656
33360,2.858677,9.188946,-0.809240,1.037598,2.685547,-0.244141,29.841797
33400,3.476381,10.635044,-0.258574,-3.112793,14.862061,-9.735107,29.843750
33440,4.381389,11.851298,0.392649,1.098633,37.170410,-12.634277,29.847656
33480,4.299986,12.387600,-0.660800,-4.089355,48.339844,-12.268066,29.855469
33520,3.438074,11.094730,-2.901772,2.777100,22.003174,-7.080078,29.841797
33560,4.865018,7.963115,-3.596091,28.686523,10.498047,-2.563477,29.855469
33600,6.698977,7.829040,-1.905785,16.510010,-5.584717,11.871338,29.855469
33640,5.233725,10.022128,-0.890643,0.488281,-2.807617,15.808105,29.869141
33680,3.026271,9.591172,-1.106121,-6.958008,-1.647949,12.451172,29.867188
33720,2.896984,6.947973,-1.268927,1.342773,-14.709473,14.160156,29.855469
33760,3.524265,6.028600,-0.742203,7.690430,-18.310547,12.084961,29.869141
33800,3.600879,7.091625,-0.387861,6.927490,-14.587402,6.439209,29.923828
33840,3.749320,7.704541,0.043096,-7.476807,-0.823975,-1.434326,29.906250
33880,3.830723,7.814674,0.517148,-11.566162,0.823975,-4.180908,29.896484
33920,3.428497,8.743625,0.646434,-12.329102,-12.359619,-2.899170,29.923828
33960,3.371036,9.931149,0.330400,-8.880615,-21.453857,-1.647949,29.925781
34000,4.381389,10.022128,1.335965,-26.641846,-32.104492,8.697510,29.921875
34040,4.582502,10.285490,0.766145,-37.719727,-28.533936,3.723145,29.923828
34080,6.387730,10.462662,-2.758120,4.272461,-8.300781,1.434326,29.900391
34120,6.804321,9.294291,-2.518700,-25.695801,-2.532959,3.662109,29.898438
34160,3.466804,9.332599,-3.390190,-15.075684,-16.540527,-3.173828,29.896484
34200,2.236184,10.615891,-3.926491,10.894775,-8.056641,-8.178711,29.921875
34240,4.769250,10.007763,-1.455675,10.528564,17.272949,-17.669678,29.927734
34280,5.085284,8.288726,-0.881066,12.023926,28.228760,-19.165039,29.927734
34320,3.438074,7.105990,-1.110910,17.700195,28.106689,-9.460449,29.894531
34360,2.035071,7.331046,-0.814029,13.031006,17.669678,-4.791260,29.914062
34400,2.068590,7.656657,-0.301669,8.361816,14.831543,-0.488281,29.925781
34440,1.944092,8.188169,0.038307,5.798340,7.904053,5.706787,29.927734
34480,2.221819,8.676587,0.272939,-1.007080,9.735107,2.990723,29.933594
34520,3.184288,8.978256,-0.268151,6.164551,20.965576,-4.058838,29.933594
34560,3.347094,9.179369,-0.215478,8.422852,29.144287,-5.889893,29.919922
34600,2.336741,10.180145,1.211466,-3.387451,30.853271,-10.803223,29.916016
34640,2.025495,11.224017,0.215478,-5.462646,31.036377,-16.387939,29.914062
34680,3.294421,11.094730,-2.791639,-4.547119,8.331299,-20.507812,29.943359
34720,6.584054,10.137050,-2.873042,32.501221,-10.040283,-5.310059,29.931641
34760,7.987057,11.070788,-1.307234,20.141602,10.467529,17.608643,29.941406
34800,4.845864,11.554418,-0.512359,-12.420654,13.061523,10.711670,29.929688
34840,2.825158,9.323022,-1.441309,-1.434326,-13.000488,16.571045,29.947266
34880,2.978387,6.847417,-1.331176,-2.563477,-18.249512,22.857666,29.941406
34920,2.992752,6.459556,-0.684742,0.701904,-16.937256,15.777588,29.943359
34960,3.347094,6.617573,-0.143652,-1.403809,-9.338379,6.958008,29.935547
35000,3.581726,6.871359,0.349553,-7.751465,-0.457764,-2.685547,29.949219
35040,3.107674,8.145074,0.828394,-12.756348,-3.906250,-4.089355,29.955078
35080,2.729390,9.504981,0.129287,-8.972168,-16.540527,-0.976562,29.931641
35120,3.773262,10.041282,0.761356,-9.063721,-35.919189,11.962891,29.943359
35160,3.706224,10.850522,2.499547,-42.358398,-40.710449,10.864258,29.943359
35200,3.696647,10.941502,1.225831,-47.668457,-27.465820,-2.288818,29.953125
35240,5.793968,9.911995,-2.853889,-5.401611,-12.878418,-1.129150,29.957031
35280,5.918467,8.954314,-3.347094,-17.669678,-35.003662,5.859375,29.925781
35320,3.749320,10.299856,-3.452439,-6.439209,-41.961670,-4.760742,29.966797
35360,4.089296,10.989386,-2.379837,0.030518,-0.488281,-19.104004,29.949219
35400,5.544971,9.303867,-1.460463,7.659912,12.207031,-20.538330,29.941406
35440,4.568137,7.302315,-1.086968,8.056641,26.092529,-15.960693,29.949219
35480,2.882619,6.924031,-0.775721,11.291504,23.986816,-6.500244,29.945312
35520,1.824382,7.254431,-0.186748,9.674072,16.418457,-3.784180,29.960938
35560,1.795651,7.584831,0.191536,12.054443,12.756348,2.105713,29.945312
35600,2.078167,8.288726,0.325611,8.453369,7.354736,5.920410,29.951172
35640,2.949656,8.949526,0.502782,5.187988,18.768311,0.457764,29.955078
35680,3.825934,9.442732,0.454898,6.469727,28.808594,-4.394531,29.947266
35720,3.083732,10.414778,1.292869,-2.746582,36.193848,-8.666992,29.974609
35760,2.652776,11.056423,1.350330,-4.119873,49.987793,-16.052246,29.996094
35800,3.117251,10.874464,-1.848324,5.493164,39.428711,-22.674561,30.013672
35840,5.530606,9.720459,-3.313575,27.832031,0.549316,-11.016846,30.007812
35880,7.762002,10.687716,-1.465251,24.414062,7.965088,15.136719,30.003906
35920,5.171476,11.501745,-0.684742,10.070801,9.857178,15.563965,30.035156
35960,2.892196,10.658986,-0.857124,0.122070,-8.911133,14.648438,30.023438
36000,3.323152,8.207323,-1.063026,7.049561,-16.662598,20.050049,30.019531
36040,3.145981,6.842628,-0.598550,4.333496,-19.012451,18.615723,30.037109
36080,3.150769,6.253655,-0.301669,2.380371,-9.735107,9.399414,30.021484
36120,3.447650,6.239290,0.201113,-5.035400,-3.021240,1.220703,30.029297
36160,3.294421,7.580042,0.909797,-9.979248,-1.434326,-2.014160,30.009766
36200,2.624045,9.433155,0.790087,-11.413574,-12.664795,-4.913330,30.041016
36240,3.720589,9.940725,0.708684,-6.683350,-27.709961,2.624512,30.031250
36280,4.975151,9.979033,2.130840,-32.012939,-29.724121,10.894775,30.033203
36320,4.352659,10.314221,1.144428,-31.341553,-22.247314,1.312256,30.027344
36360,5.142745,9.686940,-2.183512,-5.462646,-11.047363,0.488281,30.035156
36400,5.142745,9.222465,-2.964022,-33.477783,-19.012451,11.871338,30.017578
36440,3.620033,11.487380,-3.792415,-21.789551,-33.447266,1.464844,30.025391
36480,4.070143,11.817780,-2.188300,6.072998,16.143799,-21.209717,30.046875
36520,5.463568,9.346964,-1.029507,6.072998,19.409180,-19.805908,30.041016
36560,4.462792,7.599196,-0.541090,7.110596,23.681641,-12.054443,30.033203
36600,2.786851,7.206547,-0.450110,8.331299,18.615723,-2.777100,30.019531
36640,1.685518,7.268796,-0.272939,9.765625,13.092041,0.305176,30.027344
36680,1.613692,7.718906,0.129287,8.758545,3.662109,2.105713,30.035156
36720,2.494758,8.322245,0.742203,1.403809,9.307861,5.249023,30.021484
36760,3.193865,8.825027,0.440533,3.234863,19.226074,0.396729,30.029297
36800,3.351882,9.212888,0.057461,8.666992,31.555176,-3.112793,30.033203
36840,2.887407,10.084377,1.125275,6.744385,33.660889,-6.774902,30.027344
36880,3.280056,10.927136,1.058237,5.889893,51.177979,-15.838623,30.029297
36920,3.078943,11.209652,-1.388637,2.441406,29.266357,-19.012451,30.029297
36960,4.194642,9.500193,-2.547431,26.123047,-8.026123,-7.110596,30.023438
37000,6.651093,9.054871,-1.355118,31.341553,-3.997803,13.458252,30.035156
37040,5.870583,10.884041,-0.301669,11.230469,3.448486,15.136719,30.031250
37080,3.897760,11.319786,-0.507571,1.861572,-9.643555,13.763428,30.058594
37120,3.390190,9.342175,-0.914585,10.131836,-15.502930,16.052246,30.033203
37160,3.462016,7.402872,-0.598550,13.946533,-18.432617,17.181396,30.039062
37200,3.514688,6.392519,-0.220267,4.882812,-16.448975,10.986328,30.035156
37240,3.136404,6.196194,0.057461,-4.333496,-12.023926,2.532959,30.050781
37280,2.920926,7.187394,0.823605,-11.444092,-4.577637,-1.678467,30.046875
37320,2.782062,8.743625,0.976834,-16.418457,-23.864746,0.640869,30.044922
37360,2.877831,9.634268,0.421380,-10.742188,-37.292480,2.868652,30.029297
37400,4.185065,10.314221,1.608904,-13.427734,-52.673340,14.282227,30.068359
37440,4.730943,11.185710,1.417367,-39.093018,-41.290283,4.669189,30.039062
37480,6.488286,10.568007,-2.355895,-5.523682,-22.247314,-3.540039,30.025391
37520,6.579266,9.165004,-2.820370,-36.285400,-8.300781,4.486084,30.033203
37560,3.634398,9.988609,-3.936068,-17.669678,-27.893066,3.906250,30.048828
37600,3.222595,11.056423,-2.786851,0.915527,3.906250,-16.235352,30.056641
37640,5.061342,9.787497,-1.331176,5.615234,21.820068,-22.552490,30.052734
37680,4.927267,7.848193,-0.857124,4.669189,27.008057,-14.831543,30.056641
37720,3.141193,6.809110,-0.976834,12.512207,27.496338,-5.767822,30.048828
37760,1.762132,7.110779,-0.526724,13.122559,16.265869,-2.441406,30.105469
37800,1.877054,7.503428,0.158017,10.009766,11.199951,1.220703,30.107422
37840,2.011129,8.010999,0.541090,4.455566,7.385254,7.080078,30.117188
37880,2.705448,8.609550,0.292093,8.483887,14.312744,4.608154,30.105469
37920,3.979163,9.294291,0.009577,12.725830,29.846191,2.410889,30.109375
37960,3.351882,10.342952,1.177947,6.622314,39.642334,-4.302979,30.115234
38000,3.050213,11.243171,1.326388,-2.593994,57.342529,-13.916016,30.111328
38040,3.016694,11.429919,-1.340753,-6.317139,38.085938,-17.913818,30.105469
38080,4.146757,9.528923,-3.572149,25.573730,1.922607,-12.664795,30.134766
38120,7.278373,9.629479,-2.327164,34.698486,-4.241943,8.514404,30.130859
38160,6.220136,11.420342,-0.871489,16.784668,-10.498047,19.348145,30.119141
38200,3.533842,11.271901,-0.852336,-6.286621,-19.439697,16.021729,30.109375
38240,2.600103,8.772355,-1.331176,-0.671387,-31.463623,15.747070,30.113281
38280,2.968810,6.430826,-0.780510,-0.183105,-33.966064,19.195557,30.101562
38320,3.303998,5.549759,-0.426168,6.134033,-33.386230,11.871338,30.130859
38360,3.816358,5.875371,0.043096,-1.770020,-18.890381,1.220703,30.115234
38400,3.840300,7.110779,0.847547,-11.383057,-4.302979,-7.354736,30.111328
38440,3.155558,9.074024,1.015141,-12.573242,-10.192871,-6.744385,30.130859
38480,3.399766,10.170568,0.459687,-7.873535,-19.042969,-2.044678,30.134766
38520,4.424485,10.821792,1.896208,-26.123047,-36.163330,10.437012,30.121094
38560,4.352659,11.578360,1.374272,-42.572021,-31.982422,1.190186,30.121094
38600,5.861006,10.582372,-2.418144,-5.798340,-16.510010,2.471924,30.115234
38640,5.793968,8.762778,-3.035848,-37.078857,-15.075684,5.035400,30.130859
38680,3.294421,10.070012,-4.223372,-20.050049,-34.759521,4.028320,30.148438
38720,3.567361,11.046846,-3.136404,11.322021,0.457764,-15.533447,30.140625
38760,5.444415,9.916783,-0.933739,4.089355,17.486572,-20.233154,30.150391
38800,4.477157,8.240842,-0.766145,5.523682,17.395020,-11.108398,30.140625
38840,2.547431,7.120356,-0.967257,11.688232,14.434814,-4.791260,30.121094
38880,1.762132,6.593631,-0.770933,12.908936,12.359619,-6.744385,30.134766
38920,2.322376,6.679823,-0.076614,12.207031,7.659912,-0.885010,30.138672
38960,2.609680,7.546524,0.560243,9.094238,13.641357,2.685547,30.126953
39000,3.174711,8.422802,0.311246,11.962891,25.024414,-1.708984,30.125000
39040,3.888184,9.667787,0.105345,11.322021,41.320801,-5.920410,30.144531
39080,3.409343,11.137826,1.048660,3.082275,60.180664,-22.338867,30.146484
39120,3.672705,12.287044,-0.268151,2.136230,56.762695,-27.069092,30.144531
39160,4.146757,11.774684,-2.375048,0.183105,37.384033,-20.111084,30.146484
39200,6.138733,9.059659,-3.145981,42.205811,15.075684,-3.967285,30.123047
39240,6.833052,9.720459,-1.742979,25.543213,9.002686,13.000488,30.156250
39280,4.505888,10.491392,-1.053449,22.399902,-7.965088,15.716553,30.125000
39320,2.983175,9.318233,-0.957681,-6.225586,-10.437012,13.000488,30.160156
39360,2.715025,7.340622,-1.034295,2.868652,-12.054443,16.967773,30.166016
39400,3.241749,6.488286,-0.368707,1.403809,-22.705078,14.190674,30.156250
39440,3.543418,6.732495,0.110133,3.021240,-5.218506,4.058838,30.166016
39480,3.519476,7.192182,0.694318,-2.349854,3.479004,-7.385254,30.150391
39520,3.256114,7.996634,1.407791,-12.634277,-8.758545,-11.077881,30.148438
39560,2.600103,9.615114,1.072602,-18.402100,-12.908936,-7.049561,30.142578
39600,3.452439,10.601525,1.517924,-19.531250,-22.094727,1.251221,30.156250
39640,4.865018,11.482592,2.140416,-37.017822,-32.165527,8.422852,30.144531
39680,6.191406,11.401189,-1.302446,-16.601562,-3.051758,3.356934,30.162109
39720,6.804321,9.030929,-2.633622,-13.244629,6.042480,5.157471,30.177734
39760,4.659117,8.801085,-3.715801,-8.392334,7.659912,0.549316,30.203125
39800,3.390190,11.204864,-3.902549,21.697998,13.549805,-10.498047,30.224609
39840,4.884171,10.778696,-0.991199,5.981445,50.170898,-20.751953,30.216797
39880,5.262455,8.293514,-0.584185,20.019531,58.441162,-8.422852,30.199219
39920,3.040636,6.564901,-1.048660,36.590576,62.164307,-4.058838,30.220703
39960,1.532289,6.540959,-0.794875,30.059814,54.321289,-1.647949,30.216797
40000,1.484405,7.297527,0.081403,24.932861,43.243408,3.692627,30.212891
40040,1.594538,7.915231,0.641646,15.686035,25.726318,8.789062,30.187500
40080,2.154782,8.647857,0.565032,12.023926,23.071289,5.584717,30.181641
40120,3.438074,9.691729,0.057461,13.244629,30.792236,-2.624512,30.203125
40160,3.955221,11.185710,1.685518,-0.579834,53.771973,-7.934570,30.216797
40200,4.797980,12.531252,0.871489,8.972168,54.840088,-25.970459,30.216797
40240,4.716578,12.631808,-2.528277,8.209229,25.299072,-10.009766,30.208984
40280,5.568913,9.624691,-3.021482,17.303467,-1.617432,-10.925293,30.195312
40320,7.115568,9.121908,-2.557007,19.927979,22.247314,7.324219,30.207031
40360,4.769250,9.844957,-1.163582,17.120361,18.127441,15.441895,30.242188
40400,2.394202,8.695741,-0.718261,-0.091553,3.723145,13.183594,30.218750
40440,2.049437,6.665458,-0.799663,9.948730,-3.387451,15.167236,30.205078
40480,3.481169,5.808333,-0.057461,1.495361,-9.552002,20.690918,30.218750
40520,3.840300,6.880936,0.191536,6.408691,0.610352,5.004883,30.236328
40560,3.552995,8.236053,1.024718,2.380371,16.052246,-3.356934,30.212891
40600,3.758897,8.858546,1.565808,-11.871338,18.402100,-5.493164,30.208984
40640,3.711013,10.228029,1.364695,-11.474609,3.814697,-6.683350,30.232422
40680,4.635174,11.281479,1.939303,-8.575439,2.777100,-2.197266,30.236328
40720,5.372589,11.003751,2.250550,-29.693604,4.272461,-0.152588,30.210938
40760,6.186617,10.046070,-1.498770,-1.251221,22.430420,3.723145,30.228516
40800,6.957550,8.298303,-4.036624,10.009766,27.374268,12.420654,30.216797
40840,5.616797,9.471462,-2.873042,-13.916016,1.007080,8.575439,30.210938
40880,3.548207,11.195287,-2.202666,8.483887,11.688232,-0.396729,30.212891
40920,3.960010,9.586384,-0.857124,37.322998,44.433594,-1.892090,30.238281
40960,3.801992,7.101202,-0.617704,24.139404,32.806396,0.732422,30.218750
41000,2.681506,6.311116,-0.924162,25.390625,29.174805,0.701904,30.238281
41040,2.882619,7.125144,0.167594,23.406982,37.689209,-1.953125,30.232422
41080,2.662352,8.226477,0.593762,16.906738,25.970459,-0.823975,30.244141
41120,2.408567,8.968679,0.790087,1.586914,13.122559,4.058838,30.222656
41160,3.246537,9.624691,0.301669,-2.319336,18.157959,-1.953125,30.240234
41200,4.553771,10.242394,0.311246,1.312256,28.228760,-4.760742,30.242188
41240,4.448427,10.941502,1.374272,0.091553,37.841797,-7.385254,30.218750
41280,4.596867,11.530476,0.895431,-2.349854,33.782959,-11.444092,30.244141
41320,4.247314,10.749966,-1.058237,-1.129150,25.665283,-7.232666,30.261719
41360,4.630386,8.394072,-2.695871,-13.702393,-13.732910,15.106201,30.250000
41400,6.186617,7.589619,-2.791639,15.228271,-1.434326,2.929688,30.212891
41440,6.205771,9.035717,-0.684742,12.756348,16.693115,9.674072,30.250000
41480,4.529830,9.270349,0.229843,-2.197266,1.708984,10.223389,30.257812
41520,3.035848,7.517793,-0.407014,-3.814697,-3.082275,8.575439,30.224609
41560,2.968810,6.306327,-0.411803,7.232666,1.251221,6.195068,30.248047
41600,4.060566,6.813898,0.598550,10.528564,-5.401611,6.195068,30.248047
41640,4.874595,7.757214,0.905008,7.415771,3.326416,3.723145,30.261719
41680,4.721366,8.212111,1.010353,4.028320,13.946533,0.366211,30.246094
41720,4.462792,8.585608,1.359907,-1.098633,4.943848,-0.671387,30.298828
41760,4.716578,9.677363,1.517924,-2.532959,3.021240,-0.579834,30.314453
41800,5.602432,10.539276,2.298434,-7.751465,7.812500,-0.671387,30.300781
41840,6.019023,10.807426,2.236184,-14.038086,6.561279,-3.540039,30.296875
41880,6.454768,10.328587,-0.632069,7.659912,13.580322,-3.204346,30.314453
41920,5.851429,8.269572,-2.920926,7.293701,24.017334,4.608154,30.310547
41960,4.065354,8.169016,-3.040636,-6.561279,-4.882812,0.549316,30.296875
42000,2.873042,10.122684,-2.231396,20.202637,7.019043,-3.356934,30.291016
42040,3.907337,9.888053,-0.694318,39.031982,31.219482,-21.392822,30.285156
42080,4.347870,7.805098,-0.344765,15.808105,26.641846,-20.599365,30.296875
42120,3.040636,6.804321,-0.521936,27.923584,48.217773,-28.594971,30.306641
42160,2.288857,7.393295,-0.234632,20.874023,48.309326,-19.378662,30.281250
42200,1.695095,8.322245,0.220267,20.111084,22.491455,0.061035,30.318359
42240,2.097321,8.652645,0.435745,6.774902,14.801025,4.974365,30.298828
42280,2.576161,9.102755,0.569820,5.767822,9.094238,0.823975,30.310547
42320,3.605668,10.098742,0.426168,8.758545,22.125244,-4.791260,30.296875
42360,3.763685,11.195287,0.914585,0.366211,28.076172,-6.835938,30.324219
42400,3.806781,11.793838,1.517924,2.593994,50.292969,-9.704590,30.306641
42440,4.046201,11.990162,0.114922,5.126953,42.266846,-8.544922,30.285156
42480,3.538630,10.314221,-1.991976,7.965088,9.246826,-7.171631,30.316406
42520,4.347870,7.738060,-2.896984,22.583008,-1.770020,-6.958008,30.324219
42560,5.712565,8.499416,-1.752556,32.836914,15.533447,2.166748,30.324219
42600,5.090073,9.782708,-0.253785,15.533447,-1.708984,15.472412,30.306641
42640,3.399766,8.925584,-0.608127,6.103516,-5.462646,16.448975,30.320312
42680,2.097321,6.722919,-1.086968,10.559082,-8.453369,18.218994,30.310547
42720,2.260126,6.263232,-0.517148,15.350342,-27.740479,14.038086,30.333984
42760,3.648763,7.364564,0.119710,17.974854,-19.653320,9.674072,30.339844
42800,4.256891,8.068460,0.445322,8.453369,-0.915527,0.549316,30.328125
42840,3.964798,8.322245,0.919373,4.760742,-2.166748,-2.502441,30.326172
42880,3.318364,9.557653,0.703895,-7.171631,-27.343750,-3.021240,30.324219
42920,3.610456,11.449073,0.421380,-11.932373,-31.707764,-0.762939,30.330078
42960,5.094861,12.167333,1.302446,-24.047852,-53.375244,15.075684,30.341797
43000,6.291962,11.726800,-0.656011,-10.131836,-28.991699,18.554688,30.314453
43040,6.675035,9.528923,-2.844312,-5.645752,31.433105,8.239746,30.337891
43080,5.602432,7.920019,-3.787627,6.958008,33.905029,-9.277344,30.335938
43120,3.452439,9.198523,-4.414908,-21.881104,-3.753662,-13.702393,30.335938
43160,2.710236,10.630256,-2.576161,7.598877,41.717529,-21.881104,30.343750
43200,3.859453,8.916007,-0.201113,12.420654,58.319092,-33.935547,30.337891
43240,3.232172,6.555324,-1.096544,21.179199,50.506592,-13.336182,30.341797
43280,2.456451,6.038177,-1.197101,23.071289,37.200928,-0.701904,30.339844
43320,1.675941,6.833052,-0.354342,15.289307,25.726318,-4.241943,30.353516
43360,1.719037,8.231265,0.004788,7.354736,10.498047,5.004883,30.369141
43400,1.924938,8.796297,-0.205901,4.455566,3.845215,7.049561,30.345703
43440,3.141193,9.744401,-0.100556,11.322021,0.549316,1.251221,30.351562
43480,4.443638,12.042834,0.713472,-1.007080,26.519775,-2.838135,30.353516
43520,4.453215,13.091495,1.043872,-10.192871,47.454834,-8.483887,30.335938
43560,3.969586,12.722788,-0.952892,1.617432,33.172607,-8.483887,30.335938
43600,3.591303,10.419566,-3.217807,24.536133,20.690918,1.617432,30.343750
43640,4.979939,7.445967,-3.624821,21.453857,-8.056641,1.312256,30.337891
43680,5.430049,8.643068,-2.130840,10.772705,3.936768,11.230469,30.386719
43720,4.405331,10.026917,-1.168370,-4.974365,-29.266357,13.549805,30.388672
43760,2.676718,8.671799,-1.096544,-20.507812,-27.282715,14.221191,30.392578
43800,2.437297,6.057330,-1.331176,-11.474609,-40.405273,19.866943,30.396484
43840,2.475605,5.784391,-0.766145,2.899170,-41.534424,14.984131,30.396484
43880,3.150769,7.201759,0.043096,2.929688,-29.876709,11.383057,30.390625
43920,3.792415,7.967903,0.622492,-14.709473,-14.129639,0.152588,30.388672
43960,4.122815,8.585608,1.106121,-24.139404,-36.224365,3.234863,30.402344
44000,3.327940,10.505757,0.172383,-16.418457,-30.822754,2.014160,30.398438
44040,4.458004,11.880029,0.837971,-20.568848,-36.407471,12.237549,30.396484
44080,5.224148,11.999739,1.489193,-38.665771,-27.709961,2.990723,30.390625
44120,5.880159,10.970232,-2.331953,-9.368896,5.676270,0.885010,30.382812
44160,6.339846,8.413225,-3.998317,-5.828857,3.906250,1.312256,30.396484
44200,4.932055,8.207323,-3.562572,-20.568848,-4.669189,-6.469727,30.416016
44240,2.499547,10.467450,-4.050989,-38.208008,-18.585205,-28.747559,30.402344
44280,2.815581,10.247183,-1.872266,23.864746,14.068604,-20.080566,30.373047
44320,4.390966,7.685388,-0.239420,8.361816,23.101807,-12.969971,30.421875
44360,3.327940,6.143522,-1.019930,21.850586,16.326904,-2.746582,30.408203
44400,1.723825,6.584054,-0.612916,19.592285,10.589600,-1.251221,30.400391
44440,1.757344,7.455544,-0.047884,13.092041,0.122070,1.342773,30.396484
44480,2.197877,8.432379,0.100556,1.678467,-3.265381,7.354736,30.412109
44520,2.173935,8.896853,-0.440533,0.976562,-4.882812,3.906250,30.417969
44560,3.538630,10.002975,-0.268151,2.075195,4.333496,-2.014160,30.408203
44600,4.074931,12.109872,0.732626,-0.579834,25.054932,-18.768311,30.408203
44640,4.520253,12.871228,0.890643,-6.164551,47.271729,-31.341553,30.402344
44680,3.155558,12.066776,-1.781286,-5.340576,26.611328,-5.798340,30.412109
44720,3.126827,9.888053,-4.070143,16.845703,3.265381,-0.946045,30.404297
44760,5.104438,7.718906,-3.543418,33.874512,-15.991211,-3.356934,30.419922
44800,5.827487,8.858546,-1.752556,12.725830,-13.153076,14.678955,30.402344
44840,4.237737,10.026917,-0.847547,-4.302979,-7.629395,12.390137,30.412109
44880,2.264915,8.346188,-1.273715,-11.260986,-18.035889,13.183594,30.425781
44920,1.833959,6.110003,-1.517924,-1.159668,-42.938232,16.723633,30.378906
44960,2.628834,6.435614,-0.531513,8.514404,-34.576416,11.505127,30.423828
45000,3.653552,7.814674,0.047884,3.845215,-23.010254,2.655029,30.398438
45040,3.931279,7.972692,0.349553,-9.063721,-5.554199,-7.415771,30.410156
45080,3.801992,8.149862,0.732626,-14.556885,-13.092041,-4.211426,30.412109
45120,3.026271,9.806650,-0.114922,-9.582520,-22.338867,-3.051758,30.425781
45160,4.247314,11.611878,0.641646,-14.160156,-21.484375,7.568359,30.419922
45200,4.434062,12.330139,2.092532,-44.158936,-30.181885,3.509521,30.408203
45240,5.070919,11.142614,-0.861913,-29.632568,7.781982,-8.697510,30.417969
45280,7.067683,9.117120,-4.386178,13.458252,0.610352,-3.997803,30.435547
45320,5.214571,8.183381,-3.390190,-22.247314,22.979736,-10.284424,30.462891
45360,2.485181,9.509769,-3.524265,-11.596680,-6.805420,-16.906738,30.443359
45400,2.303222,10.917560,-2.427721,15.197754,13.122559,-22.857666,30.453125
45440,4.261679,9.313444,-0.751779,14.282227,35.125732,-17.181396,30.468750
45480,4.079720,6.742072,-1.115698,20.538330,47.821045,-11.657715,30.451172
45520,2.394202,6.205771,-1.058237,11.810303,35.919189,-4.882812,30.455078
45560,0.995988,7.082048,-0.411803,20.019531,19.226074,-4.028320,30.472656
45600,1.412579,7.924808,0.191536,21.514893,12.847900,4.028320,30.474609
45640,1.829170,9.093178,-0.253785,20.843506,8.087158,6.103516,30.458984
45680,3.083732,10.778696,-0.268151,14.434814,7.232666,2.075195,30.437500
45720,3.969586,12.382812,0.799663,-1.037598,33.172607,-8.514404,30.464844
45760,3.806781,12.703634,1.465251,-2.868652,54.687500,-26.824951,30.460938
45800,3.165135,12.516887,-0.368707,-19.195557,51.422119,-14.831543,30.478516
45840,2.710236,10.194510,-3.792415,4.608154,20.172119,-2.075195,30.468750
45880,3.462016,7.771579,-4.534618,49.835205,-11.962891,-0.518799,30.458984
45920,4.668694,8.863335,-2.245761,22.094727,-15.869141,18.493652,30.466797
45960,4.333505,10.486604,-0.766145,0.061035,-1.892090,20.904541,30.472656
46000,2.513912,8.604761,-1.254562,-10.314941,-14.801025,21.575928,30.480469
46040,1.149217,6.311116,-1.704672,3.723145,-51.025391,24.902344,30.468750
46080,2.044648,6.560112,-0.746991,7.171631,-46.508789,22.308350,30.484375
46120,3.481169,7.838616,-0.205901,10.467529,-28.656006,10.955811,30.482422
46160,4.146757,8.121132,0.253785,-5.554199,-1.434326,0.823975,30.470703
46200,4.065354,8.312668,0.454898,-8.331299,-11.779785,1.831055,30.490234
46240,3.102885,10.184934,-0.368707,-2.777100,-23.010254,2.380371,30.494141
46280,4.180276,12.263102,0.368707,-11.047363,-19.622803,13.305664,30.478516
46320,4.893748,12.315774,1.096544,-36.529541,-28.381348,13.366699,30.500000
46360,5.434838,11.128249,-2.068590,-6.744385,28.839111,8.270264,30.498047
46400,6.086061,8.829816,-3.873818,-12.451172,33.630371,15.991211,30.484375
46440,5.295974,7.412448,-3.581726,4.302979,4.669189,13.641357,30.484375
46480,3.375824,9.021352,-4.467580,-45.043945,-25.848389,-37.231445,30.498047
46520,2.470816,10.635044,-3.634398,9.918213,39.337158,-23.651123,30.492188
46560,3.816358,8.667010,0.191536,14.190674,34.179688,-18.310547,30.490234
46600,3.730166,6.378153,-0.928950,26.641846,31.646729,-9.277344,30.488281
46640,2.149993,6.521805,-0.948104,21.972656,19.042969,-8.178711,30.488281
46680,1.556231,7.556100,-0.225055,17.181396,11.596680,-5.340576,30.488281
46720,1.709460,8.164227,-0.181959,10.864258,2.807617,3.601074,30.500000
46760,1.910573,8.872911,-0.900220,11.505127,-7.995605,2.777100,30.498047
46800,3.385401,10.577583,-0.579397,2.899170,2.593994,-3.204346,30.523438
46840,4.118027,12.416330,0.488417,-8.026123,27.709961,-12.634277,30.476562
46880,4.089296,12.761095,0.933739,-11.077881,55.450439,-24.017334,30.503906
46920,3.342306,12.191275,-1.517924,-19.165039,38.238525,-4.425049,30.500000
46960,3.016694,9.658210,-4.309563,11.596680,3.509521,0.579834,30.513672
47000,4.170700,7.264008,-4.060566,30.914307,-22.430420,-2.746582,30.492188
47040,5.425261,8.532935,-2.169147,12.298584,-23.010254,16.479492,30.498047
47080,4.419696,10.251971,-1.010353,-4.699707,-6.805420,15.136719,30.503906
47120,2.413355,8.633492,-1.436521,-10.650635,-23.834229,20.355225,30.490234
47160,1.651999,5.928043,-1.824382,3.875732,-47.210693,20.263672,30.494141
47200,2.351106,6.181829,-0.861913,13.671875,-43.304443,15.899658,30.507812
47240,3.782839,7.666234,-0.181959,7.934570,-29.235840,6.072998,30.500000
47280,4.386178,8.164227,0.196325,-5.004883,-3.509521,-3.417969,30.572266
47320,4.261679,8.753201,0.488417,-11.535645,-13.488770,1.037598,30.552734
47360,3.390190,10.639832,-0.416591,-7.385254,-21.301270,2.197266,30.558594
47400,4.141969,12.191275,0.397437,-19.165039,-30.303955,12.878418,30.583984
47440,4.601655,12.162544,1.000776,-45.501709,-25.115967,6.347656,30.556641
47480,5.808333,10.716447,-2.509123,-4.364014,28.259277,-0.122070,30.562500
47520,6.210559,8.480263,-3.859453,-12.176514,27.221680,15.563965,30.556641
47560,5.305551,7.527370,-3.658340,-11.840820,-11.596680,6.134033,30.580078
47600,3.165135,9.562442,-4.323928,-55.572510,-13.458252,-41.900635,30.554688
47640,2.772485,10.472239,-2.820370,37.170410,46.783447,-26.367188,30.574219
47680,4.376601,8.073248,-0.359130,13.763428,40.863037,-18.829346,30.556641
47720,3.801992,6.081272,-1.182736,32.714844,42.663574,-10.314941,30.558594
47760,2.035071,6.493075,-0.790087,16.876221,34.088135,-16.326904,30.570312
47800,1.302446,7.340622,-0.411803,23.864746,13.610840,-8.666992,30.578125
47840,1.508347,8.183381,-0.205901,18.066406,4.302979,4.364014,30.570312
47880,1.963245,9.169792,-0.694318,16.387939,-4.577637,3.540039,30.570312
47920,3.284845,10.773908,-0.656011,8.728027,4.089355,-5.462646,30.552734
47960,4.122815,12.210428,0.574608,0.335693,34.637451,-16.265869,30.576172
48000,4.333505,12.502522,1.340753,-10.101318,72.814941,-23.498535,30.572266
48040,3.404555,12.004527,-1.168370,-19.927979,50.445557,-5.584717,30.566406
48080,2.815581,9.816227,-4.568137,19.165039,9.826660,-5.676270,30.578125
48120,3.658340,7.766790,-4.434062,47.973633,-24.322510,-3.601074,30.574219
48160,5.262455,8.844181,-2.169147,19.012451,-5.126953,8.453369,30.580078
48200,4.529830,10.414778,-0.809240,-13.397217,4.852295,17.822266,30.566406
48240,2.609680,8.877700,-1.316811,-8.941650,-5.859375,17.547607,30.607422
48280,1.618480,6.272809,-2.054225,10.711670,-38.848877,20.782471,30.593750
48320,2.164358,6.191406,-1.106121,15.411377,-32.592773,14.678955,30.580078
48360,3.596091,7.374141,-0.138864,6.896973,-21.728516,8.728027,30.589844
48400,3.912126,8.058883,0.119710,-3.417969,2.166748,-2.807617,30.595703
48440,3.955221,8.724471,0.469264,-9.643555,-12.634277,0.122070,30.607422
48480,3.141193,10.515334,-0.210690,-7.141113,-24.444580,-0.854492,30.589844
48520,4.041412,12.133814,0.316035,-10.498047,-29.998779,12.115479,30.605469
48560,4.577713,12.483368,0.665588,-31.097412,-34.545898,10.711670,30.587891
48600,5.612009,11.372458,-2.815581,-14.190674,29.541016,15.777588,30.599609
48640,6.502652,8.485051,-4.022259,-14.526367,29.113770,7.415771,30.605469
48680,5.013458,8.020576,-3.897760,-19.622803,-25.634766,-10.864258,30.572266
48720,2.212242,9.935937,-4.908113,-39.001465,-1.831055,-21.118164,30.597656
48760,2.748544,9.835381,-2.552219,42.785645,62.408447,-26.184082,30.601562
48800,4.209007,7.694964,0.215478,9.277344,59.539795,-25.024414,30.607422
48840,3.514688,6.081272,-1.297657,30.883789,39.398193,-9.094238,30.583984
48880,1.297657,6.435614,-1.067814,26.580811,16.296387,-14.129639,30.568359
48920,1.379060,7.589619,-0.143652,14.770508,37.353516,-11.535645,30.599609
48960,1.359907,8.901642,-0.225055,4.486084,-1.251221,7.415771,30.605469
49000,1.532289,9.619903,-0.665588,4.699707,-5.767822,1.647949,30.576172
49040,3.122039,10.611102,-0.517148,6.103516,12.268066,-6.072998,30.611328
49080,3.529053,12.033257,0.675165,-3.356934,48.034668,-8.026123,30.617188
49120,3.122039,12.689269,1.225831,-14.923096,77.606201,-8.422852,30.589844
49160,3.294421,11.875240,-1.508347,-18.432617,43.121338,-5.310059,30.615234
49200,3.639187,9.447520,-4.568137,24.932861,-1.708984,-2.105713,30.597656
49240,4.395754,7.852982,-4.022259,44.616699,-20.660400,-1.373291,30.630859
49280,5.267244,9.504981,-1.666364,11.932373,-4.943848,11.016846,30.652344
49320,3.902549,10.505757,-0.909797,-20.721436,-33.325195,12.420654,30.654297
49360,2.054225,8.523358,-1.350330,-14.556885,-23.101807,22.369385,30.654297
49400,1.441309,5.875371,-1.948880,0.366211,-49.621582,22.430420,30.656250
49440,2.226608,6.220136,-0.919373,11.505127,-49.407959,20.904541,30.634766
49480,3.624821,7.632715,-0.100556,7.598877,-27.770996,11.474609,30.662109
49520,3.825934,8.149862,0.086191,-4.882812,-6.500244,0.488281,30.638672
49560,3.677494,8.738836,0.493206,-11.566162,-27.709961,4.272461,30.644531
49600,2.863465,10.922348,-0.143652,-2.288818,-22.308350,0.061035,30.666016
49640,4.007894,12.373235,0.464475,-10.314941,-34.393311,13.763428,30.666016
49680,5.104438,12.598289,-0.272939,-7.812500,-21.484375,22.033691,30.669922
49720,6.047753,10.898406,-3.303998,-7.659912,37.384033,23.254395,30.669922
49760,5.789180,7.862558,-3.596091,-10.681152,18.035889,18.737793,30.664062
49800,4.510676,8.236053,-4.424485,-24.017334,-41.442871,-17.639160,30.658203
49840,2.667141,9.806650,-5.281609,-39.764404,12.725830,-18.280029,30.660156
49880,3.634398,9.188946,-1.695095,61.981201,85.174561,-37.902832,30.675781
49920,3.907337,7.244854,0.205901,3.845215,41.534424,-20.751953,30.664062
49960,2.547431,6.430826,-1.369483,28.167725,27.709961,-10.253906,30.669922
50000,1.575385,6.627151,-1.072602,24.688721,8.148193,-9.033203,30.671875
50040,1.680730,7.867347,-0.373495,15.045166,-8.483887,2.624512,30.667969
50080,1.570596,8.868123,-0.502782,4.119873,-4.730225,5.279541,30.669922
50120,2.269703,9.466674,-1.106121,12.878418,-1.434326,-2.197266,30.689453
50160,3.758897,11.587936,-0.387861,0.000000,15.472412,-10.314941,30.656250
50200,3.519476,12.952631,0.670376,-14.251709,40.771484,-18.066406,30.667969
50240,3.576937,12.536040,-0.857124,-27.252197,55.389404,-13.427734,30.664062
50280,3.117251,10.951078,-4.151546,-6.988525,18.341064,-5.310059,30.679688
50320,4.108450,8.461109,-4.797980,37.170410,-13.854980,-1.312256,30.648438
50360,5.908890,8.068460,-2.916138,24.749756,-3.814697,7.110596,30.687500
50400,5.094861,9.662998,-1.513135,8.270264,-1.037598,16.937256,30.675781
50440,2.700660,9.437943,-1.326388,-17.547607,-1.373291,12.634277,30.691406
50480,1.666364,6.689400,-1.781286,-3.784180,-31.494141,22.460938,30.683594
50520,2.001553,5.415684,-1.556231,11.444092,-45.166016,17.059326,30.681641
50560,3.299210,6.947973,-0.502782,7.629395,-34.210205,10.711670,30.699219
50600,4.094085,8.140285,-0.023942,-5.920410,-10.772705,-0.610352,30.677734
50640,3.988740,8.676587,0.397437,-12.969971,-5.645752,-3.601074,30.673828
50680,3.380613,9.926360,-0.124498,-14.495850,-23.620605,-0.213623,30.687500
50720,3.902549,11.841722,-0.220267,-15.563965,-22.644043,9.368896,30.687500
50760,4.390966,12.315774,1.024718,-43.182373,-36.285400,7.843018,30.677734
50800,4.955997,11.511322,-1.230620,-16.113281,13.793945,0.335693,30.697266
50840,5.750873,9.169792,-4.170700,4.699707,30.395508,13.488770,30.685547
50880,5.760449,7.283162,-3.591303,-3.021240,-8.789062,24.139404,30.679688
50920,4.304775,8.710106,-4.065354,-56.976318,-36.621094,-41.687012,30.691406
50960,2.413355,10.759542,-3.979163,-0.305176,45.349121,-36.529541,30.697266
51000,3.892972,9.078813,-0.186748,35.278320,38.452148,-18.249512,30.697266
51040,3.687071,6.722919,-0.670376,20.721436,34.118652,-11.322021,30.679688
51080,2.327164,6.426037,-1.015141,28.228760,26.092529,-10.955811,30.687500
51120,1.671153,7.115568,-0.354342,16.387939,16.235352,-6.195068,30.689453
51160,1.651999,8.025364,-0.114922,11.749268,2.136230,5.004883,30.703125
51200,1.699883,8.930372,-0.718261,8.087158,2.563477,4.577637,30.707031
51240,2.920926,10.079589,-0.900220,6.652832,4.791260,-2.471924,30.714844
51280,3.576937,12.109872,0.234632,-2.075195,21.728516,-11.718750,30.710938
51320,3.691859,12.842498,1.230620,-12.023926,56.579590,-24.902344,30.689453
51360,3.682282,12.114660,-1.446098,-17.730713,49.041748,-8.514404,30.703125
51400,3.313575,9.543288,-4.955997,26.153564,2.624512,-3.967285,30.716797
51440,4.797980,8.001422,-4.414908,42.846680,-24.688721,-0.579834,30.714844
51480,6.148310,9.409213,-1.944092,15.747070,-15.228271,16.723633,30.677734
51520,3.955221,10.060435,-0.919373,-13.000488,6.561279,14.770508,30.701172
51560,1.709460,7.867347,-1.508347,-6.134033,-13.122559,21.392822,30.742188
51600,1.422156,5.305551,-1.867477,11.993408,-43.518066,23.742676,30.736328
51640,2.571373,6.167464,-0.651223,19.226074,-31.066895,13.824463,30.734375
51680,4.118027,8.044518,-0.076614,9.826660,-10.345459,3.936768,30.755859
51720,4.323928,8.456321,0.158017,-11.871338,10.192871,-6.317139,30.769531
51760,3.581726,9.212888,0.177171,-12.359619,-15.869141,1.495361,30.753906
51800,2.901772,11.865664,-0.162806,-7.141113,-22.003174,4.119873,30.769531
51840,4.601655,12.703634,0.521936,-21.209717,-36.224365,17.761230,30.748047
51880,5.698200,11.994950,-0.847547,-10.437012,-5.218506,15.350342,30.744141
51920,6.191406,9.859323,-3.897760,-15.258789,40.283203,10.375977,30.753906
51960,5.712565,7.747637,-3.964798,-12.512207,7.141113,7.995605,30.755859
52000,3.672705,9.006987,-4.888960,-48.034668,-21.453857,-23.406982,30.740234
52040,1.685518,10.247183,-4.553771,-7.415771,27.435303,-26.458740,30.761719
52080,3.509900,8.513782,-0.541090,35.308838,39.672852,-25.238037,30.751953
52120,3.801992,6.555324,-0.526724,13.092041,33.538818,-17.730713,30.751953
52160,2.585738,6.066907,-1.259350,26.275635,27.191162,-13.854980,30.763672
52200,1.522712,6.727707,-0.507571,20.416260,11.993408,-11.322021,30.765625
52240,1.460463,8.140285,-0.114922,13.153076,2.197266,-0.671387,30.750000
52280,1.479617,9.045294,-0.541090,2.685547,0.549316,1.800537,30.751953
52320,2.533065,10.108319,-0.861913,6.072998,0.915527,-3.936768,30.746094
52360,3.509900,12.167333,-0.081403,0.305176,21.972656,-15.716553,30.757812
52400,3.749320,13.158532,0.804452,-14.343262,63.720703,-21.209717,30.750000
52440,3.519476,12.674904,-1.398214,-20.935059,61.492920,-14.587402,30.759766
52480,3.236961,9.993398,-4.328717,9.094238,18.951416,-7.720947,30.759766
52520,4.486734,7.551312,-4.276044,30.670166,-10.925293,-3.356934,30.753906
52560,5.568913,9.136273,-2.475605,23.803711,-18.585205,9.460449,30.769531
52600,3.979163,10.477027,-0.948104,-9.582520,1.342773,13.153076,30.757812
52640,1.915361,8.734048,-1.149217,-13.946533,-10.833740,18.402100,30.777344
52680,1.537078,5.564125,-1.939303,10.345459,-50.537109,23.681641,30.755859
52720,2.111686,5.568913,-0.842759,15.350342,-39.367676,17.059326,30.765625
52760,3.107674,7.383718,-0.076614,9.399414,-20.538330,6.866455,30.781250
52800,4.060566,8.250419,0.124498,-8.026123,-1.922607,-2.777100,30.794922
52840,3.825934,9.002198,0.086191,-8.605957,-26.794434,3.234863,30.753906
52880,3.088520,11.434708,-0.306458,3.662109,-29.815674,7.019043,30.779297
52920,4.548983,12.459426,0.608127,-8.575439,-42.999268,22.216797,30.767578
52960,4.955997,12.176909,-0.110133,-11.627197,-23.834229,20.996094,30.769531
53000,6.105214,10.558430,-3.960010,-1.647949,17.852783,22.186279,30.771484
53040,6.081272,8.221688,-3.945644,-16.632080,33.569336,-10.131836,30.771484
53080,4.247314,8.609550,-4.783615,-25.329590,-29.388428,-17.791748,30.779297
53120,2.006341,10.151415,-4.951209,-30.090332,7.690430,-25.970459,30.775391
53160,3.112462,9.208099,-2.130840,44.860840,78.674316,-28.259277,30.755859
53200,4.209007,7.110779,-0.181959,3.479004,59.539795,-25.909424,30.769531
53240,2.940080,6.076484,-1.570596,24.597168,42.266846,-17.700195,30.798828
53280,0.967257,6.502652,-1.134852,24.597168,19.195557,-17.028809,30.779297
53320,1.197101,7.699753,-0.474052,12.756348,25.451660,-5.828857,30.785156
53360,1.498770,8.892065,-0.588974,5.889893,3.845215,5.950928,30.773438
53400,2.001553,9.528923,-0.852336,9.246826,-0.885010,-1.678467,30.759766
53440,3.385401,11.075577,-0.421380,4.455566,18.463135,-7.476807,30.777344
53480,3.552995,12.689269,0.703895,-11.627197,57.922363,-8.026123,30.789062
53520,3.294421,13.029245,0.229843,-15.838623,69.488525,-13.305664,30.820312
53560,3.021482,11.602302,-2.729390,-12.023926,22.186279,-8.117676,30.816406
53600,3.227384,8.676587,-5.118803,31.066895,-6.317139,2.136230,30.847656
53640,4.606444,8.025364,-3.907337,35.766602,-20.660400,9.368896,30.818359
53680,4.860229,10.271125,-1.661576,12.969971,-15.258789,17.669678,30.841797
53720,3.323152,10.141838,-1.216254,-13.519287,-26.336670,20.599365,30.818359
53760,1.939303,7.149086,-1.503559,-8.392334,-27.740479,24.200439,30.833984
53800,1.924938,5.382165,-1.565808,14.312744,-39.916992,24.414062,30.824219
53840,2.896984,6.531382,-0.517148,20.965576,-25.146484,18.463135,30.824219
53880,3.452439,7.953538,-0.119710,-3.417969,-3.875732,2.960205,30.839844
53920,3.749320,8.461109,0.181959,-19.195557,-3.448486,1.251221,30.843750
53960,3.165135,9.552865,-0.229843,-13.183594,-33.172607,6.561279,30.847656
54000,3.035848,12.085930,-0.387861,-1.617432,-23.559570,11.199951,30.832031
54040,5.166687,12.674904,-0.272939,-4.577637,-40.100098,22.155762,30.832031
54080,5.985504,12.205640,-2.695871,-10.955811,15.716553,11.169434,30.833984
54120,5.410896,8.858546,-3.754108,-34.149170,37.780762,-28.381348,30.867188
54160,4.022259,7.718906,-4.754885,-9.429932,-32.073975,-17.547607,30.826172
54200,2.212242,9.390059,-5.396531,-45.623779,-29.602051,-18.463135,30.843750
54240,2.753332,10.328587,-3.112462,-0.701904,39.123535,-24.078369,30.832031
54280,3.600879,8.810662,-0.244209,-4.150391,36.895752,-25.329590,30.853516
54320,2.911349,6.785168,-1.154005,5.554199,26.458740,-16.326904,30.832031
54360,1.848324,6.320693,-1.331176,18.798828,11.474609,-4.302979,30.828125
54400,1.297657,6.823475,-0.612916,16.845703,-2.075195,0.122070,30.847656
54440,1.302446,8.192958,0.038307,-0.671387,-7.385254,6.011963,30.830078
54480,1.527501,8.825027,-0.703895,0.427246,1.617432,2.990723,30.843750
54520,2.911349,9.888053,-0.943315,7.995605,10.040283,-2.716064,30.855469
54560,2.997540,12.152967,0.158017,0.061035,25.817871,-14.495850,30.826172
54600,2.806004,13.455414,0.052672,-11.138916,49.194336,-19.134521,30.833984
54640,1.872266,12.952631,-2.461239,-5.767822,21.667480,-8.941650,30.833984
54680,2.547431,10.137050,-4.007894,9.826660,6.347656,0.793457,30.841797
54720,5.200206,7.747637,-3.533842,25.543213,-0.823975,9.796143,30.841797
54760,5.243302,9.342175,-1.910573,14.495850,-23.773193,20.263672,30.863281
54800,3.184288,10.467450,-1.149217,-12.115479,-21.331787,17.303467,30.833984
54840,1.819593,8.135497,-1.450886,-13.458252,-20.782471,21.148682,30.832031
54880,2.154782,5.516241,-1.527501,5.767822,-36.010742,19.714355,30.835938
54920,2.810793,6.148310,-0.684742,10.101318,-32.775879,13.854980,30.837891
54960,3.035848,7.766790,-0.402226,0.427246,-22.125244,6.500244,30.828125
55000,3.280056,8.398860,0.153229,-18.188477,-9.857178,-2.624512,30.863281
55040,3.169923,8.968679,0.296881,-18.981934,-39.611816,2.502441,30.863281
55080,2.513912,11.252748,-0.287304,-4.638672,-33.447266,4.730225,30.861328
55120,4.146757,12.282255,0.636858,-23.590088,-46.539307,17.669678,30.849609
55160,4.908113,12.148179,-0.296881,-29.113770,-31.188965,7.904053,30.853516
55200,6.009446,10.874464,-3.720589,-12.512207,7.354736,2.349854,30.847656
55240,5.726931,8.556877,-3.442862,-21.911621,18.768311,-15.808105,30.857422
55280,3.404555,8.939949,-4.592079,-23.986816,-36.193848,-9.155273,30.867188
55320,2.102109,10.457873,-4.544195,-13.458252,10.650635,-20.477295,30.853516
55360,3.711013,9.299079,-0.660800,0.946045,47.241211,-26.916504,30.861328
55400,3.725378,6.770802,-0.636858,5.157471,49.407959,-19.958496,30.861328
55440,2.552219,5.870583,-1.422156,22.552490,35.797119,-8.361816,30.880859
55480,1.302446,7.072472,-0.608127,16.540527,25.329590,-5.920410,30.859375
55520,0.972046,8.398860,-0.196325,13.122559,14.434814,-0.823975,30.906250
55560,1.043872,8.896853,-0.119710,5.645752,2.105713,5.950928,30.880859
55600,1.556231,9.227253,-0.354342,8.850098,-3.265381,1.800537,30.902344
55640,2.968810,10.620679,-0.201113,3.662109,11.138916,-3.295898,30.890625
55680,3.485958,12.052411,0.962469,-4.608154,31.646729,-8.392334,30.902344
55720,3.342306,12.746730,0.804452,-9.185791,51.116943,-19.500732,30.888672
55760,2.054225,12.531252,-1.862689,-14.648438,24.505615,-2.716064,30.904297
55800,2.106898,9.888053,-4.367024,24.383545,-4.669189,0.213623,30.917969
55840,4.462792,8.049306,-3.562572,29.113770,-21.942139,3.356934,30.910156
55880,5.276821,9.921572,-1.493982,14.099121,-2.563477,24.230957,30.888672
55920,3.548207,10.486604,-0.928950,-10.742188,-4.333496,15.472412,30.896484
55960,1.690306,7.920019,-1.532289,-3.082275,-14.373779,20.660400,30.898438
56000,1.580173,5.664681,-1.498770,17.150879,-31.707764,20.965576,30.916016
56040,2.485181,6.177041,-0.488417,15.441895,-31.707764,14.526367,30.896484
56080,2.944868,7.718906,-0.330400,11.352539,-23.406982,8.666992,30.880859
56120,3.375824,8.413225,0.229843,-5.859375,-5.249023,-0.152588,30.916016
56160,3.284845,9.265560,0.526724,-13.946533,-25.756836,4.150391,30.919922
56200,2.528277,11.176133,-0.325611,-3.479004,-30.914307,5.187988,30.904297
56240,4.237737,12.176909,0.593762,-11.932373,-42.266846,20.690918,30.919922
56280,4.855441,11.980585,0.454898,-34.973145,-35.675049,11.718750,30.943359
56320,5.607220,10.821792,-3.035848,-11.077881,17.883301,-1.251221,30.916016
56360,5.975927,8.729259,-3.782839,-22.033691,34.973145,-13.549805,30.912109
56400,4.525041,8.437167,-4.132392,-11.077881,-22.308350,-3.112793,30.888672
56440,1.862689,10.596737,-4.400543,-33.843994,-16.784668,-22.918701,30.910156
56480,2.394202,10.070012,-2.130840,22.247314,36.437988,-22.949219,30.898438
56520,3.677494,7.359776,-0.579397,6.591797,31.860352,-15.533447,30.917969
56560,2.796427,5.731719,-1.235408,14.892578,30.883789,-8.697510,30.910156
56600,1.848324,6.382942,-0.727837,14.190674,23.681641,-3.601074,30.929688
56640,1.331176,7.886500,-0.143652,18.737793,19.134521,-0.732422,30.931641
56680,1.431733,8.839393,0.014365,10.772705,7.720947,5.493164,30.914062
56720,1.738190,9.241618,-0.550666,11.596680,9.399414,-0.427246,30.921875
56760,3.059790,10.635044,-0.330400,9.246826,25.756836,-5.920410,30.925781
56800,3.203442,12.617443,0.746991,7.659912,40.527344,-16.815186,30.910156
56840,3.691859,13.163321,0.421380,-14.923096,64.483643,-27.038574,30.921875
56880,3.050213,11.822568,-3.236961,-12.268066,34.423828,-7.537842,30.916016
56920,3.399766,9.193734,-5.166687,55.572510,-2.319336,-3.295898,30.927734
56960,5.971139,8.566454,-3.438074,51.391602,0.213623,6.805420,30.925781
57000,5.559336,10.137050,-1.599327,2.990723,15.686035,21.301270,30.929688
57040,2.590526,9.696517,-1.364695,-3.112793,14.129639,16.448975,30.931641
57080,1.283292,6.675035,-1.857901,11.474609,-23.315430,28.289795,30.925781
57120,1.963245,5.123591,-1.527501,30.517578,-31.341553,21.179199,30.919922
57160,3.260903,6.842628,-0.172383,15.075684,-17.028809,12.695312,30.927734
57200,3.792415,8.207323,-0.172383,-1.281738,3.845215,-1.739502,30.939453
57240,3.643975,8.499416,0.014365,-17.089844,11.688232,-10.711670,30.925781
57280,3.289633,9.418790,-0.038307,-11.596680,-25.299072,-4.669189,30.945312
57320,3.313575,11.899182,-0.320823,-3.967285,-22.521973,4.180908,30.919922
57360,4.663905,12.871228,0.876278,-28.564453,-37.994385,11.749268,30.923828
57400,5.262455,11.779472,-0.124498,-33.050537,-13.305664,0.946045,30.931641
57440,6.038177,9.418790,-3.902549,2.227783,12.298584,21.301270,30.921875
57480,5.975927,7.704541,-4.299986,-18.920898,22.796631,-5.950928,30.984375
57520,3.648763,9.169792,-4.592079,-41.320801,-10.650635,-19.073486,30.962891
57560,1.321599,11.070788,-4.175488,-12.481689,23.834229,-34.240723,30.955078
57600,2.992752,9.308656,-1.321599,37.292480,53.131104,-22.644043,30.974609
57640,4.094085,6.689400,-0.574608,11.993408,47.576904,-13.824463,30.972656
57680,2.700660,5.894525,-1.345541,19.134521,40.618896,-8.514404,30.984375
57720,0.890643,6.852205,-0.751779,20.294189,17.425537,-4.455566,30.992188
57760,1.163582,7.900866,-0.368707,17.456055,15.625000,-6.011963,30.968750
57800,1.470040,8.872911,-0.397437,9.216309,2.685547,3.936768,30.972656
57840,2.303222,9.777920,-0.665588,11.444092,3.662109,-9.185791,30.986328
57880,3.811569,11.602302,0.129287,0.885010,28.442383,-10.864258,30.974609
57920,3.691859,13.038822,1.561020,-13.610840,82.977295,-13.153076,30.980469
57960,3.055001,12.995727,0.019154,-22.827148,86.547852,-7.873535,30.968750
58000,2.954445,10.769119,-3.907337,-5.950928,23.010254,-5.737305,30.972656
58040,3.256114,8.437167,-4.797980,37.597656,-4.516602,-1.373291,30.974609
58080,4.290410,8.877700,-3.232172,30.670166,-10.681152,3.997803,30.962891
58120,4.505888,10.788273,-1.340753,-4.364014,-29.205322,12.664795,30.976562
58160,2.724602,9.284714,-1.197101,-14.862061,-29.113770,19.744873,30.994141
58200,1.273715,6.493075,-1.896208,4.821777,-51.727295,28.869629,30.978516
58240,1.436521,5.674258,-1.297657,14.892578,-52.856445,24.505615,30.964844
58280,2.509123,7.173028,-0.158017,16.418457,-32.623291,16.143799,30.980469
58320,3.581726,8.058883,0.215478,-6.866455,-8.148193,3.143311,31.005859
58360,4.132392,8.446744,0.335188,-18.737793,-20.660400,4.028320,30.998047
58400,3.035848,10.371682,-0.397437,-2.838135,-30.822754,5.737305,30.998047
58440,3.763685,12.698846,0.368707,-1.129150,-26.916504,18.951416,30.984375
58480,4.625597,12.713211,0.828394,-33.752441,-32.714844,14.587402,30.996094
58520,5.023035,11.022904,-2.930503,-9.704590,18.829346,13.671875,30.982422
58560,5.631162,8.485051,-4.726154,-26.245117,15.075684,-5.493164,30.984375
58600,4.036624,8.757990,-4.544195,-27.801514,-32.440186,-9.796143,30.980469
58640,1.474828,11.032481,-5.075707,-41.564941,-26.397705,-19.409180,30.984375
58680,2.217031,10.323798,-2.154782,13.031006,58.197021,-26.000977,30.980469
58720,3.615245,7.402872,-0.253785,5.065918,28.350830,-20.538330,31.011719
58760,2.978387,5.707777,-1.010353,13.885498,30.364990,-7.232666,31.003906
58800,1.101333,6.066907,-0.780510,20.812988,3.540039,-2.777100,31.007812
58840,0.794875,7.369353,-0.205901,16.723633,-6.622314,3.875732,30.978516
58880,1.134852,8.757990,-0.263362,5.004883,-7.049561,8.605957,31.005859
58920,1.853112,9.514558,-0.775721,5.187988,-10.559082,2.441406,30.984375
58960,3.299210,11.204864,-0.526724,3.906250,8.850098,-9.826660,31.017578
59000,3.672705,13.125013,0.751779,-4.211426,38.452148,-18.280029,31.027344
59040,3.169923,13.766660,0.000000,-18.463135,72.937012,-10.864258,31.003906
59080,2.068590,12.162544,-3.356671,-9.307861,17.028809,-4.516602,31.011719
59120,2.628834,8.935161,-4.726154,27.587891,-10.345459,4.150391,30.998047
59160,4.271256,7.723695,-3.418920,24.597168,-23.376465,9.765625,31.009766
59200,4.362236,9.691729,-1.915361,0.427246,-50.201416,22.277832,30.984375
59240,2.585738,9.816227,-1.168370,-16.540527,-31.402588,23.651123,30.994141
59280,1.412579,7.192182,-1.733402,-9.124756,-52.368164,29.846191,30.996094
59320,2.082955,5.626374,-1.575385,8.026123,-59.143066,27.862549,31.015625
59360,3.327940,6.785168,-0.392649,8.392334,-40.771484,15.106201,31.003906
59400,3.533842,8.149862,0.119710,-8.178711,-17.211914,5.493164,31.023438
59440,3.768473,8.508993,0.186748,-16.723633,-20.904541,5.157471,31.001953
59480,3.165135,9.950302,-0.258574,-12.115479,-39.062500,7.720947,31.042969
59520,3.347094,11.975797,-0.215478,-7.904053,-23.590088,13.183594,31.044922
59560,4.386178,12.492945,0.440533,-26.947021,-45.074463,19.439697,31.046875
59600,4.649539,12.148179,-1.771709,-1.129150,33.508301,19.256592,31.044922
59640,5.511452,8.820239,-4.491522,-21.240234,4.821777,4.699707,31.050781
59680,5.339070,7.891289,-4.237737,-19.531250,-37.780762,-4.821777,31.031250
59720,2.920926,10.089166,-5.176264,-63.323975,-48.370361,-28.411865,31.046875
59760,1.872266,10.414778,-3.974375,3.143311,25.390625,-23.956299,31.052734
59800,3.141193,8.097190,0.129287,17.089844,9.735107,-18.035889,31.054688
59840,2.748544,6.349423,-0.770933,16.601562,8.819580,-9.857178,31.037109
59880,2.011129,5.870583,-0.952892,21.789551,5.126953,-0.579834,31.046875
59920,1.470040,6.828263,-0.330400,17.120361,-8.575439,6.896973,31.042969
59960,1.623269,8.446744,-0.272939,3.540039,-7.141113,8.361816,31.048828
60000,1.675941,9.414001,-0.972046,1.007080,-6.835938,2.990723,31.050781
60040,3.131616,11.147403,-0.622492,4.333496,-2.380371,-5.737305,31.058594
60080,3.275268,13.431472,0.325611,-8.453369,19.897461,-19.104004,31.048828
60120,3.782839,13.570335,-0.756568,-21.087646,52.581787,-31.982422,31.046875
60160,2.964022,11.702858,-4.127604,-12.023926,14.404297,-12.603760,31.060547
60200,3.605668,8.652645,-4.898537,26.794434,-21.850586,-4.455566,31.046875
60240,5.702989,8.058883,-3.284845,19.805908,-19.226074,1.525879,31.056641
60280,5.013458,9.615114,-1.920150,-1.281738,-27.862549,20.080566,31.056641
60320,2.528277,9.112331,-1.431733,-16.876221,-15.960693,14.221191,31.064453
60360,1.575385,6.512228,-1.905785,-9.185791,-43.426514,24.078369,31.048828
60400,2.193089,5.353435,-1.431733,6.896973,-46.905518,16.387939,31.054688
60440,2.882619,6.991069,-0.416591,11.535645,-31.250000,8.911133,31.060547
60480,3.462016,7.967903,-0.071826,-7.293701,-7.904053,-1.647949,31.046875
60520,3.840300,8.355764,0.225055,-20.263672,-17.333984,1.037598,31.066406
60560,2.849100,10.089166,-0.383072,-10.559082,-33.172607,1.312256,31.070312
60600,3.667917,12.095507,-0.105345,-7.446289,-26.367188,15.716553,31.060547
60640,5.157111,12.382812,0.430956,-18.127441,-44.006348,22.003174,31.066406
60680,5.726931,11.856087,-2.169147,-5.950928,28.564453,16.967773,31.070312
60720,6.282385,8.954314,-3.998317,-17.791748,30.792236,-5.340576,31.062500
60760,4.903325,7.852982,-4.266468,-8.209229,0.183105,-14.038086,31.076172
60800,2.504335,10.070012,-4.975151,-35.064697,-22.552490,-24.658203,31.087891
60840,1.972822,10.457873,-3.749320,9.246826,49.560547,-27.587891,31.080078
60880,3.524265,8.154651,-0.134075,12.023926,45.166016,-24.230957,31.060547
60920,3.462016,6.047753,-0.665588,12.512207,50.201416,-10.253906,31.056641
60960,1.771709,5.765238,-1.240196,26.641846,25.268555,-7.476807,31.074219
61000,0.746991,7.220912,-0.397437,19.287109,10.498047,-3.997803,31.080078
61040,1.594538,8.446744,-0.057461,10.650635,6.683350,0.183105,31.089844
61080,1.460463,9.308656,-0.531513,3.814697,1.037598,0.579834,31.078125
61120,2.667141,10.505757,-0.761356,9.094238,5.249023,-11.138916,31.072266
61160,3.591303,12.492945,0.124498,-1.220703,27.679443,-18.768311,31.101562
61200,3.682282,13.359646,0.593762,-14.739990,84.106445,-18.432617,31.076172
61240,2.767697,12.588713,-2.614468,-7.751465,38.787842,-9.979248,31.070312
61280,2.647987,9.998186,-4.769250,31.097412,7.446289,-0.671387,31.078125
61320,4.338294,8.015787,-4.041412,31.433105,-13.793945,2.990723,31.070312
61360,4.745308,9.557653,-2.351106,13.031006,-21.514893,17.333984,31.099609
61400,3.093309,10.208876,-1.216254,-9.307861,-20.843506,23.498535,31.076172
61440,1.446098,7.757214,-1.522712,-10.772705,-33.782959,27.801514,31.111328
61480,1.393425,5.152322,-1.790863,6.744385,-44.250488,23.773193,31.128906
61520,2.729390,5.995081,-0.708684,7.568359,-35.491943,16.906738,31.142578
61560,3.529053,7.742848,-0.210690,1.617432,-16.510010,5.889893,31.134766
61600,3.696647,8.580819,0.124498,-12.390137,-0.488281,-3.021240,31.144531
61640,3.337517,9.533711,-0.090980,-8.361816,-25.512695,2.868652,31.136719
61680,2.734178,11.669339,-0.569820,-0.823975,-21.850586,9.368896,31.115234
61720,3.773262,12.607866,-0.023942,-12.664795,-42.602539,23.773193,31.125000
61760,4.845864,12.550406,-1.316811,14.648438,16.510010,38.452148,31.117188
61800,6.210559,9.538500,-3.801992,-21.850586,54.779053,5.950928,31.148438
61840,6.311116,7.120356,-4.218584,-1.129150,-11.169434,-0.671387,31.125000
61880,4.362236,9.279925,-4.735731,-42.022705,-54.046631,-44.219971,31.117188
61920,2.422932,10.457873,-5.118803,-31.188965,31.585693,-32.684326,31.142578
61960,3.145981,8.920795,-1.244985,58.502197,61.828613,-27.343750,31.134766
62000,3.112462,6.890512,0.057461,1.770020,27.740479,-13.854980,31.134766
62040,1.991976,6.282385,-1.082179,18.676758,16.357422,-2.655029,31.128906
62080,1.091756,6.584054,-0.665588,14.678955,1.159668,-1.403809,31.130859
62120,1.412579,7.929596,-0.215478,0.305176,-4.180908,8.880615,31.132812
62160,1.244985,8.930372,-0.861913,-5.584717,-3.845215,5.157471,31.130859
62200,2.288857,9.849746,-1.230620,3.051758,-4.791260,-1.495361,31.115234
62240,3.380613,11.856087,-0.354342,-2.563477,16.448975,-12.390137,31.134766
62280,3.682282,12.943054,0.191536,-3.326416,47.271729,-30.181885,31.125000
62320,3.452439,12.837709,-1.915361,-13.702393,42.053223,-17.791748,31.144531
62360,2.954445,10.864887,-4.046201,7.232666,6.042480,-7.751465,31.132812
62400,4.400543,7.848193,-4.237737,32.501221,-14.709473,-5.065918,31.121094
62440,5.861006,8.322245,-2.537854,8.911133,-13.824463,10.528564,31.128906
62480,4.587290,9.806650,-1.441309,1.312256,0.671387,12.084961,31.128906
62520,2.245761,8.820239,-1.221043,-10.131836,-2.136230,10.437012,31.134766
62560,1.728614,6.282385,-1.441309,-1.220703,-29.388428,14.862061,31.130859
62600,2.279280,5.961562,-0.885855,11.474609,-32.135010,11.840820,31.154297
62640,2.777274,7.359776,-0.349553,7.385254,-15.655518,3.875732,31.152344
62680,3.342306,8.039729,0.071826,-10.070801,3.875732,-4.180908,31.158203
62720,3.634398,8.595184,0.517148,-15.563965,-12.329102,-0.335693,31.132812
62760,2.901772,10.548853,-0.047884,-7.171631,-18.310547,-0.701904,31.164062
62800,3.730166,12.430696,0.670376,-7.324219,-30.090332,12.847900,31.140625
62840,4.266468,12.756307,0.885855,-36.102295,-34.454346,16.571045,31.134766
62880,5.109226,11.089942,-3.074155,1.495361,27.984619,19.500732,31.136719
62920,6.014235,8.456321,-4.525041,-18.707275,18.310547,13.824463,31.166016
62960,4.989516,8.599973,-3.816358,-7.476807,-17.486572,-5.615234,31.152344
63000,2.245761,10.548853,-4.434062,-51.971436,-11.779785,-30.853271,31.154297
63040,1.929727,10.065224,-2.389413,41.076660,49.499512,-28.747559,31.173828
63080,3.706224,7.417237,-0.244209,23.468018,38.238525,-16.601562,31.181641
63120,3.227384,5.884948,-0.967257,20.111084,34.759521,-4.058838,31.162109
63160,1.628057,6.215348,-0.900220,20.019531,29.937744,-5.920410,31.148438
63200,1.043872,7.728483,-0.296881,18.432617,14.038086,0.366211,31.142578
63240,1.240196,8.892065,-0.282516,8.666992,0.152588,6.256104,31.148438
63280,1.920150,9.528923,-0.842759,11.871338,-2.075195,1.922607,31.130859
63320,3.562572,11.214440,-0.277727,5.218506,12.512207,-3.112793,31.167969
63360,3.811569,12.727576,0.641646,-6.927490,39.062500,-18.463135,31.175781
63400,3.538630,13.057976,-0.320823,-11.840820,62.744141,-34.912109,31.171875
63440,2.671929,11.755530,-3.524265,-6.042480,28.656006,-11.566162,31.187500
63480,3.117251,8.935161,-4.568137,30.029297,-0.091553,-2.441406,31.193359
63520,4.951209,8.240842,-3.552995,26.092529,-8.941650,5.706787,31.201172
63560,4.668694,10.132261,-2.006341,-3.509521,-27.496338,21.362305,31.197266
63600,2.705448,9.696517,-1.039083,-15.594482,-5.523682,18.676758,31.193359
63640,1.297657,6.900089,-1.857901,-3.265381,-40.161133,29.876709,31.185547
63680,1.776498,5.214571,-1.666364,11.932373,-45.440674,21.728516,31.189453
63720,2.786851,6.306327,-0.416591,13.580322,-28.717041,11.962891,31.228516
63760,3.323152,7.924808,0.114922,0.915527,-6.103516,1.251221,31.216797
63800,3.763685,8.743625,0.397437,-13.641357,-10.253906,0.030518,31.197266
63840,3.112462,10.319010,-0.167594,-7.843018,-30.151367,4.241943,31.197266
63880,3.529053,12.387600,-0.071826,-6.530762,-23.040771,13.427734,31.208984
63920,4.577713,12.904747,0.277727,-17.120361,-43.121338,22.735596,31.201172
63960,5.487510,11.923124,-2.485181,0.579834,31.890869,36.071777,31.205078
64000,6.220136,8.585608,-4.060566,-20.324707,32.043457,1.251221,31.218750
64040,5.023035,8.020576,-4.558560,-14.282227,-33.996582,-26.519775,31.224609
64080,2.331953,10.156203,-5.516241,-50.964355,-20.233154,-24.200439,31.214844
64120,2.049437,9.902418,-3.720589,19.714355,64.666748,-34.210205,31.197266
64160,3.711013,7.709330,0.330400,14.190674,45.104980,-27.954102,31.201172
64200,3.069367,6.023811,-0.871489,21.789551,36.254883,-10.223389,31.210938
64240,1.398214,6.066907,-1.106121,24.414062,14.862061,-6.408691,31.216797
64280,0.928950,7.513005,-0.588974,20.080566,5.157471,-2.105713,31.203125
64320,1.359907,8.887277,-0.450110,5.249023,-1.007080,4.577637,31.205078
64360,1.632846,9.404425,-0.900220,7.019043,-4.058838,0.366211,31.212891
64400,3.256114,10.788273,-0.555455,2.288818,15.350342,-10.894775,31.212891
64440,3.509900,12.636597,0.057461,-2.136230,32.653809,-19.805908,31.214844
64480,3.371036,13.431472,-0.469264,-10.345459,73.333740,-13.519287,31.185547
64520,2.509123,12.689269,-3.040636,-8.422852,31.127930,-9.277344,31.214844
64560,2.671929,9.490616,-4.347870,14.770508,-2.136230,2.197266,31.197266
64600,4.338294,7.144298,-4.027047,26.062012,-10.711670,4.486084,31.201172
64640,5.037400,8.805874,-2.370260,12.939453,-24.780273,20.629883,31.210938
64680,3.452439,9.864111,-1.393425,-2.807617,-22.338867,19.989014,31.214844
64720,1.642422,7.934384,-1.249773,-9.948730,-23.132324,22.338867,31.205078
64760,1.819593,5.607220,-1.623269,6.072998,-39.215088,21.392822,31.195312
64800,2.949656,6.344635,-0.833182,13.763428,-31.463623,13.854980,31.191406
64840,3.251326,7.972692,-0.248997,6.225586,-10.559082,4.089355,31.203125
64880,3.394978,8.523358,0.000000,-8.850098,-0.183105,-0.946045,31.199219
64920,3.337517,9.332599,0.148441,-16.815186,-31.127930,4.638672,31.218750
64960,2.896984,11.674128,-0.268151,-10.620117,-24.719238,6.103516,31.207031
65000,4.534618,12.416330,0.474052,-21.545410,-35.980225,18.402100,31.212891
65040,5.377377,12.258312,-0.790087,-5.065918,-1.373291,18.768311,31.210938
65080,5.774815,10.093954,-4.429273,-20.721436,28.259277,15.014648,31.208984
65120,5.425261,7.852982,-4.711789,-21.820068,-5.462646,-0.976562,31.224609
65160,3.256114,9.739613,-5.228937,-51.269531,-26.489258,-38.482666,31.214844
65200,1.197101,10.658986,-4.716578,-11.108398,20.599365,-21.636963,31.220703
65240,2.873042,8.422802,-0.718261,43.914795,53.985596,-28.686523,31.216797
65280,3.701436,6.234501,-0.263362,7.415771,33.355713,-14.221191,31.220703
65320,2.360683,5.717354,-1.393425,29.205322,24.414062,-0.396729,31.224609
65360,1.082179,6.631939,-0.675165,23.040771,10.620117,1.434326,31.236328
65400,1.144428,8.236053,-0.435745,10.528564,0.335693,7.324219,31.257812
65440,1.350330,9.299079,-0.751779,0.885010,-6.622314,7.385254,31.265625
65480,2.614468,10.137050,-0.651223,0.579834,-2.593994,-1.434326,31.281250
65520,3.548207,11.932701,-0.359130,-1.281738,20.660400,-13.366699,31.255859
65560,3.701436,13.460202,-0.129287,-1.831055,55.450439,-24.383545,31.259766
65600,2.758120,13.460202,-2.427721,-14.862061,39.398193,-15.502930,31.246094
65640,2.916138,10.903194,-4.496311,7.781982,6.439209,-1.403809,31.263672
65680,4.563348,7.570466,-4.060566,21.942139,-16.418457,5.035400,31.244141
65720,5.013458,7.939173,-2.652776,6.195068,-23.498535,19.287109,31.246094
65760,3.605668,9.485827,-1.403002,-1.403809,-21.514893,21.331787,31.255859
65800,1.862689,8.513782,-1.398214,-12.237549,-21.667480,21.270752,31.259766
65840,1.680730,6.047753,-1.762132,0.701904,-39.489746,20.721436,31.255859
65880,2.518700,6.038177,-0.857124,7.904053,-34.210205,14.587402,31.273438
65920,3.126827,7.599196,-0.311246,3.845215,-22.521973,4.974365,31.253906
65960,3.576937,8.312668,0.210690,-12.786865,-4.150391,-5.157471,31.267578
66000,3.648763,8.844181,0.023942,-14.343262,-31.951904,3.936768,31.277344
66040,2.868254,11.056423,-0.617704,-4.730225,-26.824951,4.608154,31.255859
66080,3.643975,12.703634,0.560243,-25.756836,-41.625977,13.427734,31.300781
66120,4.094085,12.421119,0.459687,-48.706055,-31.280518,9.216309,31.275391
66160,5.602432,10.280702,-3.845088,-5.279541,8.514404,4.272461,31.279297
66200,6.282385,8.322245,-4.185065,-22.064209,7.812500,-7.415771,31.281250
66240,4.553771,8.571242,-3.854665,-28.961182,-41.076660,-6.591797,31.265625
66280,1.580173,10.639832,-4.405331,-46.051025,-5.004883,-32.226562,31.255859
66320,2.250550,9.840169,-2.054225,43.457031,33.325195,-27.740479,31.251953
66360,4.012682,7.115568,-0.464475,12.054443,28.472900,-16.510010,31.281250
66400,3.160346,5.808333,-1.024718,15.655518,41.290283,-8.209229,31.283203
66440,1.508347,6.172252,-0.914585,22.918701,25.115967,-8.117676,31.246094
66480,1.110910,7.699753,-0.354342,22.949219,9.735107,0.885010,31.279297
66520,1.292869,9.050082,-0.325611,14.312744,0.427246,6.378174,31.281250
66560,1.742979,10.055647,-0.636858,14.312744,-2.380371,-0.549316,31.308594
66600,3.562572,11.899182,0.086191,2.075195,21.362305,-12.878418,31.283203
