MS,Accel X (m/s²),Accel Y (m/s²),Accel Z (m/s²),Gyro X (°/s),Gyro Y (°/s),Gyro Z (°/s),Temp (°C)
680,3.241749,9.107543,0.373495,-7.537842,8.697510,0.183105,33.380859
720,3.485958,8.983045,0.478840,-12.756348,6.530762,0.213623,33.361328
760,3.792415,9.064447,0.512359,-14.739990,6.774902,-0.183105,33.361328
800,3.873818,9.356541,0.459687,-10.253906,12.634277,-1.098633,33.363281
840,3.768473,9.667787,0.363919,-1.739502,17.883301,0.518799,33.363281
880,3.734955,9.423578,0.344765,2.716064,21.453857,1.953125,33.382812
920,3.725378,8.872911,0.502782,0.579834,24.566650,-0.457764,33.359375
960,3.725378,8.877700,0.512359,-1.190186,26.428223,-2.655029,33.365234
1000,3.653552,9.174581,0.253785,2.624512,27.404785,-4.425049,33.373047
1040,3.849876,9.208099,0.158017,8.819580,28.045654,-4.547119,33.388672
1080,4.170700,9.165004,0.363919,13.214111,28.839111,-1.647949,33.369141
1120,4.141969,9.275137,0.454898,20.477295,28.686523,1.068115,33.392578
1160,3.787627,9.557653,0.263362,31.158447,32.897949,5.126953,33.394531
1200,3.318364,9.572019,0.339977,31.494141,36.956787,7.873535,33.380859
1240,3.327940,9.174581,0.756568,21.667480,37.597656,12.390137,33.386719
1280,3.131616,9.174581,0.895431,17.974854,39.215088,11.657715,33.392578
1320,2.863465,9.380483,0.818817,19.104004,41.259766,6.713867,33.373047
1360,2.968810,9.509769,0.521936,18.676758,39.886475,3.356934,33.400391
1400,3.165135,9.653421,0.229843,18.859863,39.154053,3.936768,33.408203
1440,3.174711,9.710882,0.067038,15.686035,37.841797,6.500244,33.414062
1480,3.074155,9.763555,0.057461,14.282227,35.980225,8.941650,33.406250
1520,3.011906,9.686940,0.158017,15.838623,40.344238,8.087158,33.396484
1560,3.026271,9.634268,0.201113,22.369385,47.637939,6.561279,33.406250
1600,3.064578,9.538500,0.210690,29.388428,55.969238,5.981445,33.400391
1640,2.863465,9.528923,-0.071826,29.266357,40.435791,2.471924,33.396484
1680,2.887407,9.567230,0.052672,29.479980,41.107178,-5.340576,33.416016
1720,2.935291,9.476251,0.110133,30.395508,41.198730,-8.453369,33.388672
1760,2.954445,9.136273,-0.129287,25.207520,43.060303,-10.681152,33.396484
1800,3.222595,8.983045,-0.641646,14.709473,45.379639,-10.742188,33.402344
1840,3.462016,9.016563,-0.933739,10.681152,42.663574,-9.094238,33.414062
1880,3.313575,9.040505,-0.833182,9.338379,39.123535,-8.728027,33.421875
1920,2.983175,8.801085,-0.742203,7.232666,28.961182,-7.263184,33.423828
1960,2.959233,8.815451,-0.833182,2.319336,21.759033,-8.911133,33.410156
2000,3.136404,9.212888,-0.924162,1.007080,17.272949,-7.843018,33.400391
2040,3.251326,9.624691,-1.096544,3.936768,13.122559,-3.845215,33.414062
2080,3.299210,9.514558,-1.221043,4.455566,4.455566,2.807617,33.439453
2120,3.414132,8.963891,-1.249773,3.265381,-1.220703,11.169434,33.412109
2160,3.394978,8.719683,-1.364695,-11.901855,-4.974365,14.892578,33.445312
2200,3.342306,9.394848,-0.919373,-13.580322,-6.622314,9.735107,33.421875
2240,2.858677,10.314221,-0.148441,6.378174,-6.103516,7.995605,33.425781
2280,2.303222,10.156203,-0.478840,10.284424,-2.960205,9.094238,33.421875
2320,2.786851,9.514558,-0.536301,-2.807617,16.723633,9.796143,33.416016
2360,3.131616,9.150639,0.306458,0.518799,26.641846,9.002686,33.437500
2400,3.059790,8.585608,1.058237,-2.105713,24.749756,3.692627,33.449219
2440,3.299210,8.293514,1.321599,-11.474609,26.550293,-2.258301,33.437500
2480,3.782839,8.781932,1.144428,-14.862061,23.834229,-6.683350,33.433594
2520,3.892972,9.581595,0.866701,-3.479004,28.778076,-7.995605,33.437500
2560,3.912126,9.806650,0.881066,1.800537,53.222656,-2.258301,33.429688
2600,3.782839,9.150639,0.866701,-0.793457,62.194824,2.838135,33.427734
2640,3.562572,8.556877,0.952892,0.366211,66.986084,0.427246,33.429688
2680,3.620033,8.580819,0.924162,-0.762939,69.213867,-4.882812,33.492188
2720,3.916914,9.059659,0.512359,4.547119,72.509766,-6.347656,33.503906
2760,4.333505,9.246407,0.215478,15.045166,74.737549,-0.122070,33.494141
2800,5.008670,9.016563,0.521936,24.536133,70.404053,9.429932,33.511719
2840,5.128380,8.690952,0.766145,39.306641,61.950684,15.228271,33.501953
2880,3.979163,9.725247,1.905785,37.536621,56.732178,10.131836,33.515625
2920,3.749320,11.271901,2.231396,35.766602,49.560547,12.023926,33.511719
2960,2.882619,10.970232,2.351106,34.637451,56.213379,7.202148,33.505859
3000,1.441309,9.198523,1.498770,27.893066,55.664062,-3.326416,33.486328
3040,1.589750,8.451532,0.407014,4.241943,40.008545,-7.354736,33.533203
3080,3.021482,9.653421,0.119710,-4.028320,27.191162,-7.385254,33.527344
3120,3.299210,10.122684,0.397437,9.277344,31.524658,-4.577637,33.527344
3160,2.226608,9.461885,0.502782,21.087646,29.937744,-6.286621,33.537109
3200,1.608904,8.638280,0.354342,11.444092,29.968262,-3.784180,33.535156
3240,1.877054,8.738836,0.378284,5.187988,29.968262,-5.706787,33.537109
3280,2.221819,9.102755,0.512359,1.953125,30.151367,-7.659912,33.531250
3320,2.111686,9.543288,0.478840,0.152588,39.611816,-6.134033,33.517578
3360,1.848324,10.002975,0.387861,13.214111,52.581787,-5.218506,33.544922
3400,2.078167,9.993398,0.397437,16.113281,60.363770,0.152588,33.517578
3440,2.810793,9.581595,0.043096,14.007568,49.316406,0.671387,33.537109
3480,3.145981,9.040505,-0.292093,15.533447,35.217285,3.814697,33.535156
3520,3.452439,8.844181,-0.454898,8.972168,28.015137,9.887695,33.535156
3560,3.730166,9.222465,-0.632069,13.641357,17.150879,10.803223,33.525391
3600,3.955221,9.466674,-1.000776,7.629395,-0.122070,12.908936,33.521484
3640,4.098873,9.648633,-1.106121,8.056641,-13.946533,19.531250,33.531250
3680,4.036624,11.085154,0.560243,-11.383057,6.988525,5.401611,33.537109
3720,3.059790,11.214440,1.240196,7.781982,-6.469727,3.417969,33.544922
3760,1.939303,8.848969,0.794875,6.286621,-24.169922,12.603760,33.527344
3800,2.451663,8.676587,1.168370,-20.446777,-27.465820,14.862061,33.531250
3840,3.462016,10.218452,0.818817,-13.153076,-4.272461,11.718750,33.564453
3880,3.787627,9.787497,0.454898,8.453369,-8.636475,13.244629,33.546875
3920,3.519476,8.475474,0.497994,-1.678467,0.152588,11.932373,33.507812
3960,2.968810,7.867347,0.344765,-10.009766,2.044678,5.035400,33.550781
4000,3.232172,7.967903,-0.043096,-12.512207,-1.007080,0.152588,33.556641
4040,3.864242,8.327033,-0.033519,-14.129639,-0.152588,-4.150391,33.560547
4080,3.773262,8.231265,0.076614,-11.474609,5.981445,-6.652832,33.558594
4120,3.524265,8.370130,0.359130,-8.026123,12.512207,-2.288818,33.535156
4160,3.835511,9.289502,0.622492,-6.561279,21.179199,4.516602,33.566406
4200,5.123591,10.414778,0.497994,-0.946045,24.047852,5.371094,33.541016
4240,6.459556,11.420342,1.254562,-22.308350,11.474609,2.807617,33.548828
4280,6.588843,12.406754,1.398214,5.462646,6.347656,8.972168,33.548828
4320,4.568137,11.051635,1.747767,44.921875,-6.744385,13.122559,33.568359
4360,0.483629,7.991845,2.240973,10.253906,-10.406494,-4.608154,33.566406
4400,0.153229,7.829040,1.517924,-47.119141,-1.770020,-13.153076,33.552734
4440,2.336741,9.821015,1.163582,-35.003662,-3.845215,-11.688232,33.560547
4480,3.088520,9.739613,1.154005,-7.934570,-9.460449,-10.681152,33.570312
4520,2.686294,7.963115,0.809240,-25.024414,-6.256104,-14.068604,33.576172
4560,2.193089,7.417237,0.555455,-42.968750,3.265381,-22.003174,33.576172
4600,1.972822,7.833828,0.478840,-25.604248,1.312256,-14.312744,33.576172
4640,1.915361,8.293514,0.076614,14.617920,-11.596680,1.007080,33.646484
4680,2.590526,8.748413,-0.378284,5.981445,-26.275635,2.929688,33.630859
4720,3.763685,10.041282,0.191536,-0.335693,-21.148682,-2.563477,33.628906
4760,3.706224,12.229582,0.105345,10.864258,-17.456055,-9.613037,33.625000
4800,3.725378,13.024457,0.335188,-0.488281,-24.749756,-12.878418,33.632812
4840,4.232949,12.378023,2.710236,-1.739502,19.073486,-24.353027,33.646484
4880,1.963245,9.576807,4.156334,29.693604,-26.428223,6.164551,33.640625
4920,2.489970,8.149862,4.797980,-17.730713,-39.794922,2.716064,33.648438
4960,3.801992,8.935161,4.141969,7.690430,-10.772705,18.554688,33.654297
5000,3.509900,10.017340,1.924938,30.517578,-10.681152,23.590088,33.652344
5040,2.571373,8.169016,0.766145,20.019531,-15.014648,15.136719,33.650391
5080,2.039860,6.133945,1.101333,-0.122070,6.469727,6.103516,33.646484
5120,2.197877,6.057330,0.986411,-12.023926,10.742188,-0.671387,33.648438
5160,3.088520,7.144298,0.421380,-13.854980,11.413574,1.098633,33.648438
5200,3.883395,8.245630,0.090980,-0.823975,25.726318,6.500244,33.640625
5240,3.744531,8.978256,0.727837,16.571045,34.851074,12.207031,33.666016
5280,4.917690,10.117896,0.770933,11.718750,37.231445,18.402100,33.638672
5320,6.540959,11.410766,0.555455,34.790039,39.093018,24.169922,33.654297
5360,5.434838,12.014104,2.164358,49.652100,39.245605,24.291992,33.656250
5400,3.031059,10.520123,3.476381,55.114746,37.780762,29.357910,33.677734
5440,1.216254,9.753978,2.537854,-5.767822,34.149170,8.148193,33.664062
5480,2.456451,11.669339,1.043872,0.579834,54.199219,-5.096436,33.666016
5520,3.854665,11.003751,0.885855,37.750244,35.461426,1.586914,33.666016
5560,2.595315,8.082825,1.312023,34.332275,27.160645,-2.685547,33.667969
5600,1.134852,6.181829,0.727837,29.602051,27.893066,-13.610840,33.685547
5640,1.412579,5.865794,0.181959,5.493164,19.042969,-15.167236,33.658203
5680,2.264915,6.473921,0.028730,-18.524170,-3.875732,-13.153076,33.667969
5720,2.839523,7.575254,-0.814029,-12.237549,-27.648926,-7.690430,33.667969
5760,4.903325,8.973468,-1.216254,-26.062012,-30.548096,3.906250,33.656250
5800,5.956774,10.821792,-0.617704,-36.315918,-19.622803,1.342773,33.658203
5840,3.572149,13.441049,-0.215478,-31.127930,-16.876221,-12.939453,33.671875
5880,3.021482,13.862428,2.312799,-37.017822,35.736084,-17.822266,33.675781
5920,1.015141,10.381259,3.634398,34.484863,25.726318,4.943848,33.675781
5960,1.733402,9.112331,4.730943,2.990723,37.200928,2.929688,33.701172
6000,3.557784,9.299079,4.888960,14.556885,16.235352,14.282227,33.705078
6040,4.367024,9.461885,2.389413,32.562256,-19.775391,29.449463,33.667969
6080,3.758897,8.178593,0.703895,16.204834,1.922607,14.678955,33.677734
6120,2.911349,6.636727,1.019930,-1.464844,27.282715,7.385254,33.695312
6160,2.729390,6.330269,0.761356,-6.286621,19.012451,4.791260,33.695312
6200,3.801992,6.794744,0.502782,-12.390137,6.042480,-0.671387,33.681641
6240,4.970363,7.541735,0.258574,1.098633,-2.380371,-4.425049,33.687500
6280,5.061342,8.054094,0.541090,7.446289,-8.697510,1.525879,33.695312
6320,4.745308,9.236830,1.015141,-0.579834,-7.141113,-0.030518,33.691406
6360,5.717354,10.453085,0.330400,12.023926,-3.753662,6.561279,33.685547
6400,5.770026,11.587936,0.785298,23.895264,-0.762939,10.406494,33.687500
6440,5.501875,11.247959,2.849100,27.923584,-2.563477,11.474609,33.703125
6480,3.280056,9.519346,3.734955,15.563965,1.525879,9.643555,33.712891
6520,1.221043,9.782708,2.193089,-15.625000,-8.148193,-8.270264,33.691406
6560,3.313575,10.496181,1.048660,-28.533936,-23.468018,-11.260986,33.707031
6600,4.759673,9.217676,1.235408,-30.670166,-34.210205,-17.456055,33.699219
6640,3.500323,7.149086,1.230620,-25.390625,-38.665771,-24.261475,33.755859
6680,1.991976,6.402095,0.957681,-29.052734,-36.926270,-21.057129,33.759766
6720,2.169147,7.000646,0.723049,-18.585205,-41.687012,-13.214111,33.736328
6760,2.777274,7.704541,0.344765,0.579834,-24.658203,-6.927490,33.755859
6800,3.438074,8.092402,-0.383072,2.868652,-27.709961,1.495361,33.767578
6840,4.357447,9.016563,-0.651223,-14.892578,-56.915283,-1.800537,33.757812
6880,4.821922,10.386047,-0.028730,-13.610840,-49.957275,-8.087158,33.750000
6920,5.248090,11.525687,-0.804452,-13.763428,-82.672119,-11.291504,33.753906
6960,5.621585,12.124237,1.379060,-30.517578,-53.131104,-17.395020,33.763672
7000,3.107674,11.372458,3.485958,4.943848,-24.993896,-1.434326,33.751953
7040,2.331953,9.562442,4.185065,-26.885986,-25.177002,-4.669189,33.750000
7080,4.065354,8.140285,4.161122,-11.077881,-8.972168,2.075195,33.763672
7120,5.133168,8.681376,3.236961,16.571045,-9.368896,12.542725,33.769531
7160,4.362236,8.825027,0.919373,0.579834,-24.200439,10.314941,33.773438
7200,2.987964,7.220912,0.919373,-14.404297,-6.927490,2.655029,33.763672
7240,2.379837,6.363788,1.082179,-16.174316,-1.464844,-2.716064,33.773438
7280,3.002329,6.813898,0.732626,-11.962891,-3.631592,-6.256104,33.763672
7320,4.290410,7.489063,0.574608,-11.199951,-4.821777,-9.796143,33.779297
7360,4.812346,8.154651,0.268151,1.251221,-14.251709,-10.559082,33.789062
7400,4.836287,8.772355,0.507571,7.995605,-10.589600,-3.936768,33.759766
7440,5.583278,9.720459,0.402226,11.596680,-7.415771,2.197266,33.769531
7480,6.258443,10.635044,-0.148441,20.721436,1.525879,6.713867,33.796875
7520,6.354211,11.061212,1.086968,24.597168,-3.967285,8.117676,33.769531
7560,5.463568,9.902418,3.141193,7.232666,-13.732910,11.962891,33.787109
7600,2.494758,8.887277,2.925714,9.063721,-7.659912,5.889893,33.769531
7640,2.035071,10.237606,1.292869,-24.597168,-24.536133,-8.819580,33.769531
7680,4.735731,10.515334,0.598550,-33.782959,-50.537109,-11.505127,33.785156
7720,4.999093,8.537724,0.938527,-28.259277,-52.581787,-14.587402,33.792969
7760,3.107674,6.593631,0.972046,-40.985107,-56.762695,-20.355225,33.787109
7800,2.087744,5.971139,0.919373,-46.966553,-65.338135,-14.343262,33.798828
7840,2.566584,6.890512,0.641646,-29.693604,-53.039551,-11.657715,33.802734
7880,2.906561,8.145074,0.148441,-14.221191,-37.109375,-2.319336,33.804688
7920,3.605668,8.987833,-0.622492,-10.803223,-38.940430,1.586914,33.789062
7960,4.678270,9.662998,-0.301669,-26.519775,-53.344727,-6.011963,33.798828
8000,4.711789,10.821792,-0.287304,-28.991699,-50.201416,-13.488770,33.794922
8040,5.511452,11.449073,-1.350330,-20.416260,-90.270996,-6.866455,33.806641
8080,5.827487,11.779472,1.398214,-37.170410,-60.760498,-10.650635,33.789062
8120,2.686294,10.907983,4.716578,0.213623,-7.507324,2.563477,33.808594
8160,1.647211,9.476251,4.544195,-28.442383,-31.402588,-10.040283,33.804688
8200,4.185065,8.341399,3.730166,14.465332,-12.145996,8.850098,33.826172
8240,4.955997,9.260772,2.011129,19.775391,2.655029,14.251709,33.820312
8280,3.720589,8.073248,0.579397,0.244141,-6.988525,9.674072,33.826172
8320,2.647987,6.296751,0.833182,-16.448975,-1.678467,3.021240,33.812500
8360,2.485181,6.196194,0.799663,-9.216309,-2.227783,-1.159668,33.835938
8400,3.433285,7.058106,0.512359,-5.828857,2.349854,-2.136230,33.806641
8440,4.199430,7.843405,0.598550,-1.953125,11.505127,-3.692627,33.814453
8480,4.132392,8.614338,0.158017,3.601074,7.812500,-1.525879,33.818359
8520,5.401319,9.753978,0.215478,8.270264,12.603760,4.699707,33.816406
8560,6.880936,10.788273,0.320823,12.878418,10.528564,11.566162,33.826172
8600,6.469133,11.827356,1.043872,28.686523,16.265869,14.129639,33.876953
8640,5.104438,10.639832,2.987964,23.864746,20.843506,18.524170,33.876953
8680,1.982399,9.356541,3.198653,11.291504,8.544922,9.063721,33.878906
8720,1.786075,10.807426,1.790863,-25.756836,3.173828,-3.967285,33.890625
8760,4.534618,10.817003,0.761356,-11.871338,-9.307861,-7.019043,33.888672
8800,5.008670,8.676587,0.852336,-7.263184,-18.157959,-9.674072,33.867188
8840,2.825158,6.440403,1.168370,-20.996094,-27.954102,-11.962891,33.894531
8880,1.561020,5.640739,0.828394,-22.094727,-26.062012,-9.826660,33.865234
8920,2.202666,6.258443,0.225055,-6.347656,-18.310547,-1.708984,33.875000
8960,3.035848,7.489063,-0.493206,2.410889,-12.542725,4.455566,33.888672
9000,3.921702,8.470686,-0.507571,-10.742188,-35.156250,4.486084,33.886719
9040,5.310339,9.993398,0.148441,-31.707764,-31.433105,-4.302979,33.886719
9080,5.506664,12.038046,-0.756568,-16.235352,-42.968750,-10.162354,33.865234
9120,5.439626,12.354081,-0.110133,-21.148682,-64.361572,-9.552002,33.880859
9160,3.093309,11.918336,3.648763,-1.312256,-1.434326,-6.683350,33.894531
9200,1.565808,9.524135,4.553771,17.333984,-5.004883,-6.774902,33.880859
9240,3.667917,8.791509,3.782839,18.890381,-19.073486,-5.126953,33.902344
9280,5.702989,9.974244,1.924938,52.917480,4.577637,18.890381,33.880859
9320,4.338294,9.696517,0.651223,49.316406,5.157471,15.014648,33.898438
9360,3.122039,6.718130,0.737414,22.827148,8.911133,1.220703,33.914062
9400,2.264915,5.281609,1.106121,-0.701904,29.327393,3.417969,33.876953
9440,2.518700,6.244078,-0.023942,-10.284424,10.955811,-5.249023,33.888672
9480,4.367024,7.220912,-0.703895,-10.711670,13.275146,-3.295898,33.888672
9520,4.764462,8.106767,-0.344765,10.009766,18.463135,-1.281738,33.888672
9560,3.926491,9.236830,-0.138864,2.471924,28.869629,-4.425049,33.906250
9600,5.391742,10.529699,-0.991199,9.674072,31.372070,3.967285,33.917969
9640,7.173028,10.601525,-1.350330,33.233643,27.801514,14.984131,33.904297
9680,6.186617,10.687716,0.938527,23.498535,23.193359,12.847900,33.873047
9720,3.730166,9.361329,3.543418,-5.645752,7.537842,13.214111,33.908203
9760,2.159570,10.400413,2.351106,-21.881104,1.586914,6.286621,33.910156
9800,2.772485,12.804191,0.215478,-2.014160,-10.314941,-12.268066,33.898438
9840,4.778827,10.615891,-0.095768,14.556885,-33.508301,-14.526367,33.916016
9880,4.563348,6.856994,0.766145,7.781982,-20.477295,-13.732910,33.919922
9920,2.030283,5.391742,0.636858,-23.864746,-30.975342,-19.866943,33.904297
9960,1.517924,6.110003,0.028730,-20.202637,-12.390137,-10.314941,33.898438
10000,2.542642,7.283162,-0.641646,-10.864258,-0.244141,-3.417969,33.917969
10040,3.586514,8.010999,-1.594538,-7.843018,0.701904,3.204346,33.908203
10080,4.821922,8.920795,-1.709460,-8.209229,-29.602051,2.624512,33.910156
10120,5.846641,10.582372,-1.388637,-19.470215,-26.916504,-3.295898,33.945312
10160,5.798757,11.568783,-2.767697,-6.011963,-68.511963,-5.035400,33.929688
10200,4.821922,11.147403,-0.268151,5.493164,-40.649414,-2.807617,33.910156
10240,1.991976,10.524911,4.280833,23.162842,6.103516,5.523682,33.931641
10280,2.288857,10.611102,3.567361,0.122070,-27.069092,-6.225586,33.927734
10320,6.359000,10.381259,1.996764,-19.165039,-47.943115,8.483887,33.933594
10360,5.635951,10.568007,0.196325,-11.993408,8.422852,19.317627,33.917969
10400,2.762909,8.403648,0.052672,0.122070,14.160156,10.955811,33.912109
10440,1.642422,5.578490,0.842759,-14.038086,22.583008,9.185791,33.925781
10480,1.977611,5.521029,0.196325,-13.000488,7.202148,0.122070,33.939453
10520,3.778050,6.607996,-0.545878,-10.620117,11.474609,-3.540039,33.925781
10560,4.793192,7.637504,-0.215478,-1.281738,10.009766,-4.272461,33.923828
10600,4.419696,9.203311,-0.052672,2.471924,17.364502,-3.662109,33.988281
10640,5.166687,10.951078,-1.106121,12.115479,16.387939,0.885010,33.984375
10680,6.885724,11.190498,-1.747767,41.381836,33.721924,16.906738,33.992188
10720,6.335058,10.927136,0.541090,36.499023,38.818359,16.113281,33.992188
10760,3.993528,9.260772,3.390190,5.615234,25.390625,7.690430,33.998047
10800,1.958457,10.060435,2.408567,-19.866943,-2.014160,4.058838,34.005859
10840,2.777274,12.555194,0.684742,-7.049561,5.981445,-9.826660,33.996094
10880,4.917690,11.123461,-0.450110,3.967285,-35.369873,-16.845703,33.988281
10920,4.735731,7.354988,0.440533,9.429932,-23.651123,-13.885498,34.007812
10960,2.499547,5.152322,0.636858,-4.669189,-26.214600,-19.927979,33.978516
11000,1.637634,5.228937,0.320823,-29.663086,-19.378662,-13.183594,33.990234
11040,2.533065,6.435614,-0.565032,-14.556885,5.401611,-1.525879,33.988281
11080,3.045424,8.331821,-1.474828,-19.226074,4.974365,4.150391,33.990234
11120,4.841076,9.414001,-1.857901,-17.547607,-27.557373,3.265381,34.007812
11160,6.042965,10.907983,-1.244985,-22.277832,-23.895264,-6.195068,34.001953
11200,5.607220,11.994950,-2.509123,-11.688232,-66.711426,-10.894775,34.001953
11240,4.936844,12.253524,0.210690,6.744385,-23.803711,-12.054443,33.996094
11280,1.259350,10.769119,3.892972,29.144287,23.712158,-4.028320,33.992188
11320,0.933739,9.763555,3.414132,-11.230469,-25.787354,-0.488281,33.990234
11360,5.779603,9.959879,3.988740,-4.425049,-35.705566,11.291504,34.007812
11400,6.086061,10.251971,1.537078,-10.101318,49.377441,22.857666,34.000000
11440,2.671929,8.537724,-0.857124,15.411377,27.282715,21.362305,34.009766
11480,1.139640,6.220136,0.656011,-2.960205,58.380127,12.084961,34.005859
11520,1.795651,5.401319,0.608127,-18.249512,34.881592,-9.613037,34.023438
11560,3.816358,6.038177,0.000000,-1.922607,27.038574,-9.429932,34.011719
11600,5.161899,7.354988,-0.272939,-1.037598,11.108398,-11.352539,34.005859
11640,5.185841,8.628703,-0.344765,3.051758,5.126953,-6.164551,34.000000
11680,5.334281,10.194510,-0.454898,6.622314,13.580322,3.265381,34.011719
11720,6.363788,11.544841,-1.369483,29.449463,25.573730,13.427734,33.998047
11760,6.282385,12.263102,0.196325,42.236328,39.550781,14.404297,34.009766
11800,5.008670,10.098742,3.208230,20.324707,16.906738,12.451172,34.013672
11840,2.576161,8.566454,3.270479,-12.207031,1.007080,7.751465,34.015625
11880,1.537078,10.898406,2.025495,-36.071777,7.354736,-8.728027,34.000000
11920,3.931279,11.784261,0.335188,-12.786865,-25.329590,-18.585205,33.996094
11960,5.363012,8.916007,0.368707,-11.383057,-57.708740,-20.172119,34.033203
12000,3.648763,5.726931,1.101333,-11.566162,-47.180176,-27.862549,34.015625
12040,1.470040,4.721366,0.761356,-28.259277,-40.771484,-24.078369,34.025391
12080,1.877054,5.995081,0.004788,-31.188965,-17.578125,-10.070801,34.000000
12120,2.456451,8.216900,-0.981623,-10.162354,-6.256104,1.586914,34.023438
12160,3.227384,9.404425,-1.072602,-18.585205,-21.667480,0.976562,34.037109
12200,5.463568,10.323798,-0.474052,-11.260986,-28.686523,-0.518799,34.029297
12240,5.770026,12.789825,-1.632846,-17.028809,-51.116943,-12.512207,34.037109
12280,5.276821,13.311762,-0.339977,-8.331299,-45.684814,-13.824463,34.039062
12320,2.432509,11.506534,3.562572,40.069580,-7.904053,-7.415771,34.019531
12360,1.134852,9.165004,4.314352,-0.549316,-18.035889,0.549316,34.042969
12400,4.146757,9.102755,4.544195,-15.716553,-31.005859,2.624512,34.017578
12440,5.635951,10.328587,2.738967,-6.164551,47.821045,29.388428,34.029297
12480,2.432509,9.442732,-0.440533,28.930664,9.216309,25.756836,34.019531
12520,1.134852,6.220136,0.881066,13.366699,45.867920,22.155762,34.029297
12560,1.474828,4.955997,0.962469,-13.854980,40.740967,-0.335693,34.085938
12600,3.342306,5.487510,0.023942,-8.850098,36.621094,-4.333496,34.093750
12640,4.620809,7.115568,-0.086191,-10.192871,28.320312,-8.026123,34.080078
12680,4.879383,8.997410,-0.330400,-0.030518,15.258789,-3.845215,34.078125
12720,5.578490,10.903194,-0.368707,7.690430,19.744873,5.523682,34.082031
12760,6.938396,11.817780,-0.967257,27.130127,29.479980,14.617920,34.080078
12800,5.961562,12.306197,0.828394,44.464111,37.963867,21.972656,34.095703
12840,4.017470,10.520123,4.070143,19.561768,16.082764,19.775391,34.119141
12880,1.790863,9.921572,3.873818,-11.749268,12.664795,10.284424,34.093750
12920,0.991199,12.009315,2.284068,-15.380859,38.482666,-5.065918,34.076172
12960,3.481169,10.903194,0.957681,5.187988,-19.134521,-17.120361,34.083984
13000,4.807557,7.173028,0.967257,10.955811,-20.172119,-12.298584,34.091797
13040,2.738967,5.190629,0.718261,-8.361816,-27.282715,-23.681641,34.103516
13080,1.063026,5.090073,0.608127,-34.301758,-25.146484,-18.829346,34.089844
13120,2.164358,6.368577,-0.229843,-11.444092,-6.103516,-4.241943,34.109375
13160,3.217807,8.427590,-1.063026,-4.425049,-13.427734,5.401611,34.095703
13200,4.754885,9.988609,-1.168370,-8.514404,-23.956299,8.911133,34.099609
13240,5.406107,12.224793,-1.096544,-2.563477,-30.487061,-6.317139,34.085938
13280,4.314352,12.780249,-2.044648,8.666992,-55.572510,-6.256104,34.080078
13320,3.586514,12.306197,2.030283,21.972656,18.585205,-7.385254,34.103516
13360,1.120486,10.481815,4.687847,36.865234,3.356934,0.610352,34.117188
13400,3.141193,10.046070,4.807557,5.798340,-15.716553,-1.861572,34.109375
13440,6.564901,10.290278,4.874595,15.716553,42.785645,20.111084,34.103516
13480,4.070143,9.940725,0.225055,9.368896,52.032471,27.984619,34.123047
13520,1.259350,7.599196,-0.282516,30.761719,46.264648,22.521973,34.099609
13560,0.857124,5.295974,1.091756,7.415771,66.406250,9.613037,34.101562
13600,2.384625,4.908113,0.536301,2.807617,48.400879,-4.852295,34.121094
13640,4.438850,6.052542,-0.023942,-1.922607,35.400391,-11.383057,34.123047
13680,5.530606,7.766790,-0.339977,2.502441,15.350342,-11.077881,34.089844
13720,5.190629,9.188946,-0.019154,2.532959,15.869141,0.244141,34.123047
13760,5.535394,10.879252,-0.526724,10.437012,24.108887,7.080078,34.101562
13800,6.258443,12.114660,-0.861913,41.107178,45.104980,20.812988,34.128906
13840,5.406107,11.990162,1.968034,39.062500,31.616211,27.252197,34.113281
13880,3.471592,9.423578,3.854665,13.519287,16.998291,31.646729,34.113281
13920,1.015141,10.424355,3.189077,-39.367676,22.491455,8.544922,34.115234
13960,2.279280,12.277467,1.474828,-7.293701,20.141602,-11.871338,34.136719
14000,4.932055,10.046070,0.727837,-4.364014,-34.515381,-19.653320,34.128906
14040,4.936844,6.517017,0.885855,-1.342773,-36.407471,-22.216797,34.125000
14080,2.327164,4.960786,0.593762,-9.155273,-29.327393,-29.022217,34.125000
14120,1.187524,5.712565,0.143652,-29.113770,-19.897461,-17.791748,34.126953
14160,2.533065,7.273585,-0.521936,-5.371094,-1.342773,1.251221,34.126953
14200,3.217807,8.987833,-1.015141,-5.310059,9.368896,8.087158,34.113281
14240,4.577713,9.753978,-0.924162,0.335693,-10.833740,10.925293,34.138672
14280,5.487510,11.779472,-1.359907,0.946045,-23.864746,-0.488281,34.152344
14320,4.898537,12.837709,-1.513135,17.608643,-57.312012,-6.561279,34.148438
14360,3.112462,12.085930,3.280056,46.386719,15.350342,-4.974365,34.150391
14400,1.115698,10.002975,4.189853,34.210205,6.317139,0.030518,34.126953
14440,3.562572,10.098742,4.132392,-6.713867,2.471924,-4.302979,34.142578
14480,5.061342,10.855310,3.404555,-4.455566,46.905518,23.559570,34.107422
14520,2.964022,10.098742,-0.272939,42.053223,46.569824,32.592773,34.119141
14560,1.316811,7.216124,0.689530,30.517578,71.807861,24.322510,34.189453
14600,1.872266,5.358223,1.177947,9.033203,77.117920,11.871338,34.181641
14640,3.107674,5.626374,0.234632,-1.342773,60.028076,0.244141,34.195312
14680,4.515464,6.900089,-0.651223,6.072998,49.041748,-1.800537,34.199219
14720,5.018247,7.939173,-0.363919,7.751465,37.994385,1.373291,34.181641
14760,4.630386,9.270349,0.407014,9.185791,42.633057,8.666992,34.169922
14800,5.300763,10.534488,-0.339977,18.432617,51.727295,15.930176,34.189453
14840,5.942409,11.123461,-1.010353,49.896240,61.614990,26.306152,34.181641
14880,5.080496,11.152191,1.489193,58.227539,49.468994,29.266357,34.175781
14920,2.432509,9.950302,3.878607,19.195557,43.609619,26.885986,34.199219
14960,0.694318,11.559206,3.208230,-34.027100,66.833496,-3.265381,34.189453
15000,2.643199,12.794614,1.383849,11.199951,55.084229,-18.524170,34.195312
15040,4.932055,10.184934,1.043872,26.000977,23.773193,-18.188477,34.201172
15080,3.979163,6.876147,0.450110,15.869141,14.434814,-28.442383,34.195312
15120,1.810017,5.286397,0.445322,-20.050049,18.463135,-27.496338,34.189453
15160,2.255338,5.358223,0.392649,-24.353027,28.411865,-11.230469,34.205078
15200,2.810793,6.991069,0.038307,17.089844,36.621094,7.843018,34.191406
15240,3.026271,8.935161,-0.847547,5.126953,44.830322,19.287109,34.179688
15280,4.812346,9.998186,-1.675941,-7.476807,-11.138916,9.033203,34.199219
15320,5.468357,12.334928,-1.326388,5.767822,-16.326904,-5.462646,34.185547
15360,3.552995,13.359646,-1.810017,5.065918,-29.632568,-5.371094,34.201172
15400,2.518700,12.425907,1.623269,15.655518,33.874512,-2.349854,34.205078
15440,0.081403,10.716447,4.323928,29.998779,48.248291,-2.624512,34.205078
15480,1.651999,9.461885,4.568137,30.395508,20.050049,4.547119,34.203125
15520,5.430049,10.022128,5.099649,54.290771,64.117432,15.289307,34.207031
15560,5.190629,10.256760,2.126051,20.843506,111.572266,28.625488,34.208984
15600,1.877054,8.690952,-0.038307,49.957275,90.911865,24.749756,34.216797
15640,0.900220,6.464345,1.216254,41.076660,107.452393,15.869141,34.208984
15680,2.092532,5.444415,1.551443,26.458740,102.844238,5.126953,34.214844
15720,3.567361,5.741296,1.039083,19.836426,86.425781,-1.770020,34.185547
15760,5.061342,6.943185,0.210690,17.761230,66.436768,-7.629395,34.199219
15800,5.975927,7.651869,-0.205901,18.432617,44.006348,-4.821777,34.208984
15840,5.396531,9.126697,0.339977,-2.410889,41.778564,3.509521,34.216797
15880,5.114015,11.875240,-0.641646,16.784668,53.070068,7.659912,34.208984
15920,6.363788,12.516887,-1.570596,67.687988,50.598145,23.284912,34.232422
15960,5.506664,10.529699,2.681506,27.740479,22.857666,19.897461,34.207031
16000,3.356671,8.657434,5.152322,-31.158447,4.180908,7.354736,34.228516
16040,2.489970,11.468226,3.983952,-37.567139,-16.784668,-7.537842,34.230469
16080,3.160346,13.388376,2.547431,-23.223877,-13.427734,-19.653320,34.226562
16120,5.032612,9.792285,0.833182,-9.338379,-77.453613,-30.303955,34.230469
16160,4.309563,6.110003,1.168370,-7.904053,-72.265625,-40.283203,34.224609
16200,1.426944,3.610456,1.235408,-16.815186,-70.220947,-36.010742,34.230469
16240,1.264138,4.319140,0.627281,-30.670166,-47.546387,-22.613525,34.201172
16280,1.920150,7.292738,-0.119710,-13.061523,-32.562256,-13.214111,34.234375
16320,2.873042,9.902418,0.129287,-23.529053,-66.192627,-15.319824,34.230469
16360,4.501099,12.253524,0.426168,-36.376953,-57.922363,-30.273438,34.220703
16400,3.945644,14.140155,0.138864,-37.506104,-36.987305,-43.670654,34.216797
16440,1.623269,15.102624,2.983175,-74.035645,69.030762,-80.169678,34.242188
16480,2.466028,12.588713,3.361459,-107.574463,81.695557,-38.452148,34.228516
16520,1.838747,5.741296,4.884171,71.289062,3.631592,25.573730,34.269531
16560,0.339977,6.962338,6.809110,5.584717,-120.849609,30.273438,34.273438
16600,4.568137,8.858546,7.608773,19.287109,-14.160156,24.322510,34.273438
16640,6.047753,8.925584,4.955997,-0.854492,1.129150,27.862549,34.281250
16680,3.988740,8.489840,2.911349,5.340576,-16.937256,15.136719,34.261719
16720,2.011129,7.321469,0.306458,16.937256,11.810303,17.761230,34.300781
16760,1.244985,6.469133,0.847547,-0.183105,28.503418,15.319824,34.261719
16800,2.829947,6.009446,0.196325,9.674072,14.587402,9.429932,34.269531
16840,4.783615,6.813898,-0.258574,31.433105,13.702393,6.683350,34.277344
16880,5.142745,8.983045,1.072602,34.484863,42.877197,11.901855,34.296875
16920,5.664681,11.482592,0.924162,28.869629,22.552490,6.072998,34.263672
16960,7.125144,11.731588,2.796427,4.486084,-5.310059,16.113281,34.277344
17000,6.775591,9.979033,4.333505,-1.068115,-42.205811,16.967773,34.281250
17040,2.911349,8.877700,4.635174,13.427734,-53.039551,-1.739502,34.271484
17080,0.550666,10.678140,3.936068,-36.895752,-40.252686,-20.812988,34.279297
17120,2.523489,10.721235,2.513912,-28.930664,-76.324463,-20.874023,34.265625
17160,4.276044,8.231265,1.786075,-32.836914,-100.280762,-29.907227,34.263672
17200,3.581726,5.659893,2.035071,-22.979736,-53.253174,-34.851074,34.269531
17240,1.211466,5.133168,1.714248,-29.235840,-49.865723,-32.867432,34.283203
17280,0.991199,6.148310,1.130063,-29.479980,-43.243408,-13.244629,34.281250
17320,2.159570,7.915231,0.023942,0.671387,-36.468506,-2.319336,34.275391
17360,3.835511,9.567230,-0.320823,-5.310059,-57.678223,0.946045,34.287109
17400,5.487510,11.305421,0.292093,-16.052246,-46.936035,-10.681152,34.300781
17440,4.654328,13.316550,-0.339977,-15.869141,-57.647705,-23.284912,34.294922
17480,4.256891,12.722788,1.771709,-11.535645,-54.595947,-14.739990,34.296875
17520,2.657564,9.945514,5.817910,22.552490,-17.883301,-2.563477,34.296875
17560,3.653552,8.403648,6.248867,-1.525879,-66.101074,1.556396,34.300781
17600,6.967127,8.006210,5.511452,-19.317627,-41.473389,7.263184,34.294922
17640,5.090073,8.633492,3.260903,-14.801025,26.031494,18.554688,34.300781
17680,1.848324,8.317456,-0.033519,-2.258301,-12.725830,16.296387,34.292969
17720,0.665588,6.473921,0.761356,-0.976562,19.317627,10.162354,34.332031
17760,1.527501,5.607220,0.746991,-16.235352,7.415771,-3.540039,34.300781
17800,3.423708,6.157887,0.493206,-8.514404,5.065918,-5.615234,34.267578
17840,5.123591,7.733272,0.574608,-4.302979,4.913330,-9.307861,34.292969
17880,5.559336,9.950302,0.454898,6.195068,2.136230,-4.241943,34.302734
17920,6.282385,11.386824,0.871489,16.815186,13.671875,8.270264,34.320312
17960,7.249643,12.028469,0.675165,19.256592,12.451172,16.021729,34.306641
18000,6.818686,11.209652,2.782062,19.378662,-17.089844,13.244629,34.302734
18040,4.414908,8.255207,5.023035,0.091553,-33.386230,10.375977,34.320312
18080,2.130840,9.184157,4.462792,-39.093018,-38.726807,-6.408691,34.304688
18120,2.355895,11.583148,2.882619,-27.465820,-50.750732,-18.646240,34.289062
18160,4.376601,10.093954,1.441309,-10.040283,-106.872559,-32.012939,34.332031
18200,4.797980,6.234501,1.513135,-15.136719,-78.521729,-37.933350,34.304688
18240,2.303222,4.424485,1.819593,-37.170410,-68.420410,-46.112061,34.306641
18280,1.441309,5.434838,1.575385,-58.624268,-47.882080,-28.900146,34.326172
18320,1.944092,7.867347,0.071826,-17.486572,-36.102295,-14.556885,34.326172
18360,2.303222,9.404425,-0.158017,5.157471,-30.090332,3.143311,34.312500
18400,3.969586,9.983821,0.062249,-8.239746,-51.330566,-3.997803,34.314453
18440,5.726931,11.291056,0.148441,-21.331787,-45.013428,-16.571045,34.316406
18480,5.492299,12.282255,-0.837971,-3.784180,-72.479248,-11.444092,34.326172
18520,4.122815,12.397177,1.752556,17.791748,-30.761719,-4.577637,34.361328
18560,1.470040,9.892841,5.430049,40.191650,16.601562,19.561768,34.363281
18600,0.828394,9.251195,5.267244,-28.411865,-15.167236,-2.319336,34.376953
18640,4.491522,9.370906,4.716578,16.601562,-66.497803,23.681641,34.369141
18680,5.832275,9.725247,2.959233,-16.571045,36.163330,32.653809,34.388672
18720,2.327164,8.231265,-1.211466,14.038086,7.141113,21.423340,34.371094
18760,1.192312,5.770026,0.828394,-15.228271,42.358398,20.843506,34.353516
18800,1.877054,5.717354,0.756568,-18.798828,34.667969,2.166748,34.375000
18840,3.682282,6.651093,-0.014365,5.554199,15.716553,-5.462646,34.371094
18880,5.075707,7.402872,0.210690,5.004883,6.591797,-8.911133,34.388672
18920,5.051765,8.887277,0.392649,10.009766,5.035400,-3.814697,34.378906
18960,5.425261,10.735600,0.679953,6.011963,14.678955,7.659912,34.394531
19000,6.502652,12.272678,0.713472,7.781982,32.165527,16.815186,34.382812
19040,6.641516,12.512098,2.284068,21.850586,19.897461,24.475098,34.376953
19080,4.515464,9.749189,4.036624,25.177002,-10.040283,9.948730,34.367188
19120,0.574608,9.864111,4.089296,-30.792236,3.814697,-1.312256,34.375000
19160,1.058237,11.516110,2.202666,-25.299072,-16.387939,-15.655518,34.378906
19200,4.074931,9.504981,1.015141,-27.618408,-62.408447,-28.411865,34.382812
19240,4.836287,6.416461,1.187524,-34.118652,-43.243408,-29.632568,34.371094
19280,2.418144,5.080496,1.115698,-14.862061,-13.122559,-50.537109,34.390625
19320,0.488417,5.746084,0.794875,-38.299561,-20.294189,-20.874023,34.398438
19360,1.685518,7.532158,0.000000,-7.415771,-14.862061,0.946045,34.363281
19400,2.676718,9.093178,-0.411803,2.410889,-23.925781,12.908936,34.382812
19440,4.477157,10.156203,-0.373495,-4.760742,-38.360596,7.904053,34.394531
19480,5.525817,11.971008,-0.105345,-6.256104,-38.482666,-11.077881,34.392578
19520,4.362236,13.000515,-0.426168,-10.467529,-47.760010,-12.969971,34.380859
19560,2.753332,12.708423,3.337517,12.268066,15.533447,-10.803223,34.382812
19600,0.924162,9.926360,5.051765,53.405762,0.518799,13.885498,34.380859
19640,2.633622,9.107543,5.343858,-1.129150,-15.991211,4.302979,34.378906
19680,5.841852,9.251195,5.434838,19.439697,-17.852783,21.606445,34.396484
19720,4.295198,9.361329,0.933739,-0.305176,51.300049,27.618408,34.404297
19760,1.292869,7.536947,0.057461,24.200439,30.181885,25.238037,34.398438
19800,1.101333,5.487510,1.417367,-6.866455,62.927246,17.181396,34.394531
19840,2.169147,5.731719,0.991199,-16.723633,48.278809,0.915527,34.384766
19880,4.127604,6.641516,0.407014,-4.882812,26.641846,-4.486084,34.416016
19920,5.008670,7.570466,0.421380,2.014160,17.272949,-7.476807,34.388672
19960,4.807557,9.121908,0.574608,-2.502441,12.176514,-2.471924,34.390625
20000,5.061342,11.568783,0.330400,7.232666,33.172607,9.094238,34.380859
20040,6.234501,12.397177,-0.138864,32.531738,33.325195,18.310547,34.406250
20080,6.052542,11.956643,2.331953,31.951904,14.404297,18.066406,34.375000
20120,4.419696,9.232041,4.754885,15.594482,-5.737305,10.345459,34.392578
20160,1.924938,9.275137,4.678270,-28.442383,-16.967773,-0.610352,34.408203
20200,2.293645,11.506534,2.738967,-16.021729,-2.044678,-9.979248,34.412109
20240,4.501099,10.280702,0.876278,-6.530762,-83.953857,-30.975342,34.398438
20280,5.200206,6.598420,1.288081,-3.570557,-53.192139,-35.949707,34.412109
20320,2.384625,4.572925,1.695095,-13.519287,-33.172607,-47.851562,34.406250
20360,0.751779,5.037400,1.436521,-44.097900,-29.602051,-20.324707,34.408203
20400,1.699883,7.129933,-0.201113,-4.638672,-17.486572,-2.075195,34.406250
20440,2.748544,8.959103,-0.435745,-3.936768,-25.115967,4.058838,34.400391
20480,5.104438,9.888053,-0.019154,-10.681152,-39.733887,2.136230,34.445312
20520,6.038177,12.239159,-0.435745,-17.730713,-40.832520,-17.272949,34.453125
20560,5.032612,13.517663,-0.641646,-17.944336,-62.500000,-29.205322,34.458984
20600,3.466804,12.234370,3.098097,33.233643,-3.448486,-7.690430,34.451172
20640,1.106121,9.117120,4.975151,46.813965,5.981445,16.662598,34.453125
20680,2.595315,9.011775,5.228937,-21.667480,-34.240723,-1.739502,34.435547
20720,5.894525,9.318233,5.511452,20.263672,-26.153564,26.458740,34.458984
20760,4.338294,9.710882,0.507571,-21.881104,29.022217,27.435303,34.468750
20800,1.977611,7.565677,-0.459687,20.843506,10.711670,23.468018,34.460938
20840,1.522712,5.118803,1.403002,-20.874023,36.834717,11.138916,34.455078
20880,2.394202,5.032612,0.914585,-19.775391,14.465332,-4.791260,34.447266
20920,4.022259,6.363788,0.536301,-18.585205,12.542725,-11.413574,34.464844
20960,5.224148,8.116343,-0.172383,-4.760742,0.823975,-9.704590,34.460938
21000,5.544971,9.969456,0.172383,8.148193,3.845215,1.586914,34.447266
21040,5.770026,11.674128,0.225055,15.380859,25.878906,9.582520,34.455078
21080,6.359000,11.875240,0.363919,34.088135,38.452148,20.660400,34.457031
21120,5.578490,10.869676,3.217807,30.792236,-2.929688,19.073486,34.460938
21160,3.677494,8.743625,4.649539,-7.232666,-16.998291,13.763428,34.470703
21200,1.086968,10.855310,3.816358,-37.261963,-2.807617,-1.342773,34.478516
21240,2.657564,12.612655,1.728614,2.380371,-9.002686,-14.770508,34.468750
21280,5.358223,9.543288,0.976834,1.617432,-61.218262,-22.125244,34.443359
21320,4.247314,5.961562,1.187524,1.464844,-67.962646,-23.529053,34.447266
21360,1.388637,4.515464,1.498770,-22.430420,-46.752930,-26.000977,34.472656
21400,1.048660,5.391742,0.833182,-34.606934,-14.068604,-14.739990,34.470703
21440,2.044648,7.522582,-0.373495,-5.065918,-6.988525,1.708984,34.455078
21480,3.112462,9.169792,-0.775721,-8.270264,-22.033691,4.516602,34.472656
21520,5.315128,9.959879,-0.272939,-13.275146,-33.294678,3.845215,34.466797
21560,5.439626,12.287044,-0.914585,-22.460938,-50.872803,-15.502930,34.460938
21600,4.735731,13.283031,-0.737414,-8.789062,-67.962646,-13.641357,34.466797
21640,2.782062,12.291832,3.878607,33.813477,14.556885,-2.532959,34.480469
21680,1.106121,9.433155,4.515464,30.975342,-9.399414,11.352539,34.509766
21720,3.859453,9.308656,4.544195,-9.613037,-25.512695,-3.021240,34.462891
21760,5.985504,10.108319,4.228160,-13.336182,25.115967,22.521973,34.498047
21800,3.371036,9.619903,-0.057461,30.914307,21.514893,27.282715,34.478516
21840,1.048660,6.770802,0.914585,26.184082,50.506592,24.444580,34.478516
21880,0.876278,5.133168,1.656788,-10.009766,77.484131,9.460449,34.496094
21920,2.437297,5.789180,0.684742,-10.528564,50.201416,-5.126953,34.472656
21960,4.841076,7.115568,-0.167594,-0.213623,33.966064,-6.652832,34.496094
22000,5.731719,7.891289,-0.407014,8.453369,12.695312,-8.239746,34.505859
22040,5.367800,8.762778,0.397437,6.805420,9.857178,2.716064,34.486328
22080,5.559336,10.539276,0.124498,6.195068,21.270752,11.108398,34.488281
22120,6.296751,11.808203,-0.368707,23.590088,44.342041,21.301270,34.462891
22160,5.755661,12.038046,1.900996,43.395996,16.876221,12.908936,34.501953
22200,4.505888,9.227253,4.338294,7.385254,-4.241943,8.026123,34.494141
22240,1.872266,9.428367,3.768473,-37.048340,-8.819580,-0.274658,34.482422
22280,2.418144,11.875240,1.651999,-8.666992,24.414062,-15.716553,34.496094
22320,4.486734,10.663774,0.268151,8.300781,-53.619385,-26.123047,34.492188
22360,4.754885,6.852205,1.101333,4.486084,-50.659180,-23.803711,34.488281
22400,2.312799,4.946421,1.297657,-14.495850,-30.487061,-25.421143,34.476562
22440,1.058237,5.559336,0.593762,-34.790039,-20.385742,-17.883301,34.496094
22480,2.121263,6.976704,-0.272939,-14.282227,-11.901855,-3.387451,34.546875
22520,2.964022,8.820239,-0.837971,-13.092041,-10.131836,3.753662,34.566406
22560,4.850653,9.763555,-0.497994,-18.341064,-32.196045,2.624512,34.558594
22600,5.631162,12.018892,-0.828394,-21.118164,-35.919189,-12.908936,34.535156
22640,4.783615,12.679692,-1.584962,5.401611,-65.521240,-8.941650,34.544922
22680,3.145981,11.985373,2.892196,28.411865,-2.899170,4.272461,34.548828
22720,1.345541,9.883265,4.644751,38.177490,11.596680,11.505127,34.529297
22760,2.959233,9.768343,4.582502,-24.078369,-16.448975,-6.164551,34.552734
22800,6.172252,9.653421,4.793192,0.091553,-19.348145,21.972656,34.550781
22840,4.616021,9.940725,1.077391,-18.951416,47.332764,29.022217,34.542969
22880,1.690306,8.006210,-0.608127,33.294678,24.291992,23.162842,34.572266
22920,1.412579,5.549759,1.335965,-14.160156,58.624268,10.803223,34.554688
22960,2.461239,5.257667,0.679953,-16.052246,36.621094,-7.293701,34.539062
23000,4.367024,6.086061,-0.033519,-2.746582,23.071289,-6.988525,34.546875
23040,5.181053,7.465121,0.301669,-1.007080,14.068604,-8.453369,34.558594
23080,5.272032,9.528923,0.167594,-0.061035,8.728027,-0.915527,34.552734
23120,5.770026,11.449073,-0.244209,11.688232,18.859863,7.904053,34.560547
23160,6.291962,12.368446,0.454898,30.181885,43.670654,20.141602,34.564453
23200,5.688623,11.621455,3.208230,35.400391,11.047363,15.136719,34.552734
23240,3.763685,9.088389,4.577713,9.399414,2.044678,10.437012,34.556641
23280,1.158794,10.773908,3.610456,-37.658691,8.880615,-6.347656,34.550781
23320,2.743755,11.544841,1.383849,-0.244141,1.129150,-16.693115,34.554688
23360,5.042189,8.844181,0.718261,0.488281,-55.389404,-24.383545,34.562500
23400,4.180276,5.990293,1.383849,-9.918213,-24.566650,-27.587891,34.560547
23440,1.417367,5.133168,0.924162,-18.432617,-17.150879,-26.214600,34.542969
23480,1.244985,5.923255,0.488417,-18.798828,-13.061523,-8.514404,34.564453
23520,2.466028,7.388506,-0.253785,3.143311,0.946045,7.232666,34.562500
23560,3.543418,8.954314,-0.641646,-11.230469,-13.061523,-0.610352,34.572266
23600,5.655105,10.347740,-0.435745,-13.610840,-35.705566,-2.716064,34.578125
23640,5.281609,12.655750,-1.101333,-15.441895,-48.858643,-18.798828,34.544922
23680,4.041412,13.215993,0.598550,-12.359619,-56.854248,-19.622803,34.570312
23720,1.910573,11.137826,4.865018,46.142578,8.911133,14.465332,34.556641
23760,2.135628,9.715671,4.501099,-5.035400,6.408691,5.157471,34.578125
23800,4.740520,9.303867,5.588067,-2.868652,-28.198242,12.207031,34.558594
23840,5.482722,9.907207,2.940080,-18.463135,43.395996,22.735596,34.554688
23880,2.920926,9.064447,0.100556,21.209717,13.000488,22.033691,34.580078
23920,1.513135,6.540959,1.130063,16.296387,36.499023,19.744873,34.562500
23960,1.254562,5.257667,1.575385,-5.950928,56.610107,5.157471,34.597656
24000,2.557007,5.434838,0.507571,-5.706787,37.200928,-2.197266,34.578125
24040,4.458004,6.837840,0.210690,3.021240,30.700684,-6.561279,34.554688
24080,5.171476,8.494628,0.378284,7.995605,22.491455,-2.655029,34.574219
24120,5.238513,10.500969,1.201889,-33.691406,43.212891,-1.556396,34.568359
24160,6.114791,11.238382,0.172383,40.649414,-3.295898,15.411377,34.593750
24200,6.354211,12.263102,1.781286,14.526367,30.487061,29.815674,34.591797
24240,5.415684,10.979809,4.218584,41.107178,-10.314941,7.781982,34.568359
24280,2.944868,9.739613,3.916914,52.886963,-52.520752,-2.075195,34.587891
24320,1.939303,10.754754,2.647987,-13.671875,26.153564,-14.953613,34.564453
24360,3.433285,10.931925,1.345541,-15.686035,8.209229,-19.500732,34.554688
24400,5.042189,8.125920,1.053449,-22.491455,-4.760742,-25.451660,34.597656
24440,3.112462,5.133168,0.866701,-31.311035,-18.310547,-25.238037,34.632812
24480,1.168370,4.663905,0.675165,-37.078857,-7.202148,-15.167236,34.632812
24520,1.431733,6.550536,0.363919,-37.536621,-3.051758,-4.180908,34.634766
24560,2.489970,8.743625,-0.387861,-4.150391,-1.708984,6.530762,34.626953
24600,3.648763,9.715671,-0.368707,15.197754,-27.679443,2.380371,34.626953
24640,5.588067,10.606314,0.148441,0.366211,-21.820068,-7.385254,34.644531
24680,5.487510,12.861651,0.019154,-8.300781,-34.881592,-16.754150,34.619141
24720,4.654328,13.757083,1.403002,37.933350,-14.495850,-6.958008,34.625000
24760,1.723825,11.386824,3.529053,60.058594,-5.035400,24.414062,34.630859
24800,1.383849,9.241618,4.874595,18.463135,-8.483887,15.258789,34.615234
24840,4.841076,8.595184,5.516241,-14.404297,-23.559570,4.547119,34.607422
24880,4.745308,9.730036,2.896984,-44.372559,-8.758545,19.897461,34.636719
24920,2.944868,8.576031,-0.076614,11.749268,20.812988,23.529053,34.630859
24960,2.303222,5.875371,0.464475,16.113281,34.759521,20.812988,34.630859
25000,2.509123,4.639963,1.072602,-15.563965,27.587891,5.767822,34.619141
25040,3.303998,5.353435,0.565032,-11.993408,12.695312,2.227783,34.617188
25080,4.496311,7.398083,0.143652,-0.305176,10.406494,-6.011963,34.638672
25120,5.774815,8.566454,-0.009577,16.632080,13.427734,1.617432,34.638672
25160,5.899313,10.194510,0.191536,12.908936,14.282227,7.812500,34.626953
25200,6.631939,11.405977,-0.737414,30.578613,4.150391,13.031006,34.630859
25240,6.579266,12.042834,0.387861,59.234619,29.998779,26.153564,34.634766
25280,5.415684,10.577583,3.404555,51.452637,13.153076,18.402100,34.650391
25320,2.528277,9.064447,3.873818,-24.932861,-28.472900,-10.620117,34.634766
25360,1.738190,10.208876,3.078943,-2.563477,5.737305,-5.126953,34.630859
25400,4.276044,11.099519,1.110910,2.227783,27.069092,-11.383057,34.640625
25440,5.588067,9.251195,0.114922,-11.291504,-30.334473,-20.996094,34.634766
25480,3.960010,6.234501,-0.186748,-17.639160,-69.946289,-34.484863,34.642578
25520,2.269703,4.151546,1.163582,-53.924561,-25.604248,-30.303955,34.646484
25560,2.197877,4.879383,0.368707,-28.869629,-10.589600,-11.566162,34.669922
25600,2.600103,7.623138,-0.723049,-15.563965,-23.376465,-2.593994,34.675781
25640,3.715801,9.370906,-0.339977,6.042480,-35.736084,8.087158,34.685547
25680,5.650316,11.104307,-0.512359,-18.554688,-24.871826,-6.195068,34.679688
25720,6.335058,12.210428,-2.375048,-10.803223,-65.795898,-13.671875,34.687500
25760,5.482722,11.918336,0.311246,19.470215,-43.884277,-3.143311,34.679688
25800,2.197877,10.362105,5.209783,39.733887,20.629883,10.314941,34.691406
25840,1.766921,10.788273,4.295198,3.479004,-25.024414,-13.458252,34.675781
25880,5.899313,10.539276,4.304775,0.976562,-50.598145,8.544922,34.693359
25920,5.530606,9.706094,1.900996,-40.863037,50.354004,31.890869,34.669922
25960,2.102109,8.015787,-0.742203,24.658203,4.699707,20.294189,34.683594
26000,1.417367,5.516241,1.024718,-17.181396,42.572021,15.930176,34.681641
26040,2.705448,5.228937,0.177171,-12.451172,16.906738,-3.845215,34.669922
26080,4.381389,6.090849,-0.373495,3.417969,9.490967,-5.706787,34.699219
26120,4.999093,7.062895,0.028730,7.049561,11.199951,-3.997803,34.660156
26160,5.023035,8.561666,-0.071826,9.185791,6.134033,-0.061035,34.677734
26200,5.420473,10.366894,-0.009577,0.488281,13.702393,3.204346,34.699219
26240,6.914454,12.172121,0.421380,8.178711,30.670166,13.610840,34.664062
26280,6.947973,12.191275,2.389413,2.777100,21.148682,26.947021,34.683594
26320,4.012682,9.643845,3.567361,7.080078,22.003174,11.718750,34.675781
26360,0.368707,11.161768,3.016694,-43.273926,23.101807,-7.263184,34.685547
26400,2.518700,11.219229,1.618480,-14.190674,-19.134521,-16.998291,34.685547
26440,5.080496,8.743625,0.909797,-20.874023,-20.477295,-20.629883,34.693359
26480,3.878607,6.258443,0.900220,-22.857666,-11.383057,-28.503418,34.683594
26520,1.465251,5.109226,0.814029,-30.426025,10.711670,-31.066895,34.703125
26560,1.273715,6.124368,0.881066,-22.430420,-5.859375,-10.223389,34.679688
26600,2.997540,7.699753,-0.033519,11.444092,-6.866455,4.272461,34.693359
26640,4.050989,9.318233,-0.469264,-4.486084,-18.188477,5.981445,34.703125
26680,5.655105,11.013328,-0.402226,-12.847900,-30.212402,-7.354736,34.683594
26720,4.711789,12.679692,-0.426168,-2.960205,-25.482178,-24.810791,34.673828
26760,3.514688,12.392388,1.077391,-7.415771,-20.843506,-7.354736,34.691406
26800,1.776498,10.663774,4.965574,43.670654,19.775391,5.645752,34.707031
26840,2.054225,9.572019,4.903325,10.162354,-16.784668,4.791260,34.695312
26880,5.444415,9.816227,5.142745,7.934570,-36.468506,11.566162,34.660156
26920,5.353435,9.897630,2.504335,7.965088,50.292969,33.325195,34.699219
26960,2.547431,8.796297,0.057461,52.551270,14.801025,27.832031,34.703125
27000,1.407791,5.683835,1.671153,27.435303,69.122314,24.414062,34.691406
27040,1.800440,4.807557,1.115698,-3.936768,46.417236,1.403809,34.701172
27080,3.648763,5.588067,0.459687,-8.666992,37.902832,-3.326416,34.703125
27120,5.042189,7.010222,0.095768,3.845215,24.230957,-4.974365,34.703125
27160,4.735731,8.489840,0.397437,5.615234,23.559570,-1.525879,34.697266
27200,4.606444,10.745177,0.363919,7.049561,36.956787,3.356934,34.675781
27240,6.440403,11.817780,-0.407014,32.318115,49.530029,23.132324,34.697266
27280,7.029376,12.277467,1.766921,31.890869,30.731201,24.139404,34.693359
27320,5.755661,10.060435,4.170700,24.353027,-2.471924,12.084961,34.695312
27360,2.403779,9.600749,4.328717,-24.902344,-3.540039,1.098633,34.708984
27400,2.365471,11.563994,2.839523,-8.422852,28.381348,-8.728027,34.716797
27440,4.563348,10.879252,0.632069,4.425049,-56.610107,-33.081055,34.703125
27480,5.118803,6.631939,1.240196,-1.373291,-45.776367,-28.411865,34.710938
27520,2.691083,4.146757,1.541866,-12.237549,-25.848389,-37.963867,34.718750
27560,1.216254,4.754885,1.000776,-39.123535,-15.594482,-19.683838,34.765625
27600,1.853112,6.895301,-0.272939,2.563477,-8.270264,-3.570557,34.757812
27640,2.600103,9.174581,-0.742203,-2.746582,-21.026611,-0.549316,34.759766
27680,5.334281,10.223241,-0.842759,-10.528564,-33.142090,-1.525879,34.757812
27720,6.282385,11.774684,-1.019930,-5.004883,-35.614014,-13.000488,34.751953
27760,4.606444,12.464214,-1.584962,16.021729,-68.786621,-7.873535,34.742188
27800,3.323152,11.626244,3.280056,37.689209,7.812500,2.868652,34.746094
27840,1.862689,9.806650,4.716578,44.738770,-1.861572,11.474609,34.761719
27880,4.395754,10.165780,4.319140,-15.960693,-50.079346,-0.518799,34.748047
27920,7.225701,10.156203,4.534618,-16.662598,12.237549,19.073486,34.775391
27960,4.012682,9.500193,0.330400,-1.342773,18.981934,28.381348,34.761719
28000,1.364695,6.856994,0.320823,2.807617,31.555176,25.054932,34.761719
28040,0.881066,5.161899,0.957681,-14.038086,41.198730,6.225586,34.765625
28080,2.590526,5.061342,0.526724,-5.706787,27.587891,-4.852295,34.765625
28120,4.616021,6.157887,0.215478,-3.784180,21.606445,-7.263184,34.771484
28160,5.463568,7.905654,-0.129287,-0.793457,11.718750,-6.866455,34.773438
28200,5.190629,9.926360,-0.114922,-1.129150,11.108398,0.671387,34.759766
28240,5.861006,11.578360,-0.679953,11.840820,25.024414,6.011963,34.773438
28280,6.761226,11.880029,-0.316035,50.170898,45.471191,21.118164,34.757812
28320,5.616797,10.769119,3.107674,32.379150,11.779785,12.847900,34.740234
28360,3.859453,8.633492,4.616021,-27.343750,4.089355,8.331299,34.759766
28400,2.274492,10.960655,3.371036,-41.748047,7.598877,-1.892090,34.761719
28440,3.442862,12.502522,1.302446,-1.068115,-3.143311,-22.430420,34.748047
28480,4.802769,9.126697,0.866701,-2.166748,-56.762695,-28.686523,34.763672
28520,3.998317,5.204995,1.359907,-6.683350,-42.785645,-32.653809,34.775391
28560,1.618480,3.945644,1.345541,-38.482666,-12.878418,-30.181885,34.765625
28600,1.264138,5.746084,0.325611,-37.353516,-2.838135,-13.885498,34.771484
28640,2.149993,8.135497,-0.636858,-0.183105,-11.291504,-0.915527,34.753906
28680,3.600879,10.036493,-0.991199,-14.404297,-30.029297,-0.732422,34.775391
28720,6.100426,11.228806,-0.579397,-2.288818,-30.578613,-5.462646,34.775391
28760,5.377377,13.302185,-0.296881,-26.885986,-26.611328,-29.663086,34.765625
28800,3.835511,14.044387,2.312799,-26.763916,9.002686,-39.550781,34.787109
28840,1.675941,10.146626,4.084508,73.150635,-3.417969,13.366699,34.791016
28880,1.968034,8.652645,5.051765,-16.540527,-36.254883,26.458740,34.765625
28920,6.052542,8.791509,6.014235,20.050049,-32.989502,23.254395,34.775391
28960,5.410896,9.332599,3.533842,1.708984,42.633057,32.379150,34.765625
29000,1.929727,8.264784,-0.976834,8.514404,1.190186,25.360107,34.779297
29040,1.091756,5.803545,0.713472,-2.929688,42.633057,21.636963,34.761719
29080,2.159570,5.075707,1.010353,-15.502930,38.024902,1.434326,34.759766
29120,4.017470,5.741296,0.282516,-4.089355,17.883301,-4.089355,34.765625
29160,4.850653,7.230489,0.325611,1.800537,14.190674,-9.826660,34.775391
29200,4.994305,9.054871,0.368707,8.605957,13.366699,-4.699707,34.773438
29240,5.947197,10.807426,0.445322,6.561279,23.925781,8.544922,34.802734
29280,7.182605,11.473015,-0.670376,35.034180,30.334473,17.272949,34.792969
29320,6.196194,11.449073,1.522712,52.490234,16.937256,17.120361,34.781250
29360,4.003105,9.361329,4.979939,22.857666,-4.302979,9.796143,34.792969
29400,2.159570,10.146626,4.606444,-41.839600,2.624512,3.662109,34.796875
29440,2.217031,12.598289,2.169147,-16.571045,30.181885,-12.939453,34.787109
29480,4.070143,10.989386,0.632069,14.129639,-49.957275,-29.907227,34.771484
29520,5.099649,6.856994,1.412579,5.004883,-32.897949,-28.045654,34.835938
29560,2.470816,4.553771,1.120486,0.518799,-12.603760,-41.748047,34.826172
29600,0.363919,4.630386,0.981623,-38.970947,-19.317627,-18.249512,34.830078
29640,1.704672,6.459556,-0.253785,-15.716553,-11.566162,-3.601074,34.835938
29680,3.026271,9.045294,-1.259350,-17.547607,-24.719238,0.732422,34.824219
29720,5.501875,10.496181,-0.679953,-7.354736,-35.583496,0.793457,34.833984
29760,5.760449,12.425907,-0.756568,-8.300781,-38.818359,-15.777588,34.839844
29800,4.146757,13.656527,-0.196325,-20.294189,-42.938232,-27.893066,34.830078
29840,2.700660,11.961432,3.792415,34.606934,15.777588,-9.704590,34.833984
29880,0.972046,9.883265,5.013458,46.112061,-7.720947,17.303467,34.833984
29920,4.266468,9.864111,5.415684,10.620117,-80.322266,24.475098,34.843750
29960,6.856994,9.615114,5.166687,3.204346,56.030273,38.970947,34.820312
30000,2.609680,9.160215,-0.478840,-6.958008,13.214111,26.672363,34.824219
30040,0.790087,6.282385,0.588974,-2.075195,40.161133,26.245117,34.822266
30080,1.513135,4.845864,1.264138,-22.644043,40.740967,2.319336,34.853516
30120,3.160346,5.482722,0.550666,-11.047363,33.996582,-4.333496,34.835938
30160,4.338294,6.976704,-0.028730,2.960205,25.115967,-7.690430,34.843750
30200,4.922479,8.169016,0.181959,7.507324,18.188477,-5.462646,34.835938
30240,5.683835,10.156203,0.493206,2.075195,26.458740,4.699707,34.853516
30280,7.331046,11.549629,-0.421380,22.033691,33.325195,17.211914,34.816406
30320,6.631939,12.109872,0.521936,44.555664,27.526855,21.850586,34.855469
30360,4.735731,10.903194,4.094085,37.231445,-8.483887,13.763428,34.841797
30400,2.614468,9.399636,5.042189,-24.780273,5.859375,10.437012,34.843750
30440,0.842759,11.386824,3.208230,-28.594971,38.909912,-2.563477,34.857422
30480,2.466028,11.525687,1.240196,10.742188,-1.342773,-19.683838,34.845703
30520,4.692636,8.226477,1.206678,10.467529,-32.012939,-18.920898,34.855469
30560,3.940856,5.233725,1.192312,-4.486084,-21.301270,-32.165527,34.845703
30600,1.326388,4.563348,1.048660,-35.522461,-12.603760,-31.127930,34.845703
30640,1.685518,6.124368,0.292093,-29.785156,4.119873,-8.453369,34.863281
30680,2.513912,8.154651,-0.732626,4.882812,-17.272949,1.556396,34.869141
30720,3.739743,9.720459,-0.450110,-17.272949,-42.053223,2.502441,34.849609
30760,5.817910,11.659762,-0.067038,-21.148682,-33.599854,-12.878418,34.873047
30800,4.774038,13.354857,-1.326388,-11.352539,-44.769287,-26.062012,34.857422
30840,3.591303,12.832921,0.493206,10.467529,-41.809082,-9.246826,34.869141
30880,1.944092,10.764331,4.721366,46.936035,20.721436,10.559082,34.853516
30920,1.393425,9.643845,5.190629,15.319824,-8.728027,-3.570557,34.869141
30960,4.568137,9.188946,5.315128,17.120361,-77.056885,19.866943,34.847656
31000,6.689400,8.772355,4.098873,1.190186,62.438965,30.700684,34.855469
31040,2.738967,8.504205,-0.138864,1.861572,29.754639,31.097412,34.845703
31080,1.000776,6.507440,0.660800,-6.622314,50.354004,21.881104,34.853516
31120,1.589750,5.473145,0.871489,-9.002686,48.278809,1.220703,34.865234
31160,3.500323,5.837064,0.383072,-6.805420,36.041260,-5.035400,34.849609
31200,5.142745,6.919243,0.052672,-1.556396,22.003174,-10.284424,34.857422
31240,5.319916,7.967903,0.339977,-0.122070,10.498047,-10.162354,34.865234
31280,5.224148,9.629479,0.775721,2.288818,13.732910,-0.335693,34.867188
31320,6.550536,11.650186,-0.086191,13.214111,34.576416,13.214111,34.878906
31360,6.866570,12.497733,0.181959,44.433594,37.170410,22.369385,34.876953
31400,5.233725,11.396400,3.648763,46.783447,-5.096436,11.810303,34.875000
31440,3.524265,9.193734,5.075707,-0.183105,-6.286621,3.509521,34.875000
31480,1.426944,10.113108,3.936068,-38.696289,10.406494,-1.800537,34.851562
31520,2.566584,11.468226,1.493982,-4.058838,-15.258789,-18.646240,34.902344
31560,4.941632,8.690952,0.665588,1.434326,-67.962646,-26.763916,34.900391
31600,4.797980,5.698200,0.909797,8.758545,-49.896240,-40.496826,34.935547
31640,1.651999,4.467580,1.431733,-20.294189,-30.578613,-30.090332,34.921875
31680,1.101333,5.674258,1.000776,-42.114258,-1.800537,-8.605957,34.910156
31720,2.169147,7.934384,-1.110910,-8.666992,-9.246826,1.251221,34.886719
31760,3.145981,9.543288,-0.900220,-24.627686,-28.472900,2.441406,34.925781
31800,5.286397,11.118672,-0.569820,-7.598877,-36.529541,-2.899170,34.892578
31840,5.817910,13.029245,-1.532289,-0.793457,-42.999268,-9.857178,34.912109
31880,4.726154,13.105860,-0.579397,22.644043,-28.808594,-3.479004,34.919922
31920,2.130840,11.137826,4.544195,44.921875,32.653809,9.094238,34.896484
31960,0.972046,9.825804,4.745308,39.306641,-8.148193,12.023926,34.908203
32000,4.999093,9.854534,4.347870,6.286621,-71.228027,14.404297,34.927734
32040,7.082048,9.385271,4.635174,-12.176514,61.431885,36.407471,34.917969
32080,2.561796,9.088389,-0.881066,-11.199951,31.829834,31.585693,34.896484
32120,0.593762,6.722919,0.019154,5.218506,55.572510,23.406982,34.906250
32160,1.010353,4.989516,0.823605,-8.453369,51.605225,1.037598,34.921875
32200,3.418920,4.984728,0.354342,-3.265381,43.426514,-6.927490,34.912109
32240,5.200206,6.483498,0.124498,4.577637,23.010254,-13.641357,34.919922
32280,5.425261,8.169016,0.478840,1.220703,10.650635,-4.425049,34.916016
32320,5.334281,10.706870,0.421380,-3.234863,10.742188,0.671387,34.917969
32360,7.048530,12.172121,-1.192312,22.155762,19.958496,11.260986,34.902344
32400,6.890512,12.047623,-0.210690,66.894531,30.090332,26.885986,34.937500
32440,3.792415,9.730036,4.371812,45.928955,8.575439,16.235352,34.921875
32480,1.862689,8.599973,4.941632,-52.886963,-2.288818,0.701904,34.904297
32520,2.231396,10.869676,3.270479,-47.943115,31.494141,1.556396,34.917969
32560,3.572149,12.607866,0.794875,-2.593994,-23.956299,-23.712158,34.921875
32600,5.152322,9.035717,0.416591,19.165039,-80.596924,-28.198242,34.935547
32640,3.969586,4.865018,1.163582,-7.751465,-40.100098,-32.012939,34.923828
32680,1.867477,3.639187,1.479617,-46.600342,-20.355225,-29.632568,34.910156
32720,1.628057,5.573701,0.244209,-46.783447,12.817383,-12.115479,34.935547
32760,1.987187,8.825027,-1.369483,-9.521484,-14.404297,-3.936768,34.925781
32800,3.797204,10.386047,-0.531513,-20.416260,-25.054932,6.561279,34.937500
32840,6.234501,12.253524,-0.603339,-12.847900,-21.026611,-9.277344,34.951172
32880,5.616797,14.173674,-0.924162,-20.355225,-24.414062,-32.653809,34.912109
32920,3.102885,13.402741,3.040636,6.286621,40.039062,-18.585205,34.925781
32960,0.440533,10.093954,4.946421,55.084229,6.927490,17.486572,34.919922
33000,2.025495,9.275137,5.334281,-5.462646,-38.269043,17.578125,34.927734
33040,6.033388,8.954314,5.889736,53.466797,-43.090820,31.250000,34.937500
33080,4.821922,8.738836,3.586514,-0.915527,52.001953,37.231445,34.951172
33120,1.331176,7.824251,-1.187524,13.122559,23.315430,28.228760,34.947266
33160,0.895431,5.564125,0.809240,-6.561279,71.960449,21.606445,34.927734
33200,1.824382,5.080496,0.814029,-16.754150,52.764893,0.518799,34.927734
33240,4.065354,5.875371,0.067038,-3.936768,39.916992,-6.347656,34.923828
33280,5.607220,7.398083,0.162806,1.708984,21.545410,-8.361816,34.941406
33320,5.702989,8.815451,1.106121,-7.202148,12.786865,-0.854492,34.953125
33360,5.741296,11.396400,0.445322,7.965088,30.975342,7.598877,34.933594
33400,6.756437,12.770672,-0.325611,49.835205,43.579102,16.418457,34.931641
33440,5.865794,12.258312,2.494758,47.729492,11.596680,15.655518,34.925781
33480,4.400543,9.203311,5.133168,15.594482,-9.063721,5.279541,34.964844
33520,2.327164,9.121908,4.903325,-47.515869,-10.345459,0.183105,34.982422
33560,2.442086,11.520899,3.165135,-12.390137,11.901855,-9.094238,35.003906
33600,4.118027,10.658986,0.885855,1.464844,-83.343506,-35.064697,34.957031
33640,5.937620,6.876147,0.761356,0.366211,-44.250488,-43.487549,34.988281
33680,2.825158,4.185065,2.082955,-26.611328,-30.334473,-48.919678,34.984375
33720,0.545878,4.232949,1.470040,-47.088623,-31.799316,-28.533936,34.960938
33760,1.407791,6.569689,-0.239420,-13.183594,-4.638672,-5.493164,34.980469
33800,2.284068,9.160215,-1.091756,11.108398,-21.209717,-0.671387,34.996094
33840,3.931279,10.534488,-0.301669,-10.498047,-34.790039,10.040283,34.976562
33880,6.062119,12.368446,-0.186748,-0.915527,-19.866943,-12.023926,34.996094
33920,5.214571,13.618219,-1.379060,4.669189,-39.337158,-24.414062,34.970703
33960,3.701436,12.330139,2.758120,13.824463,29.205322,-0.732422,34.990234
34000,0.972046,9.749189,5.267244,47.393799,19.897461,22.094727,34.980469
34040,2.039860,9.605537,4.683059,0.152588,-54.626465,15.411377,34.984375
34080,6.430826,9.433155,5.190629,42.419434,-58.776855,23.254395,34.986328
34120,5.262455,8.887277,2.935291,2.166748,57.006836,34.362793,34.976562
34160,1.685518,7.498640,-0.933739,-9.552002,16.204834,26.611328,34.984375
34200,1.039083,5.540183,0.842759,-37.078857,47.637939,13.824463,34.986328
34240,2.059013,5.037400,0.301669,-19.500732,30.059814,-3.997803,34.982422
34280,3.758897,5.741296,0.143652,-4.272461,31.036377,-10.437012,34.986328
34320,5.137957,7.383718,0.474052,1.861572,12.451172,-12.268066,34.974609
34360,5.367800,9.327810,0.780510,-0.885010,12.359619,-1.464844,35.003906
34400,6.306327,11.535264,0.239420,-2.197266,20.965576,9.094238,35.000000
34440,7.441179,12.569559,0.723049,29.296875,26.702881,26.092529,35.000000
34480,6.062119,11.966220,3.509900,27.252197,3.753662,21.209717,34.998047
34520,3.327940,9.576807,4.491522,19.531250,7.141113,7.720947,34.980469
34560,0.387861,10.256760,4.098873,-34.027100,13.580322,-1.007080,34.988281
34600,2.188300,11.473015,2.025495,-24.047852,-14.404297,-16.815186,35.000000
34640,4.778827,9.112331,0.881066,4.699707,-50.170898,-25.939941,34.998047
34680,4.946421,5.616797,0.584185,10.772705,-33.996582,-31.524658,35.005859
34720,1.886631,4.089296,0.967257,-9.490967,-18.249512,-34.484863,34.996094
34760,0.861913,5.027823,0.588974,-41.381836,4.974365,-9.948730,34.980469
34800,2.015918,7.584831,-0.972046,-5.035400,-5.157471,2.166748,35.013672
34840,3.246537,10.074800,-0.842759,-15.563965,-33.813477,-2.380371,35.003906
34880,5.793968,11.453861,-0.253785,-9.521484,-32.043457,-10.498047,34.994141
34920,5.559336,13.364434,-1.082179,-8.911133,-31.768799,-20.477295,34.994141
34960,3.888184,13.747506,0.905008,14.343262,-11.688232,-9.216309,35.017578
35000,1.661576,11.214440,4.458004,61.859131,20.660400,17.547607,35.000000
35040,1.211466,9.279925,4.678270,39.855957,-12.847900,10.314941,35.009766
35080,5.252879,9.562442,5.070919,14.129639,-79.620361,22.552490,35.009766
35120,6.900089,9.337387,3.557784,3.356934,59.448242,39.306641,34.976562
35160,2.557007,8.149862,-0.560243,-2.838135,26.000977,34.515381,35.013672
35200,0.770933,5.774815,0.541090,-15.380859,49.896240,20.538330,35.029297
35240,1.379060,4.812346,0.699107,-26.794434,47.485352,0.396729,35.027344
35280,3.308787,5.276821,-0.201113,3.784180,33.813477,-7.537842,35.027344
35320,4.960786,6.818686,-0.004788,2.349854,25.390625,-11.169434,35.019531
35360,5.549759,8.734048,0.110133,9.857178,13.092041,-2.960205,35.021484
35400,5.837064,11.018116,-0.124498,5.218506,26.123047,7.995605,35.013672
35440,7.388506,12.129025,-0.608127,35.156250,35.827637,24.047852,35.005859
35480,6.708553,12.296620,2.542642,43.090820,13.641357,25.726318,35.048828
35520,4.453215,10.022128,4.932055,-0.244141,-4.943848,6.774902,35.042969
35560,1.728614,10.797850,3.969586,-36.865234,4.150391,0.579834,35.039062
35600,2.360683,12.464214,1.982399,-2.014160,26.641846,-14.587402,35.033203
35640,4.539406,9.409213,0.536301,2.807617,-49.255371,-34.973145,35.062500
35680,4.817134,4.975151,0.914585,8.453369,-36.743164,-36.437988,35.050781
35720,1.910573,2.968810,1.460463,-29.571533,-4.852295,-37.017822,35.046875
35760,1.029507,4.649539,0.359130,-54.931641,9.613037,-16.448975,35.046875
35800,2.164358,7.814674,-1.288081,-10.894775,-20.446777,-6.225586,35.037109
35840,3.672705,10.165780,-0.852336,-18.341064,-48.980713,-6.134033,35.046875
35880,6.330269,11.415554,-0.114922,-9.918213,-40.802002,-4.150391,35.058594
35920,5.468357,13.776237,-1.216254,-14.312744,-43.304443,-18.585205,35.064453
35960,3.404555,13.833697,1.637634,5.462646,0.091553,-18.859863,35.041016
36000,1.326388,10.845734,5.166687,52.093506,6.988525,9.490967,35.048828
36040,2.293645,9.768343,5.501875,35.430908,-31.707764,16.418457,35.044922
36080,7.249643,9.524135,5.884948,22.399902,-44.830322,19.836426,35.062500
36120,5.779603,9.050082,2.614468,-36.865234,57.830811,37.933350,35.072266
36160,1.307234,7.752425,-1.244985,16.937256,13.092041,28.137207,35.070312
36200,-0.057461,5.305551,0.933739,-3.143311,55.633545,14.465332,35.076172
36240,1.460463,4.405331,0.962469,-16.479492,49.591064,-5.096436,35.062500
36280,3.950433,5.348647,0.167594,-6.286621,43.792725,-8.666992,35.052734
36320,5.497087,7.541735,0.234632,3.021240,29.174805,-12.725830,35.066406
36360,5.779603,9.835381,0.239420,5.157471,18.035889,-2.960205,35.052734
36400,6.378153,11.750742,-0.306458,6.866455,25.543213,8.392334,35.052734
36440,7.326257,12.090718,0.172383,38.391113,31.829834,30.700684,35.056641
36480,5.295974,10.960655,4.084508,25.543213,-3.387451,27.526855,35.058594
36520,3.485958,9.452309,5.549759,-19.165039,-15.411377,12.115479,35.072266
36560,1.948880,11.951855,4.477157,-46.142578,2.960205,-3.479004,35.037109
36600,2.997540,12.382812,2.130840,6.256104,-23.040771,-24.169922,35.074219
36640,5.018247,8.207323,0.847547,5.035400,-79.132080,-28.320312,35.048828
36680,4.434062,4.362236,1.307234,-12.023926,-52.398682,-48.217773,35.070312
36720,1.125275,3.055001,1.393425,-38.024902,-43.243408,-42.480469,35.048828
36760,0.746991,4.812346,1.077391,-55.541992,29.266357,-14.678955,35.095703
36800,1.680730,8.662222,-1.288081,-5.004883,-3.417969,-4.089355,35.070312
36840,3.222595,11.109096,-0.766145,-5.310059,-32.531738,2.471924,35.068359
36880,6.339846,12.181698,-0.450110,6.591797,-31.341553,-8.239746,35.076172
36920,5.980716,13.259089,-1.110910,10.101318,-37.200928,-16.021729,35.072266
36960,4.079720,13.321339,2.173935,19.989014,17.883301,-17.547607,35.080078
37000,1.130063,10.716447,5.228937,35.278320,18.981934,0.122070,35.072266
37040,1.417367,9.471462,5.257667,6.835938,-30.670166,16.448975,35.082031
37080,5.980716,9.490616,5.736507,44.708252,-83.618164,30.029297,35.066406
37120,5.880159,8.853758,3.711013,16.815186,48.339844,39.764404,35.091797
37160,1.608904,7.608773,-0.861913,-4.150391,31.890869,33.538818,35.046875
37200,0.167594,5.291186,0.656011,-22.613525,58.410645,15.869141,35.078125
37240,1.522712,4.544195,0.770933,-31.768799,53.131104,-1.129150,35.070312
37280,4.280833,5.506664,-0.167594,-2.868652,38.299561,-9.155273,35.074219
37320,5.928043,7.345411,0.129287,-0.946045,14.190674,-12.695312,35.062500
37360,6.028600,9.332599,0.790087,0.061035,7.141113,-0.793457,35.082031
37400,6.785168,11.779472,0.306458,6.286621,16.571045,11.199951,35.074219
37440,7.623138,12.631808,0.311246,39.733887,24.902344,22.033691,35.121094
37480,5.985504,11.449073,3.394978,46.539307,-7.202148,21.118164,35.111328
37520,3.337517,9.423578,5.190629,1.403809,-14.862061,8.941650,35.134766
37560,1.230620,10.936713,3.840300,-42.999268,1.281738,-1.556396,35.111328
37600,2.245761,11.745954,1.939303,-15.258789,-21.728516,-19.348145,35.115234
37640,4.855441,8.571242,0.694318,-7.843018,-69.061279,-28.442383,35.115234
37680,5.219360,5.219360,0.627281,-7.263184,-33.294678,-48.736572,35.128906
37720,1.814805,3.677494,1.489193,-17.639160,-34.820557,-39.611816,35.148438
37760,0.478840,4.831499,0.924162,-41.015625,-8.666992,-5.737305,35.126953
37800,1.637634,7.723695,-1.082179,-11.932373,-13.702393,3.875732,35.117188
37840,3.136404,10.606314,-0.794875,-20.996094,-36.071777,0.915527,35.138672
37880,5.631162,12.239159,-0.325611,-2.990723,-26.489258,-5.401611,35.107422
37920,6.124368,13.259089,-1.460463,-5.920410,-39.184570,-14.831543,35.125000
37960,4.194642,13.316550,0.842759,14.160156,4.821777,-18.157959,35.144531
38000,0.565032,10.730812,5.099649,33.203125,13.458252,12.237549,35.123047
38040,1.058237,9.662998,4.850653,46.661377,-22.064209,23.193359,35.121094
38080,6.062119,10.419566,5.214571,31.646729,-57.983398,24.536133,35.109375
38120,6.411672,9.303867,3.734955,-9.582520,73.272705,39.825439,35.158203
38160,1.273715,7.867347,-0.861913,23.834229,41.015625,35.614014,35.142578
38200,-0.411803,5.166687,1.249773,-16.235352,64.849854,20.385742,35.142578
38240,1.283292,4.098873,1.072602,-23.803711,70.678711,2.136230,35.126953
38280,4.108450,5.568913,0.253785,-2.105713,62.133789,-8.758545,35.128906
38320,6.349423,7.881712,0.191536,2.502441,29.724121,-10.253906,35.138672
38360,6.296751,10.199299,0.632069,1.312256,17.730713,-1.953125,35.142578
38400,6.703765,12.282255,-0.086191,10.253906,22.277832,4.333496,35.146484
38440,7.795521,12.741941,-0.263362,43.304443,35.705566,16.204834,35.146484
38480,5.774815,11.319786,2.853889,31.524658,6.561279,13.641357,35.162109
38520,3.007117,8.681376,4.836287,-7.080078,-18.218994,3.723145,35.132812
38560,1.489193,9.686940,4.256891,-42.175293,-13.885498,0.427246,35.142578
38600,2.140416,10.989386,2.896984,-20.507812,9.674072,-14.129639,35.134766
38640,4.165911,8.954314,0.656011,-7.049561,-70.831299,-24.871826,35.140625
38680,4.994305,6.119579,0.756568,-15.136719,-33.325195,-40.771484,35.158203
38720,2.173935,4.290410,1.910573,-29.205322,-0.183105,-44.616699,35.183594
38760,0.900220,5.046977,0.766145,-31.341553,-12.390137,-14.739990,35.158203
38800,1.824382,7.671022,-0.833182,7.934570,-18.310547,-2.441406,35.177734
38840,3.026271,9.988609,-0.368707,-14.495850,-44.464111,0.823975,35.191406
38880,5.640739,12.018892,-0.162806,0.610352,-34.332275,-9.521484,35.175781
38920,5.856217,13.670892,-1.244985,-2.380371,-34.149170,-27.557373,35.187500
38960,3.394978,12.943054,1.680730,1.586914,-1.037598,-14.190674,35.166016
39000,0.560243,10.706870,6.095637,37.628174,9.887695,9.887695,35.185547
39040,1.991976,9.667787,5.104438,39.825439,-18.798828,22.674561,35.177734
39080,6.478710,9.567230,5.712565,29.602051,-37.780762,26.367188,35.191406
39120,5.626374,8.619126,3.562572,11.077881,46.722412,29.815674,35.189453
39160,1.288081,7.139510,-0.507571,-3.631592,27.313232,31.524658,35.173828
39200,-0.244209,5.161899,0.828394,-19.104004,60.028076,18.920898,35.160156
39240,1.259350,5.027823,0.632069,-11.352539,52.856445,-1.464844,35.183594
39280,4.505888,6.153099,0.119710,-4.913330,44.982910,-5.035400,35.181641
39320,6.564901,7.627927,0.306458,5.981445,19.531250,-4.760742,35.201172
39360,5.923255,9.500193,0.967257,3.173828,15.808105,-0.061035,35.183594
39400,6.052542,11.860875,0.268151,11.444092,26.153564,7.080078,35.173828
39440,7.426814,12.512098,-0.574608,41.381836,30.853271,18.341064,35.173828
39480,5.932832,11.367670,2.523489,39.978027,-0.946045,14.617920,35.181641
39520,3.462016,8.475474,5.410896,-2.380371,-18.798828,3.692627,35.179688
39560,2.217031,9.074024,4.414908,-48.736572,-29.022217,0.762939,35.183594
39600,2.968810,11.314998,3.165135,-43.792725,7.904053,-8.422852,35.171875
39640,4.357447,10.285490,0.435745,7.171631,-78.765869,-26.123047,35.169922
39680,5.544971,6.909666,0.612916,-10.192871,-38.970947,-49.224854,35.181641
39720,2.456451,3.983952,1.881842,-14.648438,-32.806396,-50.994873,35.189453
39760,0.430956,3.706224,1.738190,-21.697998,-57.098389,-26.458740,35.201172
39800,1.115698,6.631939,-0.694318,-13.763428,-9.460449,-6.439209,35.191406
39840,2.609680,9.902418,-1.019930,-15.899658,-27.343750,-2.502441,35.177734
39880,5.291186,11.583148,0.138864,-12.603760,-22.399902,-9.765625,35.175781
39920,6.253655,13.350069,-1.139640,-8.819580,-37.658691,-21.179199,35.189453
39960,4.395754,13.996503,0.627281,3.692627,6.561279,-36.987305,35.193359
40000,1.206678,11.243171,5.137957,32.897949,31.524658,4.852295,35.199219
40040,0.483629,9.380483,5.501875,17.639160,7.690430,20.629883,35.203125
40080,4.975151,9.950302,5.386954,21.820068,-90.362549,36.926270,35.199219
40120,7.575254,9.131485,4.922479,64.910889,50.262451,37.811279,35.191406
40160,2.624045,7.814674,0.062249,-38.543701,46.661377,39.855957,35.193359
40200,-0.541090,5.616797,-0.019154,-22.552490,46.203613,24.932861,35.212891
40240,0.718261,4.491522,0.464475,-22.399902,52.764893,2.563477,35.195312
40280,3.816358,4.831499,0.177171,-6.683350,44.006348,-6.225586,35.208984
40320,5.755661,7.024588,0.402226,-1.800537,25.054932,-9.857178,35.210938
40360,6.009446,9.816227,0.277727,12.847900,10.803223,-3.723145,35.199219
40400,6.373365,11.947066,0.047884,20.538330,22.491455,5.401611,35.222656
40440,7.714118,11.994950,0.081403,44.372559,32.501221,20.294189,35.230469
40480,5.904101,11.291056,3.921702,34.515381,1.037598,27.587891,35.187500
40520,3.485958,9.720459,5.932832,-32.135010,-19.927979,9.155273,35.208984
40560,1.685518,11.803414,3.902549,-48.675537,-24.291992,-1.281738,35.199219
40600,2.470816,12.033257,2.341529,-1.159668,-10.711670,-18.920898,35.187500
40640,4.596867,8.317456,0.976834,-10.131836,-82.916260,-24.322510,35.199219
40680,4.721366,5.142745,1.225831,-13.458252,-50.567627,-44.372559,35.236328
40720,1.407791,3.643975,1.613692,-1.831055,-53.466797,-49.133301,35.234375
40760,0.248997,4.520253,1.029507,-25.207520,-9.704590,-12.390137,35.238281
40800,1.115698,7.675811,-1.163582,-5.249023,-16.540527,-1.678467,35.216797
40840,2.968810,10.304645,-1.091756,-12.420654,-39.184570,3.814697,35.248047
40880,5.999869,11.621455,-0.287304,-8.056641,-17.272949,-2.227783,35.240234
40920,5.626374,13.766660,-1.211466,-23.681641,-28.869629,-23.376465,35.238281
40960,3.931279,14.192827,2.145205,-11.138916,34.423828,-38.208008,35.242188
41000,0.579397,10.539276,4.855441,48.553467,12.786865,18.157959,35.267578
41040,1.795651,9.773131,5.793968,7.415771,-0.518799,20.233154,35.251953
41080,5.865794,9.706094,5.841852,56.335449,-53.192139,34.973145,35.265625
41120,5.224148,8.911219,3.112462,6.347656,45.532227,36.956787,35.236328
41160,1.374272,7.489063,-0.957681,7.904053,38.208008,31.799316,35.246094
41200,0.541090,5.166687,0.708684,-17.791748,66.192627,12.847900,35.244141
41240,1.920150,3.974375,0.708684,-24.902344,47.973633,-5.798340,35.240234
41280,4.228160,5.094861,0.316035,-2.441406,40.679932,-7.324219,35.238281
41320,5.487510,7.738060,0.215478,7.873535,28.198242,-8.514404,35.250000
41360,5.511452,10.237606,0.440533,1.647949,17.944336,-1.037598,35.253906
41400,6.718130,12.143391,-0.339977,14.160156,24.993896,13.214111,35.240234
41440,7.431602,12.483368,0.019154,54.901123,47.149658,30.059814,35.244141
41480,4.299986,11.027693,4.434062,18.646240,-8.728027,18.341064,35.236328
41520,2.834735,9.351752,5.511452,-41.198730,-22.430420,7.843018,35.236328
41560,1.968034,12.138602,4.017470,-62.713623,12.359619,-2.471924,35.259766
41600,2.983175,11.966220,2.054225,7.690430,-13.977051,-21.820068,35.234375
41640,4.788404,7.872135,0.770933,0.823975,-73.944092,-22.186279,35.253906
41680,4.204218,4.247314,1.398214,5.798340,-23.895264,-50.384521,35.238281
41720,0.641646,2.925714,1.493982,-29.693604,-74.645996,-42.999268,35.255859
41760,0.885855,5.176264,0.114922,-12.481689,-12.115479,-7.812500,35.228516
41800,1.642422,9.346964,-1.460463,-8.026123,-46.417236,-5.462646,35.238281
41840,4.390966,11.453861,-0.416591,-4.516602,-37.811279,2.716064,35.240234
41880,6.047753,13.029245,-0.766145,-15.991211,-26.153564,-14.862061,35.265625
41920,4.525041,13.594277,-1.072602,5.676270,-30.273438,-33.813477,35.255859
41960,1.484405,12.239159,4.395754,-4.974365,37.017822,-13.336182,35.263672
42000,0.325611,9.969456,5.482722,39.337158,3.540039,12.573242,35.255859
42040,4.031836,10.347740,5.928043,22.064209,-28.076172,24.993896,35.244141
42080,7.077260,9.428367,5.511452,52.337646,7.110596,45.776367,35.238281
42120,3.236961,8.762778,1.244985,-10.955811,64.422607,39.672852,35.250000
42160,0.052672,6.655881,-0.483629,6.072998,58.288574,31.982422,35.271484
42200,0.363919,4.390966,0.952892,-20.324707,77.667236,14.739990,35.271484
42240,2.509123,4.290410,0.608127,-3.021240,59.539795,0.579834,35.259766
42280,5.185841,6.224925,0.129287,-0.885010,49.102783,-8.850098,35.269531
42320,6.315904,8.657434,0.201113,8.178711,20.904541,-6.256104,35.259766
42360,6.004658,11.075577,0.459687,3.601074,23.498535,4.730225,35.273438
42400,7.211336,12.320562,-1.000776,34.088135,35.980225,15.808105,35.279297
42440,6.387730,11.750742,1.364695,49.468994,34.881592,30.212402,35.279297
42480,3.399766,9.284714,5.975927,8.728027,-16.479492,9.002686,35.250000
42520,2.973598,10.141838,5.023035,-62.927246,-21.972656,5.584717,35.267578
42560,2.767697,13.321339,3.236961,-44.464111,31.066895,-14.007568,35.271484
42600,3.916914,10.860099,1.115698,8.300781,-53.497314,-30.426025,35.257812
42640,5.171476,6.282385,0.991199,15.594482,-47.821045,-36.590576,35.298828
42680,2.379837,3.303998,1.886631,-14.038086,-32.196045,-62.164307,35.304688
42720,-0.316035,3.629610,1.719037,-41.595459,-65.612793,-27.618408,35.292969
42760,0.660800,6.914454,-1.024718,2.777100,-8.697510,-5.432129,35.310547
42800,2.322376,10.280702,-1.110910,-6.683350,-47.302246,1.251221,35.310547
42840,5.899313,11.798626,-0.205901,-0.518799,-31.829834,-0.305176,35.277344
42880,6.033388,13.833697,-1.106121,-8.483887,-9.613037,-24.078369,35.302734
42920,3.361459,14.566323,1.695095,-23.437500,52.551270,-48.614502,35.298828
42960,0.517148,10.903194,5.544971,34.759521,8.911133,15.319824,35.316406
43000,1.470040,9.739613,5.937620,29.327393,-16.693115,34.698486,35.314453
43040,5.894525,9.485827,6.196194,78.765869,-77.270508,46.966553,35.330078
43080,5.449203,8.681376,4.400543,27.221680,52.154541,35.247803,35.320312
43120,1.144428,7.307104,-0.766145,-6.652832,40.527344,31.860352,35.306641
43160,0.210690,4.697424,0.483629,-30.944824,61.370850,16.845703,35.296875
43200,1.699883,4.137180,0.282516,-20.965576,47.790527,-4.272461,35.296875
43240,4.501099,5.497087,0.282516,-0.152588,41.625977,-6.164551,35.298828
43280,5.841852,8.063671,0.445322,7.354736,25.268555,-8.178711,35.312500
43320,5.722142,10.591949,0.574608,11.016846,19.592285,-0.305176,35.320312
43360,7.024588,12.081141,-0.253785,20.446777,25.115967,14.068604,35.314453
43400,7.331046,12.172121,1.182736,37.536621,34.149170,30.212402,35.304688
43440,4.462792,10.515334,5.027823,14.648438,-19.378662,14.404297,35.335938
43480,2.662352,9.572019,4.979939,-37.750244,-31.433105,4.791260,35.310547
43520,1.752556,12.071565,3.854665,-59.295654,13.061523,-8.331299,35.308594
43560,3.447650,11.281479,1.623269,-6.866455,-34.362793,-26.397705,35.318359
43600,4.817134,7.469909,0.794875,3.082275,-73.089600,-34.515381,35.298828
43640,3.524265,3.979163,1.651999,-8.026123,-34.393311,-52.490234,35.316406
43680,0.598550,3.332729,1.412579,-33.355713,-60.119629,-40.557861,35.324219
43720,0.483629,5.908890,0.000000,-16.479492,-3.601074,-6.744385,35.318359
43760,1.527501,9.121908,-1.235408,1.312256,-36.682129,0.366211,35.298828
43800,3.787627,10.544065,-0.612916,-4.028320,-33.721924,-2.105713,35.328125
43840,5.755661,11.712435,-0.349553,-1.129150,-29.296875,-11.657715,35.310547
43880,4.797980,12.866440,-1.728614,9.582520,-53.344727,-14.953613,35.332031
43920,2.748544,12.301409,2.667141,6.042480,19.378662,-22.644043,35.337891
43960,0.306458,10.615891,6.220136,4.180908,10.772705,-1.373291,35.333984
44000,3.356671,11.042058,5.937620,24.688721,16.784668,23.468018,35.304688
44040,6.991069,10.520123,5.679047,45.227051,-12.481689,29.785156,35.337891
44080,3.921702,9.059659,2.303222,41.625977,33.813477,33.569336,35.328125
44120,0.081403,6.737284,0.234632,-7.995605,60.394287,34.332275,35.335938
44160,0.311246,4.644751,0.948104,-41.931152,74.798584,17.913818,35.320312
44200,3.016694,4.472369,0.512359,-40.924072,63.598633,1.464844,35.330078
44240,5.094861,6.220136,0.229843,-24.017334,45.349121,-3.051758,35.314453
44280,6.268020,8.901642,0.076614,-15.655518,17.150879,-3.265381,35.337891
44320,6.622362,12.076353,0.086191,12.176514,11.962891,0.732422,35.333984
44360,7.599196,12.612655,0.373495,48.034668,19.134521,11.535645,35.332031
44400,6.153099,11.286267,3.648763,43.304443,4.425049,22.888184,35.326172
44440,3.174711,9.873688,6.177041,3.997803,-17.486572,2.899170,35.349609
44480,1.436521,11.343728,5.128380,-31.005859,2.258301,-16.540527,35.337891
44520,1.254562,12.488156,3.830723,-50.292969,6.011963,-14.831543,35.318359
44560,4.548983,9.327810,1.249773,0.701904,-21.362305,-19.165039,35.343750
44600,4.668694,5.525817,1.168370,-19.470215,-1.800537,-44.189453,35.316406
44640,1.264138,3.318364,2.145205,-12.725830,-30.151367,-51.788330,35.367188
44680,-0.373495,4.199430,1.082179,-31.036377,-49.896240,-18.280029,35.386719
44720,1.082179,7.335834,-1.101333,24.017334,-27.770996,-1.861572,35.363281
44760,2.638410,10.572795,-0.311246,6.774902,-51.910400,4.241943,35.365234
44800,5.803545,12.478580,0.469264,10.894775,-37.445068,-8.087158,35.394531
44840,5.434838,13.795390,-0.636858,9.368896,-36.102295,-33.905029,35.382812
44880,2.662352,13.306973,1.637634,-16.937256,-0.518799,-19.561768,35.390625
44920,0.383072,10.524911,5.999869,14.160156,32.836914,13.641357,35.392578
44960,0.574608,9.428367,5.837064,24.658203,5.218506,19.348145,35.373047
45000,4.410120,9.859323,5.817910,63.934326,-108.123779,60.394287,35.386719
45040,6.689400,8.652645,5.425261,54.046631,61.492920,38.391113,35.378906
45080,1.853112,7.891289,0.507571,-19.866943,39.276123,22.979736,35.361328
45120,-0.296881,5.468357,-0.028730,-20.874023,63.690186,21.087646,35.382812
45160,0.895431,4.228160,0.569820,-32.257080,67.474365,2.624512,35.380859
45200,3.782839,5.118803,0.263362,-14.556885,50.415039,-7.568359,35.388672
45240,6.153099,7.388506,0.440533,1.953125,21.820068,-10.223389,35.378906
45280,6.421249,9.782708,0.694318,10.498047,10.223389,-1.373291,35.369141
45320,6.215348,12.234370,0.225055,16.967773,24.688721,4.943848,35.392578
45360,7.091625,13.201628,0.373495,37.811279,34.271240,14.495850,35.373047
45400,5.650316,11.990162,3.840300,30.670166,-11.871338,11.169434,35.386719
45440,3.576937,9.078813,5.635951,-13.916016,-29.205322,3.295898,35.410156
45480,1.642422,9.806650,4.558560,-58.807373,-15.136719,-5.065918,35.392578
45520,1.910573,11.104307,3.064578,-30.975342,-5.493164,-16.021729,35.390625
45560,3.629610,8.839393,1.139640,-1.800537,-65.490723,-24.108887,35.382812
45600,4.419696,5.597643,1.067814,-13.275146,-27.191162,-41.534424,35.386719
45640,1.843535,3.797204,1.671153,-1.708984,-29.296875,-51.116943,35.380859
45680,0.277727,4.639963,1.201889,-35.552979,-34.820557,-14.221191,35.402344
45720,1.345541,7.704541,-0.847547,-2.227783,-13.061523,0.915527,35.400391
45760,2.619257,10.323798,-0.541090,-4.669189,-36.376953,-1.708984,35.396484
45800,5.367800,11.942278,0.387861,-13.580322,-23.010254,-12.115479,35.402344
45840,5.956774,14.413095,0.397437,-34.271240,12.969971,-46.813965,35.404297
45880,3.892972,15.442601,3.658340,-72.723389,92.681885,-53.558350,35.402344
45920,-0.531513,9.581595,4.118027,60.089111,11.505127,36.590576,35.400391
45960,-0.732626,8.465898,5.693412,3.204346,-20.874023,22.949219,35.396484
46000,4.070143,9.021352,6.847417,100.769043,-140.502930,64.392090,35.396484
46040,6.124368,8.734048,5.372589,75.439453,34.515381,44.555664,35.406250
46080,2.097321,7.469909,0.023942,-1.403809,14.739990,32.470703,35.392578
46120,0.445322,4.568137,0.316035,-36.224365,61.218262,25.268555,35.400391
46160,1.379060,3.926491,0.378284,-46.661377,45.989990,1.281738,35.402344
46200,4.060566,5.257667,0.430956,-15.960693,32.531738,-6.225586,35.402344
46240,5.717354,8.063671,1.029507,-18.920898,23.193359,-2.746582,35.376953
46280,5.980716,11.372458,0.737414,3.753662,16.204834,1.525879,35.414062
46320,7.402872,12.646173,0.842759,15.441895,17.395020,9.155273,35.386719
46360,7.785944,12.234370,2.873042,26.977539,13.427734,22.338867,35.376953
46400,5.339070,10.879252,5.257667,13.183594,-1.495361,11.779785,35.402344
46440,1.814805,9.897630,4.678270,33.233643,-20.721436,-13.549805,35.402344
46480,-0.272939,11.722012,4.802769,-64.636230,8.972168,-11.047363,35.414062
46520,2.647987,10.716447,2.202666,-55.755615,-37.078857,-12.390137,35.439453
46560,4.912902,7.307104,1.149217,-6.774902,11.016846,-36.529541,35.445312
46600,2.317587,4.323928,1.977611,-10.925293,1.586914,-49.163818,35.419922
46640,-0.531513,3.921702,1.666364,-18.920898,-41.015625,-33.782959,35.449219
46680,0.746991,5.789180,0.158017,-7.904053,-8.850098,-5.432129,35.429688
46720,2.446874,8.906430,-0.675165,15.869141,-37.048340,-1.342773,35.439453
46760,4.683059,11.745954,0.593762,9.460449,-42.785645,-5.676270,35.458984
46800,5.262455,14.044387,0.368707,14.099121,-13.610840,-34.973145,35.462891
46840,3.256114,14.408306,0.545878,-18.463135,-11.138916,-31.921387,35.439453
46880,1.781286,12.387600,4.999093,-20.446777,59.417725,-8.575439,35.439453
46920,-0.320823,8.786720,5.923255,52.429199,21.850586,33.050537,35.445312
46960,1.685518,8.786720,6.138733,19.897461,-70.343018,45.928955,35.453125
47000,6.239290,8.508993,6.607996,89.599609,-56.274414,62.225342,35.441406
47040,4.323928,8.183381,3.342306,43.609619,17.700195,14.251709,35.447266
47080,0.550666,6.612785,-0.952892,-8.422852,36.682129,25.604248,35.458984
47120,0.541090,4.788404,0.857124,-40.832520,72.326660,13.427734,35.437500
47160,2.341529,4.673482,0.450110,-9.368896,49.743652,-2.471924,35.441406
47200,4.678270,6.378153,0.421380,0.488281,43.579102,-6.256104,35.451172
47240,5.813122,8.719683,0.560243,8.026123,30.609131,-5.340576,35.449219
47280,5.827487,11.276690,0.263362,6.500244,25.482178,3.692627,35.451172
47320,6.794744,12.631808,0.301669,22.766113,33.386230,19.897461,35.439453
47360,6.718130,13.048399,3.165135,5.584717,11.840820,24.353027,35.451172
47400,5.166687,10.697293,5.315128,0.457764,-17.150879,8.911133,35.435547
47440,1.848324,9.203311,4.759673,9.185791,-13.000488,-2.685547,35.478516
47480,0.387861,10.783484,4.247314,-38.391113,-8.026123,-5.432129,35.445312
47520,3.236961,9.974244,2.293645,-29.235840,-32.653809,-16.540527,35.453125
47560,5.152322,7.091625,0.799663,-5.249023,-54.016113,-20.172119,35.445312
47600,3.749320,4.510676,1.599327,-8.636475,-0.488281,-64.270020,35.431641
47640,0.210690,3.720589,1.810017,-22.918701,-60.974121,-33.691406,35.476562
47680,0.612916,5.712565,0.287304,-12.268066,-4.547119,-2.655029,35.445312
47720,1.872266,9.002198,-1.058237,9.155273,-30.059814,3.845215,35.447266
47760,3.672705,11.070788,0.421380,-12.359619,-41.961670,0.061035,35.435547
47800,5.731719,12.483368,0.378284,-8.209229,-18.920898,-19.287109,35.460938
47840,4.788404,13.565547,-1.244985,8.850098,-47.729492,-22.308350,35.462891
47880,2.686294,12.722788,2.609680,22.583008,-3.662109,-10.009766,35.478516
47920,0.766145,9.753978,5.889736,35.430908,6.744385,12.390137,35.480469
47960,2.298434,9.423578,5.612009,26.031494,-7.049561,11.260986,35.462891
48000,6.258443,9.677363,5.415684,47.607422,-68.328857,44.128418,35.458984
48040,5.928043,9.169792,3.481169,-7.995605,69.458008,37.384033,35.445312
48080,1.130063,7.632715,-0.713472,23.956299,34.393311,35.949707,35.451172
48120,-0.344765,5.305551,0.928950,-3.570557,66.558838,18.615723,35.462891
48160,1.474828,4.357447,0.718261,-2.044678,68.603516,2.532959,35.455078
48200,4.505888,5.444415,0.019154,-8.209229,54.443359,-7.324219,35.455078
48240,6.435614,7.417237,-0.110133,4.882812,22.003174,-6.164551,35.458984
48280,5.813122,9.600749,0.871489,-2.197266,11.901855,2.532959,35.464844
48320,6.014235,11.951855,0.081403,4.974365,28.045654,10.162354,35.480469
48360,6.866570,12.665327,-1.450886,47.637939,46.081543,18.188477,35.494141
48400,5.363012,11.243171,2.140416,62.927246,7.720947,20.324707,35.490234
48440,3.160346,8.480263,6.129156,-20.446777,-5.187988,3.387451,35.480469
48480,2.753332,10.184934,4.505888,-58.776855,-10.955811,2.044678,35.484375
48520,3.399766,12.607866,2.308010,-26.519775,18.310547,-17.028809,35.507812
48560,4.280833,9.605537,0.737414,-5.798340,-53.131104,-27.648926,35.494141
48600,4.802769,5.228937,1.067814,4.943848,-40.069580,-39.062500,35.500000
48640,1.934515,2.930503,2.059013,-35.644531,-44.525146,-51.330566,35.482422
48680,0.675165,4.232949,0.905008,-38.482666,-5.218506,-19.744873,35.494141
48720,1.747767,8.518570,-1.647211,-9.826660,-14.648438,-8.789062,35.488281
48760,3.452439,11.267113,-0.373495,-9.307861,-48.736572,-5.218506,35.498047
48800,6.100426,12.631808,0.067038,-4.547119,-26.519775,-7.568359,35.494141
48840,5.046977,14.513651,-0.052672,-18.432617,8.270264,-44.799805,35.498047
48880,2.571373,13.541605,4.309563,-26.245117,66.833496,-35.736084,35.492188
48920,-0.172383,9.452309,5.980716,65.979004,21.881104,29.815674,35.511719
48960,2.126051,9.169792,5.736507,27.374268,-55.297852,40.313721,35.488281
49000,6.569689,8.633492,6.880936,87.585449,-45.257568,53.100586,35.515625
49040,4.386178,8.494628,3.275268,1.586914,20.263672,25.207520,35.496094
49080,0.895431,6.698977,-1.264138,-22.094727,38.665771,25.421143,35.496094
49120,0.857124,4.362236,0.244209,-41.900635,64.971924,9.582520,35.501953
49160,2.580950,4.400543,-0.047884,-15.716553,36.529541,-8.453369,35.501953
49200,5.018247,6.200983,0.335188,-1.525879,23.132324,-10.620117,35.498047
49240,5.947197,8.686164,0.536301,13.031006,5.676270,-8.605957,35.521484
49280,6.354211,11.176133,0.761356,11.291504,16.998291,6.927490,35.519531
49320,7.872135,12.196063,0.110133,27.465820,16.418457,17.700195,35.503906
49360,6.799533,12.033257,2.686294,42.205811,-0.396729,27.740479,35.511719
49400,3.643975,9.844957,5.765238,-4.852295,-26.641846,11.138916,35.486328
49440,1.230620,10.812215,4.505888,-49.713135,-23.162842,1.220703,35.505859
49480,1.197101,12.981361,2.786851,-30.975342,4.241943,-13.732910,35.511719
49520,3.572149,10.026917,1.163582,-2.288818,-52.734375,-26.397705,35.496094
49560,4.893748,5.602432,0.981623,-10.833740,-44.616699,-26.947021,35.519531
49600,2.820370,2.892196,1.709460,-12.756348,-14.923096,-58.593750,35.515625
49640,-0.296881,3.931279,1.331176,-38.299561,-33.233643,-37.994385,35.498047
49680,0.723049,7.211336,-0.828394,-16.265869,-10.772705,-2.044678,35.515625
49720,2.394202,10.740389,-0.421380,-2.746582,-45.654297,-0.061035,35.527344
49760,5.348647,12.435484,0.258574,-2.838135,-32.623291,-2.227783,35.537109
49800,5.487510,13.819332,-0.751779,-3.265381,-28.137207,-22.827148,35.537109
49840,3.169923,13.790602,1.728614,-2.105713,8.880615,-29.663086,35.533203
49880,0.818817,10.802638,5.516241,28.991699,19.592285,7.995605,35.531250
49920,1.101333,9.500193,5.664681,30.548096,6.469727,20.355225,35.517578
49960,5.046977,9.691729,5.899313,62.438965,-99.090576,46.173096,35.527344
50000,6.296751,8.690952,4.999093,51.849365,35.491943,30.212402,35.539062
50040,1.766921,7.929596,-0.387861,-15.319824,29.937744,28.228760,35.544922
50080,0.316035,5.310339,0.378284,-21.453857,63.720703,19.378662,35.546875
50120,1.383849,3.988740,0.512359,-31.616211,55.114746,5.096436,35.539062
50160,3.471592,5.008670,-0.090980,-2.258301,48.522949,-4.028320,35.544922
50200,5.458780,7.326257,0.253785,-0.488281,27.282715,-5.493164,35.546875
50240,6.066907,10.007763,0.727837,3.601074,15.350342,1.586914,35.546875
50280,7.225701,12.272678,0.210690,9.338379,24.383545,12.908936,35.531250
50320,7.915231,12.713211,1.244985,32.592773,22.766113,28.503418,35.542969
50360,5.396531,11.559206,4.649539,24.566650,-16.784668,19.592285,35.521484
50400,2.868254,9.782708,5.257667,-3.509521,-4.760742,1.525879,35.544922
50440,0.718261,11.741165,4.185065,-57.800293,13.977051,-8.880615,35.537109
50480,2.772485,10.898406,1.723825,-25.207520,-31.524658,-18.646240,35.509766
50520,5.085284,7.187394,0.641646,-0.244141,-42.510986,-22.613525,35.535156
50560,3.955221,3.964798,1.580173,-38.482666,19.348145,-61.706543,35.527344
50600,0.201113,3.323152,2.063802,-32.623291,-53.710938,-52.307129,35.556641
50640,0.277727,5.784391,0.272939,-14.312744,-17.974854,-4.455566,35.517578
50680,2.149993,9.308656,-1.216254,8.300781,-41.961670,-2.197266,35.542969
50720,4.539406,11.602302,0.363919,-8.972168,-43.762207,1.586914,35.542969
50760,6.114791,13.374011,-0.110133,3.997803,-22.277832,-20.172119,35.537109
50800,4.146757,14.092271,0.086191,-2.258301,-16.510010,-41.931152,35.558594
50840,1.465251,12.052411,4.754885,-0.640869,41.778564,-5.981445,35.527344
50880,0.196325,9.222465,5.947197,54.901123,17.608643,28.869629,35.523438
50920,3.260903,9.615114,5.789180,32.012939,-61.553955,35.339355,35.544922
50960,6.919243,8.753201,6.607996,60.852051,5.554199,49.774170,35.542969
51000,3.481169,8.389283,1.958457,-22.491455,35.247803,19.958496,35.556641
51040,0.646434,6.540959,-0.814029,-6.530762,51.055908,25.817871,35.562500
51080,1.077391,4.678270,0.416591,-14.648438,66.131592,7.293701,35.550781
51120,3.031059,4.548983,0.478840,-15.563965,53.466797,-6.896973,35.566406
51160,5.224148,6.368577,0.454898,1.495361,37.506104,-5.950928,35.560547
51200,5.875371,9.045294,0.593762,4.699707,19.927979,-0.183105,35.560547
51240,6.110003,11.812991,0.469264,5.798340,30.670166,12.542725,35.544922
51280,7.560889,12.478580,0.148441,31.799316,35.369873,27.374268,35.556641
51320,5.573701,11.654974,3.663129,26.397705,-13.824463,24.505615,35.562500
51360,3.078943,9.624691,5.822699,-12.359619,-26.153564,3.997803,35.541016
51400,1.527501,11.003751,5.185841,-57.708740,-16.662598,-5.584717,35.566406
51440,2.240973,12.267890,3.361459,-20.355225,3.753662,-17.303467,35.542969
51480,4.089296,9.112331,1.259350,-5.249023,-48.339844,-30.212402,35.556641
51520,4.596867,5.324705,1.470040,-12.756348,3.936768,-44.677734,35.542969
51560,1.359907,3.251326,1.714248,-9.185791,-35.369873,-58.410645,35.583984
51600,-0.158017,4.429273,1.149217,-40.161133,-16.540527,-17.089844,35.589844
51640,1.393425,7.829040,-0.914585,11.108398,-17.364502,-6.469727,35.562500
51680,3.289633,10.654198,-0.359130,-0.030518,-42.236328,1.892090,35.587891
51720,6.651093,12.445061,0.675165,6.164551,-9.948730,-13.427734,35.619141
51760,5.588067,13.795390,-1.015141,-0.549316,-38.391113,-39.093018,35.587891
51800,2.355895,12.243947,1.273715,11.718750,-12.481689,-12.084961,35.611328
51840,-0.186748,9.816227,7.072472,3.479004,33.081055,13.061523,35.593750
51880,1.431733,10.093954,6.397307,39.428711,34.393311,20.172119,35.611328
51920,5.046977,10.438720,5.827487,49.621582,-103.759766,49.499512,35.595703
51960,5.702989,9.050082,4.759673,50.384521,24.475098,31.219482,35.609375
52000,1.872266,7.374141,0.363919,-6.011963,14.984131,25.177002,35.605469
52040,0.124498,5.142745,0.550666,-27.130127,62.438965,25.177002,35.597656
52080,1.067814,5.066131,0.560243,-36.560059,53.924561,3.204346,35.634766
52120,3.691859,5.693412,-0.263362,2.563477,47.790527,-0.793457,35.605469
52160,5.358223,7.278373,0.727837,4.516602,29.663086,-4.180908,35.601562
52200,5.722142,9.835381,1.273715,-5.950928,23.681641,-0.274658,35.615234
52240,6.976704,11.937490,0.119710,13.183594,28.350830,13.427734,35.595703
52280,7.149086,11.942278,-0.191536,52.001953,30.517578,22.735596,35.613281
52320,3.610456,10.773908,4.352659,43.579102,-8.361816,9.979248,35.601562
52360,2.686294,9.136273,6.373365,-45.532227,-18.188477,4.791260,35.609375
52400,2.236184,11.669339,4.955997,-74.676514,13.153076,-4.547119,35.630859
52440,2.312799,12.885593,2.226608,0.152588,2.075195,-20.599365,35.601562
52480,4.611232,9.308656,0.718261,18.707275,-58.013916,-14.770508,35.611328
52520,4.649539,5.204995,1.867477,-10.955811,17.089844,-55.450439,35.609375
52560,0.857124,3.045424,2.652776,-23.742676,-52.307129,-44.586182,35.625000
52600,-0.052672,4.156334,1.288081,-21.301270,-33.538818,-15.655518,35.605469
52640,1.249773,7.618350,-1.359907,3.387451,-19.897461,-1.068115,35.603516
52680,3.078943,10.539276,-0.272939,-6.835938,-38.452148,16.754150,35.632812
52720,6.454768,12.813767,0.373495,3.540039,-14.617920,-13.793945,35.615234
52760,5.415684,14.020445,-0.450110,-6.256104,-32.623291,-49.011230,35.626953
52800,2.585738,13.417107,3.150769,-7.049561,31.494141,-22.003174,35.623047
52840,-0.014365,10.103531,5.736507,53.344727,23.284912,26.763916,35.603516
52880,0.497994,9.907207,5.391742,0.610352,-7.568359,17.791748,35.601562
52920,4.941632,9.533711,5.937620,70.709229,-127.410889,64.544678,35.615234
52960,6.306327,8.571242,5.310339,57.952881,63.934326,28.045654,35.609375
53000,1.177947,7.398083,-0.746991,-22.033691,27.709961,24.566650,35.615234
53040,0.129287,5.238513,0.047884,-23.315430,68.145752,19.256592,35.609375
53080,2.015918,4.232949,0.349553,-36.621094,49.865723,-2.593994,35.607422
53120,4.525041,5.463568,-0.062249,-7.720947,30.761719,-9.765625,35.626953
53160,5.951985,7.637504,0.517148,1.251221,15.533447,-5.371094,35.609375
53200,5.722142,10.213664,0.895431,-1.647949,11.444092,4.699707,35.628906
53240,6.354211,12.373235,-0.100556,24.047852,24.108887,10.925293,35.619141
53280,6.967127,12.421119,0.694318,48.217773,27.832031,23.345947,35.603516
53320,4.716578,11.099519,4.572925,38.482666,-14.007568,12.084961,35.619141
53360,2.863465,9.356541,5.506664,-33.782959,-19.287109,5.187988,35.609375
53400,1.096544,11.669339,4.209007,-49.987793,-0.823975,-6.347656,35.626953
53440,2.336741,11.683704,2.059013,-8.972168,-13.702393,-22.766113,35.615234
53480,4.721366,7.977480,0.565032,2.624512,-74.401855,-24.322510,35.626953
53520,4.601655,4.625597,1.470040,-21.057129,6.439209,-49.560547,35.642578
53560,0.742203,3.380613,1.958457,-14.587402,-46.051025,-39.215088,35.632812
53600,0.421380,5.473145,0.373495,-18.188477,-3.051758,-5.523682,35.664062
53640,1.628057,8.839393,-1.335965,12.695312,-20.843506,0.305176,35.642578
53680,3.366248,10.682928,-0.134075,-11.505127,-40.710449,6.103516,35.650391
53720,6.090849,12.081141,-0.023942,-14.923096,-16.113281,-11.047363,35.667969
53760,5.406107,13.579912,-1.479617,7.202148,-37.872314,-22.491455,35.648438
53800,3.088520,12.727576,2.015918,30.548096,-1.190186,-7.476807,35.667969
53840,0.799663,10.141838,5.717354,41.290283,11.444092,13.946533,35.660156
53880,2.169147,9.979033,5.176264,27.526855,-13.214111,10.009766,35.642578
53920,6.502652,10.113108,5.238513,41.748047,-64.208984,31.524658,35.630859
53960,5.779603,9.327810,3.213019,-33.172607,47.698975,30.151367,35.662109
54000,0.919373,7.546524,-0.861913,7.659912,34.088135,26.580811,35.660156
54040,-0.081403,4.687847,0.785298,-32.043457,56.793213,13.244629,35.650391
54080,1.623269,3.816358,0.493206,-26.306152,53.344727,-3.112793,35.673828
54120,4.242526,5.492299,-0.095768,-13.458252,42.938232,-8.300781,35.660156
54160,6.066907,7.819463,0.416591,-6.164551,10.467529,-3.967285,35.673828
54200,5.980716,10.611102,0.756568,-2.105713,11.322021,7.049561,35.666016
54240,6.718130,12.947843,-0.483629,28.747559,26.000977,8.789062,35.673828
54280,7.120356,12.876017,0.363919,61.218262,30.395508,22.857666,35.667969
54320,4.726154,10.323798,4.774038,34.484863,-18.981934,14.221191,35.683594
54360,2.863465,8.729259,5.406107,-45.318604,-28.717041,5.249023,35.658203
54400,1.455675,11.880029,3.916914,-52.795410,8.728027,-2.990723,35.671875
54440,2.643199,11.726800,1.900996,-6.225586,-25.817871,-20.111084,35.677734
54480,5.300763,7.714118,0.742203,-3.234863,-59.356689,-20.141602,35.658203
54520,4.697424,4.390966,1.058237,-34.393311,9.979248,-60.638428,35.669922
54560,1.048660,3.088520,1.819593,-18.402100,-51.025391,-47.943115,35.658203
54600,0.320823,5.147533,0.009577,-14.587402,-25.756836,-11.383057,35.681641
54640,1.656788,9.332599,-1.302446,-10.772705,-47.180176,-7.110596,35.683594
54680,4.290410,11.784261,0.225055,-11.810303,-39.276123,-8.148193,35.664062
54720,6.335058,13.129802,-0.579397,5.859375,-29.174805,-14.404297,35.671875
54760,4.831499,13.326127,-0.780510,17.822266,-40.130615,-20.843506,35.654297
54800,1.278504,11.722012,4.299986,8.483887,40.283203,5.828857,35.656250
54840,-0.172383,9.988609,6.148310,58.013916,-0.457764,26.000977,35.664062
54880,3.399766,11.070788,5.415684,34.637451,-71.228027,34.820557,35.664062
54920,8.106767,9.682152,5.506664,42.449951,5.859375,47.882080,35.681641
54960,3.529053,8.532935,0.019154,-16.754150,50.598145,32.897949,35.681641
55000,-0.129287,5.827487,-0.114922,1.495361,52.917480,23.651123,35.677734
55040,0.258574,3.749320,0.957681,-47.637939,66.131592,6.164551,35.669922
55080,2.887407,4.515464,0.186748,-25.238037,54.962158,-3.936768,35.681641
55120,5.568913,6.799533,0.033519,-3.540039,33.569336,-6.591797,35.658203
55160,6.330269,9.639056,0.359130,6.195068,3.723145,-0.854492,35.669922
55200,6.852205,12.234370,0.014365,13.793945,16.510010,7.843018,35.652344
55240,7.651869,12.598289,0.177171,48.706055,28.686523,20.141602,35.685547
55280,5.597643,11.530476,3.706224,40.924072,3.417969,20.599365,35.667969
55320,3.236961,9.768343,5.544971,-12.634277,-7.293701,3.295898,35.691406
55360,0.986411,12.167333,4.132392,-47.485352,5.706787,-3.723145,35.687500
55400,1.810017,12.095507,2.389413,-21.453857,-11.779785,-24.200439,35.693359
55440,4.438850,7.465121,1.278504,-31.646729,-46.112061,-23.956299,35.691406
55480,4.783615,3.912126,0.857124,-20.050049,9.857178,-42.510986,35.687500
55520,1.441309,3.035848,1.302446,-37.628174,-7.904053,-65.795898,35.679688
55560,0.076614,5.391742,0.244209,-41.625977,19.287109,-14.129639,35.712891
55600,1.474828,9.265560,-1.091756,-0.122070,-31.372070,-5.126953,35.726562
55640,4.548983,11.559206,0.033519,17.883301,-43.121338,8.331299,35.691406
55680,6.133945,13.417107,0.110133,6.835938,-13.519287,-16.906738,35.701172
55720,3.816358,15.107412,1.101333,-35.064697,32.775879,-64.514160,35.707031
55760,0.928950,12.689269,4.903325,0.213623,47.546387,-0.488281,35.701172
55800,-0.239420,9.208099,5.679047,54.351807,22.583008,30.670166,35.699219
55840,2.834735,8.892065,6.172252,32.531738,-111.816406,63.446045,35.712891
55880,7.517793,8.264784,6.694188,88.195801,-8.117676,47.454834,35.716797
55920,3.974375,8.307879,2.408567,-20.019531,16.143799,11.932373,35.722656
55960,0.780510,6.368577,-0.756568,3.112793,32.104492,22.552490,35.703125
56000,0.622492,3.916914,0.785298,-32.104492,59.661865,9.643555,35.703125
56040,1.867477,4.242526,0.186748,-12.237549,37.384033,-8.605957,35.726562
56080,4.592079,6.143522,0.521936,-7.537842,29.052734,-6.652832,35.726562
56120,5.928043,9.016563,0.818817,2.105713,11.596680,-0.122070,35.726562
56160,6.430826,11.884817,0.397437,8.605957,19.042969,11.718750,35.724609
56200,7.699753,12.660539,-0.311246,46.722412,25.390625,25.268555,35.720703
56240,6.004658,12.167333,3.122039,53.680420,8.941650,27.709961,35.720703
56280,3.303998,9.758766,6.042965,10.406494,-16.143799,8.148193,35.722656
56320,1.728614,10.754754,4.946421,-56.488037,-11.505127,-1.708984,35.708984
56360,1.819593,12.497733,3.035848,-23.925781,15.350342,-15.289307,35.712891
56400,4.266468,9.433155,0.995988,-3.936768,-60.485840,-17.395020,35.722656
56440,5.640739,5.592855,0.957681,-21.881104,-2.288818,-34.271240,35.734375
56480,2.149993,3.040636,1.704672,-22.552490,-14.160156,-68.115234,35.736328
56520,-0.272939,3.399766,1.043872,-42.877197,-28.106689,-20.141602,35.736328
56560,1.474828,7.297527,-1.134852,-6.164551,-18.249512,-4.699707,35.736328
56600,3.160346,10.817003,-0.258574,3.723145,-50.842285,-1.098633,35.730469
56640,5.827487,12.804191,0.272939,2.166748,-36.682129,-8.270264,35.738281
56680,5.750873,13.766660,-1.173159,3.875732,-45.135498,-22.216797,35.730469
56720,3.299210,12.401965,0.952892,24.536133,-27.008057,-5.462646,35.728516
56760,0.038307,10.577583,6.770802,13.824463,25.756836,0.976562,35.748047
56800,1.527501,10.093954,5.741296,55.603027,-9.246826,13.549805,35.726562
56840,6.282385,10.453085,5.655105,56.243896,-78.155518,48.004150,35.742188
56880,6.603208,9.241618,3.897760,-11.199951,43.304443,28.900146,35.732422
56920,1.508347,7.800309,-0.584185,6.591797,31.280518,27.252197,35.710938
56960,-0.081403,4.697424,0.679953,-3.662109,61.676025,24.536133,35.746094
57000,1.106121,3.624821,0.703895,-23.498535,61.431885,10.040283,35.746094
57040,3.313575,5.281609,-0.081403,-9.490967,58.868408,-8.880615,35.746094
57080,6.038177,7.551312,0.148441,5.645752,23.406982,-4.272461,35.728516
57120,6.392519,10.390836,0.646434,2.288818,18.829346,3.570557,35.755859
57160,7.086837,12.765883,-0.124498,24.505615,29.205322,13.000488,35.740234
57200,7.182605,13.134590,2.446874,19.958496,24.383545,33.294678,35.736328
57240,5.281609,11.540052,4.874595,10.314941,-14.801025,6.927490,35.750000
57280,2.140416,10.199299,4.979939,-6.927490,13.519287,-5.645752,35.746094
57320,0.718261,11.769896,3.912126,-27.709961,5.371094,-9.246826,35.746094
57360,3.830723,9.849746,1.647211,-44.555664,-43.518066,-22.888184,35.750000
57400,5.923255,6.090849,0.857124,-1.892090,5.218506,-31.280518,35.740234
57440,3.275268,3.543418,1.201889,-23.925781,3.906250,-69.519043,35.732422
57480,-0.656011,3.462016,1.345541,-31.188965,-37.597656,-40.802002,35.751953
57520,0.770933,6.641516,-0.881066,-5.432129,-0.793457,-3.479004,35.765625
57560,2.868254,10.237606,-0.617704,10.192871,-45.379639,-2.777100,35.759766
57600,5.568913,12.315774,0.550666,11.291504,-33.020020,-3.204346,35.755859
57640,5.971139,13.670892,-0.981623,12.847900,-34.118652,-17.028809,35.783203
57680,3.529053,12.943054,0.186748,16.571045,-34.454346,-17.486572,35.777344
57720,0.402226,10.630256,6.636727,-1.159668,27.069092,-3.387451,35.767578
57760,1.450886,9.749189,6.066907,52.185059,-9.735107,19.866943,35.767578
57800,5.861006,10.620679,5.884948,57.525635,-67.901611,45.013428,35.761719
57840,7.067683,9.102755,5.114015,26.428223,33.966064,42.327881,35.763672
57880,1.833959,7.958326,-0.378284,-17.364502,34.179688,29.693604,35.781250
57920,-0.363919,5.315128,0.052672,-4.577637,63.262939,23.345947,35.779297
57960,0.344765,3.907337,0.565032,-16.967773,66.619873,0.732422,35.771484
58000,3.385401,4.999093,0.378284,-5.004883,57.220459,-11.871338,35.753906
58040,6.306327,7.297527,0.517148,3.356934,23.742676,-7.476807,35.785156
58080,6.445191,10.204087,0.622492,4.028320,14.709473,2.380371,35.771484
58120,6.794744,12.469003,-0.368707,18.432617,17.517090,8.636475,35.785156
58160,7.187394,12.746730,0.852336,36.224365,31.311035,29.571533,35.769531
58200,4.740520,11.180922,4.711789,18.890381,-18.524170,14.099121,35.783203
58240,3.141193,9.284714,5.439626,-18.371582,-23.071289,6.347656,35.765625
58280,1.819593,11.544841,4.616021,-48.889160,-4.577637,-6.164551,35.789062
58320,2.753332,11.204864,2.149993,-16.174316,-25.665283,-25.604248,35.773438
58360,4.884171,7.316680,0.469264,-11.535645,-62.927246,-22.766113,35.783203
58400,4.711789,3.835511,1.474828,-43.243408,17.883301,-60.821533,35.765625
58440,0.881066,2.997540,1.738190,-43.975830,-34.179688,-48.767090,35.781250
58480,0.785298,5.650316,-0.402226,-13.854980,-10.620117,-13.427734,35.781250
58520,1.632846,9.639056,-0.617704,10.803223,-35.125732,-11.108398,35.781250
58560,4.194642,11.832145,0.598550,0.549316,-35.034180,-2.044678,35.769531
58600,6.291962,13.599066,0.263362,-1.129150,-6.347656,-27.984619,35.769531
58640,5.003881,15.131354,1.513135,-38.970947,32.196045,-71.166992,35.765625
58680,1.647211,12.066776,4.740520,12.023926,42.663574,3.753662,35.789062
58720,-0.751779,8.279149,4.946421,36.590576,13.854980,28.015137,35.791016
58760,2.059013,8.216900,5.540183,21.087646,-90.850830,52.246094,35.771484
58800,6.569689,8.820239,6.598420,90.881348,-43.426514,55.419922,35.804688
58840,4.395754,8.580819,3.208230,28.076172,0.335693,12.847900,35.775391
58880,0.885855,6.229713,-0.708684,-25.726318,32.470703,25.939941,35.792969
58920,0.679953,4.333505,0.536301,-46.417236,67.565918,13.305664,35.789062
58960,2.207454,4.778827,0.076614,-36.010742,37.536621,-7.476807,35.777344
59000,5.209783,6.818686,0.344765,-14.709473,23.986816,-6.011963,35.806641
59040,6.325481,9.543288,0.986411,-1.251221,20.935059,6.347656,35.787109
59080,6.727707,12.488156,0.847547,3.479004,19.866943,10.620117,35.792969
59120,7.723695,12.349293,0.512359,36.865234,16.906738,15.502930,35.791016
59160,6.167464,11.367670,3.145981,64.208984,-10.284424,14.068604,35.798828
59200,3.303998,9.208099,6.354211,4.180908,-27.740479,7.537842,35.787109
59240,1.139640,10.625467,4.812346,-29.815674,-3.540039,-1.342773,35.781250
59280,0.435745,12.263102,3.232172,-19.866943,15.167236,-13.305664,35.779297
59320,2.901772,8.872911,1.431733,-8.087158,-24.475098,-22.979736,35.769531
59360,4.884171,4.807557,0.876278,-34.210205,-2.868652,-32.348633,35.789062
59400,2.868254,3.323152,1.719037,-42.449951,26.062012,-56.213379,35.804688
59440,0.306458,5.147533,0.718261,-29.907227,-0.823975,-22.888184,35.804688
59480,0.981623,8.240842,-0.933739,6.469727,-17.730713,3.143311,35.833984
59520,2.600103,10.840945,-0.478840,33.294678,-51.177979,8.697510,35.818359
59560,5.525817,12.464214,0.627281,17.242432,-32.714844,1.007080,35.814453
59600,5.037400,13.785813,-0.062249,5.004883,-21.484375,-24.078369,35.800781
59640,2.308010,13.776237,2.667141,-18.646240,31.799316,-24.200439,35.824219
59680,-0.612916,10.572795,5.453991,40.130615,14.190674,19.836426,35.824219
59720,0.900220,9.006987,5.133168,38.543701,7.415771,36.315918,35.814453
59760,5.607220,9.284714,5.889736,71.594238,-96.771240,67.413330,35.835938
59800,6.914454,8.690952,5.875371,28.839111,69.519043,28.411865,35.820312
59840,1.441309,8.154651,-0.995988,-17.303467,35.430908,25.848389,35.833984
59880,0.196325,5.444415,-0.071826,-10.498047,78.308105,20.141602,35.818359
59920,1.235408,4.228160,0.363919,-14.404297,60.394287,-4.669189,35.826172
59960,4.027047,5.295974,0.225055,-3.204346,39.642334,-10.284424,35.839844
60000,6.210559,7.541735,0.646434,8.789062,14.739990,-6.591797,35.826172
60040,5.904101,10.319010,0.871489,12.451172,18.615723,0.823975,35.824219
60080,6.200983,12.129025,0.138864,15.899658,24.108887,5.554199,35.837891
60120,6.900089,12.708423,0.957681,40.405273,31.585693,23.315430,35.814453
60160,4.649539,11.382035,4.414908,30.151367,-11.230469,12.176514,35.828125
60200,2.590526,9.265560,5.358223,-21.423340,-21.240234,-0.091553,35.822266
60240,1.206678,10.927136,4.869806,-49.926758,4.852295,-3.845215,35.837891
60280,2.317587,11.291056,2.499547,-21.423340,-5.401611,-22.552490,35.841797
60320,4.635174,7.996634,1.086968,-22.552490,-39.154053,-24.414062,35.814453
60360,4.357447,5.023035,1.230620,-30.822754,-3.875732,-50.109863,35.830078
60400,1.623269,3.471592,1.197101,-21.209717,-18.402100,-45.654297,35.832031
60440,1.010353,4.893748,0.076614,-27.099609,-3.540039,-11.535645,35.835938
60480,1.455675,8.288726,-1.201889,19.683838,-33.782959,-5.157471,35.839844
60520,2.901772,10.807426,-0.301669,11.016846,-50.628662,1.098633,35.832031
60560,5.736507,12.306197,0.325611,6.225586,-31.616211,-11.718750,35.841797
60600,5.621585,13.263878,-1.465251,12.268066,-53.619385,-18.035889,35.830078
60640,3.390190,11.798626,1.053449,33.843994,-17.333984,-1.464844,35.835938
60680,0.378284,9.600749,6.880936,15.319824,31.677246,3.936768,35.871094
60720,1.900996,10.132261,6.052542,26.184082,9.399414,1.098633,35.851562
60760,6.435614,10.678140,4.994305,47.760010,-87.615967,39.672852,35.841797
60800,6.478710,9.734824,3.667917,17.669678,33.935547,23.193359,35.859375
60840,1.575385,8.164227,-0.086191,-22.491455,28.472900,22.644043,35.857422
60880,0.272939,4.836287,0.814029,-37.567139,55.389404,22.308350,35.837891
60920,1.110910,3.969586,0.814029,-36.315918,46.356201,4.425049,35.837891
60960,3.284845,5.090073,0.105345,-17.730713,47.485352,-5.371094,35.853516
61000,5.588067,7.738060,-0.047884,7.873535,21.667480,-13.397217,35.851562
61040,5.951985,11.214440,0.560243,11.688232,22.003174,1.037598,35.857422
61080,7.120356,12.646173,0.162806,42.327881,26.519775,18.737793,35.841797
61120,7.048530,11.985373,3.323152,28.686523,14.160156,33.966064,35.841797
61160,4.955997,11.085154,5.961562,-7.598877,-10.192871,10.711670,35.853516
61200,1.757344,11.760319,4.994305,-20.172119,13.275146,-5.584717,35.847656
61240,1.264138,12.981361,3.840300,-36.315918,-9.979248,-10.589600,35.832031
61280,4.678270,9.251195,2.092532,-9.094238,-38.330078,-15.930176,35.845703
61320,5.406107,4.917690,1.077391,-12.939453,-2.319336,-43.243408,35.853516
61360,1.498770,2.609680,1.513135,-14.190674,-35.888672,-75.500488,35.843750
61400,-1.149217,3.567361,0.962469,-43.823242,-50.659180,-27.069092,35.857422
61440,1.158794,7.101202,-1.417367,-4.821777,-35.095215,-5.645752,35.865234
61480,3.222595,11.013328,0.014365,1.800537,-56.182861,-3.570557,35.875000
61520,5.425261,13.445837,0.445322,11.688232,-41.687012,-15.411377,35.871094
61560,5.128380,14.599842,-0.119710,-1.708984,-24.169922,-37.109375,35.871094
61600,2.987964,14.393941,3.787627,-51.818848,61.584473,-33.874512,35.880859
61640,-0.339977,9.806650,5.612009,32.409668,31.616211,24.414062,35.886719
61680,0.186748,8.777143,5.990293,-15.197754,-5.035400,24.932861,35.892578
61720,4.491522,8.542512,6.335058,95.123291,-124.114990,77.117920,35.869141
61760,6.153099,8.552089,5.544971,78.491211,50.933838,47.332764,35.875000
61800,1.422156,7.843405,0.090980,-43.975830,28.198242,23.437500,35.888672
61840,0.229843,4.960786,-0.225055,-22.369385,61.492920,19.470215,35.859375
61880,1.465251,3.950433,0.287304,-22.888184,55.969238,0.518799,35.884766
61920,3.964798,5.176264,0.450110,-9.063721,43.945312,-6.896973,35.896484
61960,5.817910,8.207323,0.565032,9.796143,14.923096,-9.063721,35.884766
62000,6.684611,11.228806,0.708684,18.768311,11.779785,0.762939,35.861328
62040,7.910442,12.224793,0.047884,27.343750,22.521973,15.014648,35.880859
62080,7.302315,11.980585,1.163582,58.319092,20.629883,25.817871,35.904297
62120,3.280056,10.170568,5.228937,36.865234,-17.181396,13.000488,35.880859
62160,1.896208,9.126697,5.956774,-50.994873,-17.608643,8.270264,35.871094
62200,1.675941,12.421119,3.960010,-49.285889,-4.577637,-3.051758,35.884766
62240,3.055001,11.506534,1.723825,-9.429932,-22.125244,-24.993896,35.882812
62280,5.056554,7.680599,0.694318,-13.153076,-59.783936,-24.841309,35.878906
62320,4.027047,4.223372,1.460463,-21.575928,-25.115967,-47.149658,35.876953
62360,0.565032,3.232172,1.230620,-13.397217,-33.142090,-33.721924,35.904297
62400,0.023942,5.339070,-0.272939,-21.759033,-10.559082,-8.331299,35.892578
62440,1.240196,9.236830,-0.995988,1.922607,-38.787842,-2.716064,35.892578
62480,4.434062,11.602302,0.229843,-2.014160,-30.639648,1.495361,35.890625
62520,6.909666,13.297397,-0.799663,-6.408691,-23.468018,-11.993408,35.925781
62560,5.348647,13.618219,-0.708684,27.954102,-37.322998,-24.749756,35.896484
62600,1.168370,11.822568,5.315128,5.218506,43.273926,-6.896973,35.890625
62640,-0.028730,9.868899,6.143522,23.223877,14.526367,9.521484,35.908203
62680,3.591303,10.309433,5.382165,39.672852,-33.569336,25.360107,35.896484
62720,7.086837,9.538500,5.731719,53.497314,-10.864258,46.752930,35.880859
62760,3.485958,8.844181,0.809240,-42.816162,49.499512,30.090332,35.900391
62800,-0.316035,6.033388,-0.071826,2.075195,62.133789,27.893066,35.896484
62840,-0.028730,3.845088,0.943315,-20.538330,71.563721,12.390137,35.890625
62880,2.427721,4.314352,0.392649,-19.104004,64.788818,-5.279541,35.896484
62920,5.722142,6.517017,-0.172383,2.899170,32.165527,-11.260986,35.898438
62960,6.612785,8.868123,0.785298,2.441406,5.889893,-0.396729,35.890625
63000,6.885724,11.650186,0.507571,3.479004,13.214111,12.451172,35.910156
63040,7.603985,12.933477,-0.478840,48.217773,24.230957,20.721436,35.916016
63080,5.391742,12.344504,3.131616,61.706543,1.831055,21.270752,35.910156
63120,2.964022,9.825804,6.521805,-12.542725,-2.868652,6.195068,35.906250
63160,1.757344,10.998962,4.812346,-59.661865,-11.688232,2.990723,35.906250
63200,1.968034,12.358870,2.892196,-23.223877,14.404297,-16.082764,35.910156
63240,4.007894,9.112331,0.952892,-13.854980,-49.835205,-23.376465,35.914062
63280,5.549759,4.994305,1.005565,-37.139893,2.593994,-45.410156,35.914062
63320,2.130840,2.853889,1.618480,-27.038574,-18.310547,-61.279297,35.916016
63360,0.004788,3.878607,0.679953,-37.628174,-10.131836,-21.575928,35.908203
63400,0.833182,7.819463,-0.991199,-2.441406,-24.780273,-7.019043,35.902344
63440,2.758120,11.133038,-0.263362,17.364502,-49.133301,4.211426,35.933594
63480,6.047753,12.952631,0.268151,10.375977,-31.616211,0.213623,35.919922
63520,5.549759,14.518439,-0.033519,0.030518,-19.256592,-39.276123,35.939453
63560,1.853112,14.025233,4.587290,-24.597168,64.422607,-35.430908,35.949219
63600,-0.842759,10.194510,5.444415,41.381836,12.725830,20.721436,35.933594
63640,1.656788,9.121908,5.310339,23.712158,-9.552002,44.738770,35.939453
63680,6.095637,9.131485,6.354211,108.306885,-83.679199,56.274414,35.953125
63720,5.248090,8.643068,5.123591,1.495361,48.950195,34.851074,35.947266
63760,0.732626,7.302315,-1.101333,0.152588,44.067383,27.648926,35.949219
63800,0.124498,4.635174,0.416591,-8.697510,82.031250,22.949219,35.947266
63840,1.886631,4.151546,0.474052,-16.387939,59.875488,-3.845215,35.916016
63880,4.869806,5.525817,0.220267,7.690430,47.088623,-6.866455,35.939453
63920,6.114791,8.245630,0.737414,3.692627,15.014648,-3.784180,35.958984
63960,6.114791,11.286267,0.746991,6.744385,14.404297,8.605957,35.958984
64000,7.297527,12.612655,-0.584185,32.562256,26.519775,19.165039,35.945312
64040,6.248867,12.430696,1.987187,50.659180,20.965576,25.024414,35.949219
64080,3.193865,10.395624,6.090849,9.796143,-2.716064,5.126953,35.958984
64120,2.279280,9.868899,5.066131,-45.379639,-27.069092,4.089355,35.943359
64160,1.833959,12.263102,3.725378,-31.799316,35.614014,-7.690430,35.951172
64200,3.284845,10.342952,1.479617,-2.319336,-32.531738,-22.827148,35.933594
64240,5.382165,6.272809,0.689530,-6.988525,-28.717041,-32.806396,35.968750
64280,3.327940,3.265691,1.599327,-19.348145,-7.751465,-54.748535,35.970703
64320,0.316035,3.643975,1.177947,-30.120850,-19.226074,-24.780273,35.955078
64360,0.517148,7.153875,-1.130063,0.885010,-22.003174,-11.444092,35.958984
64400,2.130840,10.740389,-0.895431,18.585205,-56.579590,-5.767822,35.962891
64440,5.741296,11.918336,-0.114922,24.810791,-35.614014,10.772705,35.958984
64480,6.205771,13.369223,-1.417367,11.932373,-36.010742,-9.796143,35.953125
64520,3.610456,12.952631,0.545878,30.426025,0.427246,-21.087646,35.933594
64560,0.057461,10.807426,6.655881,-15.686035,36.834717,-4.119873,35.978516
64600,1.225831,9.840169,5.770026,49.041748,33.447266,16.387939,35.955078
64640,4.750096,10.864887,5.219360,46.569824,-74.188232,33.569336,35.968750
64680,6.694188,9.227253,5.363012,35.003662,29.113770,41.320801,35.988281
64720,2.059013,8.604761,-0.100556,-28.137207,45.196533,26.245117,35.966797
64760,-0.545878,5.784391,-0.244209,-7.263184,63.903809,21.148682,35.964844
64800,0.914585,3.897760,0.775721,-27.038574,66.253662,10.131836,35.962891
64840,3.605668,4.496311,0.478840,-39.978027,50.506592,-7.965088,35.978516
64880,5.947197,6.809110,0.009577,-8.789062,21.240234,-7.263184,35.980469
64920,6.282385,10.031705,0.785298,-8.209229,1.281738,2.532959,35.964844
64960,6.861782,12.540829,0.062249,9.582520,11.688232,10.406494,35.955078
65000,7.153875,12.727576,-0.474052,66.619873,22.216797,15.960693,35.980469
65040,4.481946,11.425131,3.658340,68.634033,-3.814697,12.908936,35.984375
65080,2.729390,8.896853,6.445191,-17.517090,-15.411377,5.676270,35.980469
65120,2.217031,10.840945,4.941632,-75.012207,-9.582520,-2.136230,35.955078
65160,2.466028,12.277467,2.523489,-17.059326,-5.218506,-18.188477,35.980469
65200,4.788404,9.323022,0.397437,-7.049561,-59.082031,-27.069092,35.982422
65240,5.386954,5.463568,1.015141,-52.520752,40.374756,-63.354492,35.964844
65280,1.470040,2.547431,1.929727,-11.199951,-32.928467,-39.794922,35.972656
65320,0.177171,4.027047,0.933739,-21.850586,-31.066895,-12.603760,35.978516
65360,1.058237,8.111555,-1.465251,10.223389,-26.611328,-2.899170,35.984375
65400,2.667141,11.008539,-0.220267,4.180908,-37.872314,-2.044678,35.968750
